"Time (s)","Acceleration x (m/s^2)","Acceleration y (m/s^2)","Acceleration z (m/s^2)","Absolute acceleration (m/s^2)"
2.292105700E-2,1.118644550E-1,-1.017428207E1,-3.230310678E-1,1.018002350E1
2.536475500E-2,9.990034252E-2,-1.017906761E1,-3.589234054E-1,1.018588354E1
2.780933800E-2,1.142572835E-1,-1.018863869E1,-3.756731451E-1,1.019620240E1
3.025387000E-2,9.990034252E-2,-1.016710377E1,-3.828516304E-1,1.017479997E1
3.269840100E-2,9.272187948E-2,-1.016949654E1,-3.900300860E-1,1.017739557E1
3.514376600E-2,1.190429255E-1,-1.015992451E1,-3.972085714E-1,1.016838295E1
3.758746300E-2,1.190429255E-1,-1.017667484E1,-3.876372576E-1,1.018475060E1
4.003204700E-2,1.214357466E-1,-1.016231823E1,-3.780659735E-1,1.017007337E1
4.247735900E-2,1.094716340E-1,-1.016231823E1,-3.780659735E-1,1.016993755E1
4.492105700E-2,1.190429255E-1,-1.016710377E1,-3.517449200E-1,1.017388297E1
4.736564100E-2,1.142572835E-1,-1.018624592E1,-3.373879790E-1,1.019247229E1
4.981017200E-2,1.094716340E-1,-1.016231823E1,-3.445664644E-1,1.016874731E1
5.225470300E-2,1.046859920E-1,-1.017428207E1,-3.517449200E-1,1.018089875E1
5.470001600E-2,1.046859920E-1,-1.017906761E1,-3.661018610E-1,1.018618708E1
5.714371300E-2,1.214357466E-1,-1.016710377E1,-3.948157430E-1,1.017549139E1
5.958829700E-2,1.286142170E-1,-1.016949654E1,-3.924229145E-1,1.017787783E1
6.203366100E-2,9.990034252E-2,-1.015992451E1,-3.828516304E-1,1.016762615E1
6.447730700E-2,1.166501045E-1,-1.017906761E1,-3.852444589E-1,1.018702302E1
6.692189100E-2,1.070788130E-1,-1.017188931E1,-4.067798555E-1,1.018058288E1
6.936647400E-2,9.990034252E-2,-1.017906761E1,-4.259224236E-1,1.018846443E1
7.181100500E-2,1.094716340E-1,-1.016710377E1,-3.900300860E-1,1.017517108E1
7.425631800E-2,1.118644550E-1,-1.016949654E1,-3.804588020E-1,1.017722567E1
7.670001600E-2,1.022931710E-1,-1.016949654E1,-3.756731451E-1,1.017694718E1
7.914459900E-2,1.070788130E-1,-1.017667484E1,-4.067798555E-1,1.018536433E1
8.158991100E-2,1.094716340E-1,-1.018385315E1,-3.924229145E-1,1.019199906E1
8.403360900E-2,1.118644550E-1,-1.017906761E1,-3.876372576E-1,1.018706011E1
8.647819300E-2,1.142572835E-1,-1.018385315E1,-3.756731451E-1,1.019142041E1
8.892272400E-2,9.272187948E-2,-1.018863869E1,-3.756731451E-1,1.019598382E1
9.136725500E-2,1.262213886E-1,-1.016949654E1,-3.780659735E-1,1.017730443E1
9.381262000E-2,1.070788130E-1,-1.016710377E1,-3.828516304E-1,1.017487298E1
9.625631800E-2,1.046859920E-1,-1.015753174E1,-3.948157430E-1,1.016574098E1
9.870090100E-2,9.511470050E-2,-1.016471100E1,-3.900300860E-1,1.017263584E1
1.011462130E-1,9.750752151E-2,-1.015274620E1,-4.043870270E-1,1.016126429E1
1.035899110E-1,1.070788130E-1,-1.018146038E1,-3.900300860E-1,1.018949090E1
1.060344950E-1,9.511470050E-2,-1.018385315E1,-3.589234054E-1,1.019062009E1
1.084790260E-1,1.070788130E-1,-1.017428207E1,-3.828516304E-1,1.018204581E1
1.109235570E-1,1.142572835E-1,-1.016710377E1,-3.732803464E-1,1.017459542E1
1.133688700E-1,1.046859920E-1,-1.015035343E1,-3.804588020E-1,1.015802062E1
1.158125680E-1,1.046859920E-1,-1.017428207E1,-3.661018610E-1,1.018140489E1
1.182571510E-1,9.272187948E-2,-1.017906761E1,-3.637090325E-1,1.018598542E1
1.207025160E-1,1.118644550E-1,-1.016710377E1,-3.708875179E-1,1.017448132E1
1.231462130E-1,1.214357466E-1,-1.016231823E1,-3.876372576E-1,1.017043367E1
1.255907970E-1,1.142572835E-1,-1.016471100E1,-3.804588020E-1,1.017247036E1
1.280353280E-1,1.070788130E-1,-1.017428207E1,-3.661018610E-1,1.018142977E1
1.304798590E-1,9.750752151E-2,-1.016949654E1,-3.780659735E-1,1.017698882E1
1.329251720E-1,1.046859920E-1,-1.016710377E1,-3.924229145E-1,1.017521272E1
1.353688700E-1,1.166501045E-1,-1.016471100E1,-3.541377485E-1,1.017154710E1
1.378134530E-1,1.070788130E-1,-1.015753174E1,-3.780659735E-1,1.016512916E1
1.402587660E-1,1.022931710E-1,-1.016471100E1,-3.732803464E-1,1.017207706E1
1.427024630E-1,8.315058798E-2,-1.015035343E1,-3.637090325E-1,1.015720794E1
1.451470470E-1,9.990034252E-2,-1.015513897E1,-3.804588020E-1,1.016275437E1
1.475915780E-1,1.094716340E-1,-1.017428207E1,-3.900300860E-1,1.018234370E1
1.500361610E-1,1.046859920E-1,-1.017906761E1,-3.613162339E-1,1.018601620E1
1.524814740E-1,1.262213886E-1,-1.015274620E1,-3.852444589E-1,1.016083661E1
1.549251720E-1,1.118644550E-1,-1.015513897E1,-3.780659735E-1,1.016278973E1
1.573697550E-1,1.094716340E-1,-1.016471100E1,-3.804588020E-1,1.017241774E1
1.598150680E-1,1.046859920E-1,-1.016231823E1,-3.541377485E-1,1.016902574E1
1.622587660E-1,1.094716340E-1,-1.016710377E1,-3.541377485E-1,1.017385849E1
1.647033490E-1,9.750752151E-2,-1.014317513E1,-3.732803464E-1,1.015050972E1
1.671478800E-1,8.793623000E-2,-1.016471100E1,-3.780659735E-1,1.017211956E1
1.695924110E-1,1.070788130E-1,-1.017667484E1,-3.708875179E-1,1.018399402E1
1.720377760E-1,9.990034252E-2,-1.015753174E1,-3.924229145E-1,1.016560017E1
1.744814220E-1,9.032905847E-2,-1.015992451E1,-3.804588020E-1,1.016744679E1
1.769260050E-1,9.511470050E-2,-1.017428207E1,-3.876372576E-1,1.018210809E1
1.793713700E-1,9.750752151E-2,-1.017667484E1,-3.565305769E-1,1.018338513E1
1.818150680E-1,1.022931710E-1,-1.018146038E1,-3.804588020E-1,1.018907985E1
1.842596510E-1,1.142572835E-1,-1.015992451E1,-3.852444589E-1,1.016786772E1
1.867041820E-1,1.070788130E-1,-1.014556789E1,-3.780659735E-1,1.015317426E1
1.891487130E-1,1.190429255E-1,-1.016231823E1,-3.756731451E-1,1.016995641E1
1.915940260E-1,1.190429255E-1,-1.017188931E1,-3.637090325E-1,1.017908579E1
1.940377240E-1,1.070788130E-1,-1.016710377E1,-3.780659735E-1,1.017469404E1
1.964823070E-1,1.094716340E-1,-1.017188931E1,-3.684946895E-1,1.017915048E1
1.989276200E-1,1.214357466E-1,-1.017906761E1,-3.661018610E-1,1.018637299E1
2.013713180E-1,1.142572835E-1,-1.018385315E1,-3.708875179E-1,1.019124513E1
2.038159010E-1,9.990034252E-2,-1.017906761E1,-3.661018610E-1,1.018613902E1
2.062604840E-1,1.094716340E-1,-1.015274620E1,-3.565305769E-1,1.015959416E1
2.087050160E-1,1.118644550E-1,-1.015992451E1,-3.661018610E-1,1.016713383E1
2.111503280E-1,1.118644550E-1,-1.016231823E1,-3.780659735E-1,1.016996359E1
2.135940260E-1,1.118644550E-1,-1.016231823E1,-3.756731451E-1,1.016987491E1
2.160386090E-1,1.070788130E-1,-1.016710377E1,-3.684946895E-1,1.017434289E1
2.184839220E-1,1.070788130E-1,-1.016471100E1,-3.804588020E-1,1.017239227E1
2.209276200E-1,1.333998591E-1,-1.015992451E1,-3.780659735E-1,1.016783140E1
2.233722030E-1,1.094716340E-1,-1.017667484E1,-3.804588020E-1,1.018437253E1
2.258167340E-1,1.046859920E-1,-1.017667484E1,-3.756731451E-1,1.018414456E1
2.282612660E-1,1.094716340E-1,-1.016231823E1,-3.708875179E-1,1.016967322E1
2.307066300E-1,1.070788130E-1,-1.015513897E1,-3.708875179E-1,1.016247366E1
2.331502760E-1,1.094716340E-1,-1.015753174E1,-3.996013701E-1,1.016597837E1
2.355949110E-1,9.990034252E-2,-1.017428207E1,-3.565305769E-1,1.018101713E1
2.380402240E-1,1.166501045E-1,-1.016949654E1,-3.661018610E-1,1.017675280E1
2.404839220E-1,1.118644550E-1,-1.018146038E1,-3.876372576E-1,1.018945100E1
2.429285050E-1,1.118644550E-1,-1.017667484E1,-3.684946895E-1,1.018395860E1
2.453730360E-1,1.046859920E-1,-1.016471100E1,-3.708875179E-1,1.017201388E1
2.478175680E-1,1.046859920E-1,-1.017428207E1,-3.780659735E-1,1.018184211E1
2.502628800E-1,1.214357466E-1,-1.015753174E1,-3.780659735E-1,1.016529053E1
2.527065780E-1,1.046859920E-1,-1.020299530E1,-3.804588020E-1,1.021062296E1
2.551511610E-1,1.094716340E-1,-1.017667484E1,-3.661018610E-1,1.018384630E1
2.575965260E-1,1.190429255E-1,-1.016949654E1,-3.637090325E-1,1.017669471E1
2.600401720E-1,1.262213886E-1,-1.017188931E1,-3.804588020E-1,1.017978452E1
2.624847550E-1,9.750752151E-2,-1.016710377E1,-3.732803464E-1,1.017442111E1
2.649293380E-1,1.142572835E-1,-1.016471100E1,-3.613162339E-1,1.017177240E1
2.673738700E-1,1.166501045E-1,-1.017428207E1,-3.828516304E-1,1.018215097E1
2.698191820E-1,1.070788130E-1,-1.015274620E1,-3.613162339E-1,1.015973773E1
2.722628800E-1,1.094716340E-1,-1.016949654E1,-3.852444589E-1,1.017737968E1
2.747074630E-1,1.022931710E-1,-1.018624592E1,-3.613162339E-1,1.019316532E1
2.771527760E-1,9.272187948E-2,-1.015992451E1,-3.708875179E-1,1.016711468E1
2.795964740E-1,1.333998591E-1,-1.016949654E1,-3.972085714E-1,1.017812507E1
2.820410570E-1,1.190429255E-1,-1.014556789E1,-3.684946895E-1,1.015295560E1
2.844855880E-1,9.511470050E-2,-1.017188931E1,-3.780659735E-1,1.017935719E1
2.869301200E-1,1.142572835E-1,-1.015513897E1,-3.756731451E-1,1.016272761E1
2.893754840E-1,1.214357466E-1,-1.016710377E1,-3.804588020E-1,1.017494445E1
2.918191820E-1,1.142572835E-1,-1.017667484E1,-3.613162339E-1,1.018372795E1
2.942637660E-1,1.118644550E-1,-1.016471100E1,-3.804588020E-1,1.017244377E1
2.967090780E-1,1.238285750E-1,-1.016231823E1,-3.828516304E-1,1.017028125E1
2.991527760E-1,9.272187948E-2,-1.016949654E1,-3.900300860E-1,1.017739557E1
3.015973590E-1,1.022931710E-1,-1.014796066E1,-3.756731451E-1,1.015542711E1
3.040418910E-1,1.046859920E-1,-1.018146038E1,-3.661018610E-1,1.018857817E1
3.064864220E-1,1.046859920E-1,-1.017667484E1,-3.732803464E-1,1.018405657E1
3.089317340E-1,1.142572835E-1,-1.015753174E1,-3.708875179E-1,1.016494286E1
3.113754320E-1,1.142572835E-1,-1.015513897E1,-3.780659735E-1,1.016281635E1
3.138200160E-1,1.094716340E-1,-1.015992451E1,-3.804588020E-1,1.016763487E1
3.162653800E-1,1.118644550E-1,-1.017667484E1,-3.637090325E-1,1.018378656E1
3.187090260E-1,1.022931710E-1,-1.016710377E1,-3.804588020E-1,1.017473399E1
3.211536090E-1,9.032905847E-2,-1.017906761E1,-3.972085714E-1,1.018721510E1
3.235981930E-1,1.166501045E-1,-1.015035343E1,-3.876372576E-1,1.015842235E1
3.260427240E-1,1.214357466E-1,-1.017428207E1,-3.876372576E-1,1.018238798E1
3.284880360E-1,1.166501045E-1,-1.015753174E1,-3.876372576E-1,1.016559496E1
3.309317340E-1,1.070788130E-1,-1.015753174E1,-3.565305769E-1,1.016435098E1
3.333763180E-1,1.070788130E-1,-1.017188931E1,-3.780659735E-1,1.017947601E1
3.358216300E-1,9.990034252E-2,-1.016231823E1,-3.948157430E-1,1.017047547E1
3.382653280E-1,9.511470050E-2,-1.016471100E1,-3.924229145E-1,1.017272787E1
3.407099110E-1,9.032905847E-2,-1.016471100E1,-3.780659735E-1,1.017214053E1
3.431544430E-1,1.118644550E-1,-1.016231823E1,-3.708875179E-1,1.016969926E1
3.455989740E-1,1.142572835E-1,-1.015992451E1,-3.780659735E-1,1.016759827E1
3.480443380E-1,1.022931710E-1,-1.016231823E1,-3.756731451E-1,1.016977414E1
3.504879840E-1,1.142572835E-1,-1.017188931E1,-3.732803464E-1,1.017937744E1
3.529326200E-1,1.070788130E-1,-1.017428207E1,-3.541377485E-1,1.018100659E1
3.553779320E-1,1.070788130E-1,-1.015992451E1,-3.852444589E-1,1.016778959E1
3.578216300E-1,9.990034252E-2,-1.016710377E1,-3.708875179E-1,1.017435682E1
3.602662130E-1,9.272187948E-2,-1.017428207E1,-3.876372576E-1,1.018208602E1
3.627107450E-1,1.166501045E-1,-1.016471100E1,-3.732803464E-1,1.017223157E1
3.651552760E-1,1.094716340E-1,-1.016949654E1,-3.661018610E-1,1.017667305E1
3.676005880E-1,9.511470050E-2,-1.015992451E1,-3.661018610E-1,1.016696333E1
3.700442860E-1,1.022931710E-1,-1.016949654E1,-3.684946895E-1,1.017668473E1
3.724888700E-1,1.214357466E-1,-1.018385315E1,-3.732803464E-1,1.019141550E1
3.749342340E-1,9.750752151E-2,-1.018624592E1,-3.852444589E-1,1.019399465E1
3.773778800E-1,9.272187948E-2,-1.016949654E1,-4.043870270E-1,1.017795589E1
3.798224630E-1,1.118644550E-1,-1.016710377E1,-3.684946895E-1,1.017439438E1
3.822669950E-1,1.118644550E-1,-1.017188931E1,-3.924229145E-1,1.018007080E1
3.847115780E-1,1.070788130E-1,-1.017667484E1,-3.924229145E-1,1.018480105E1
3.871568910E-1,1.094716340E-1,-1.016231823E1,-3.900300860E-1,1.017038934E1
3.896005880E-1,1.286142170E-1,-1.016471100E1,-3.661018610E-1,1.017211492E1
3.920451720E-1,1.214357466E-1,-1.016710377E1,-3.661018610E-1,1.017441773E1
3.944904840E-1,1.022931710E-1,-1.017188931E1,-3.924229145E-1,1.017997012E1
3.969341820E-1,1.238285750E-1,-1.017906761E1,-3.804588020E-1,1.018692789E1
3.993787660E-1,1.046859920E-1,-1.016949654E1,-3.589234054E-1,1.017636698E1
4.018232970E-1,1.094716340E-1,-1.016471100E1,-3.684946895E-1,1.017197729E1
4.042678280E-1,1.357926875E-1,-1.017906761E1,-3.684946895E-1,1.018664054E1
4.067131930E-1,1.070788130E-1,-1.016231823E1,-3.684946895E-1,1.016956076E1
4.091568380E-1,9.272187948E-2,-1.016471100E1,-3.661018610E-1,1.017172442E1
4.116014220E-1,9.750752151E-2,-1.016949654E1,-3.613162339E-1,1.017638035E1
4.140467860E-1,1.238285750E-1,-1.018385315E1,-3.637090325E-1,1.019109821E1
4.164904840E-1,1.166501045E-1,-1.016471100E1,-3.756731451E-1,1.017231966E1
4.189350680E-1,1.142572835E-1,-1.015753174E1,-3.852444589E-1,1.016547682E1
4.213795990E-1,9.511470050E-2,-1.017667484E1,-3.828516304E-1,1.018431800E1
4.238241300E-1,1.046859920E-1,-1.016710377E1,-3.708875179E-1,1.017440493E1
4.262694430E-1,1.094716340E-1,-1.017667484E1,-3.732803464E-1,1.018410689E1
4.287131410E-1,1.022931710E-1,-1.017906761E1,-3.493520916E-1,1.018557452E1
4.311577240E-1,1.262213886E-1,-1.016471100E1,-3.589234054E-1,1.017182911E1
4.336030360E-1,9.750752151E-2,-1.016710377E1,-3.541377485E-1,1.017373679E1
4.360467340E-1,9.750752151E-2,-1.018624592E1,-3.637090325E-1,1.019320351E1
4.384913180E-1,7.836493850E-2,-1.017188931E1,-3.661018610E-1,1.017877712E1
4.409358490E-1,1.022931710E-1,-1.015753174E1,-3.756731451E-1,1.016499116E1
4.433804320E-1,8.793623000E-2,-1.016471100E1,-3.756731451E-1,1.017203091E1
4.458257450E-1,1.238285750E-1,-1.016471100E1,-3.708875179E-1,1.017222890E1
4.482694430E-1,1.190429255E-1,-1.017906761E1,-3.708875179E-1,1.018651786E1
4.507140260E-1,1.118644550E-1,-1.017667484E1,-3.708875179E-1,1.018404547E1
4.531593380E-1,1.094716340E-1,-1.016710377E1,-3.852444589E-1,1.017498876E1
4.556030360E-1,1.094716340E-1,-1.015992451E1,-3.637090325E-1,1.016702190E1
4.580476200E-1,1.046859920E-1,-1.017188931E1,-3.684946895E-1,1.017910013E1
4.604921510E-1,9.272187948E-2,-1.016471100E1,-3.684946895E-1,1.017181082E1
4.629366820E-1,1.094716340E-1,-1.016710377E1,-3.708875179E-1,1.017445530E1
4.653819950E-1,9.990034252E-2,-1.017188931E1,-3.924229145E-1,1.017994636E1
4.678256930E-1,1.190429255E-1,-1.015753174E1,-3.948157430E-1,1.016589896E1
4.702702760E-1,1.022931710E-1,-1.016471100E1,-3.708875179E-1,1.017198954E1
4.727156410E-1,1.190429255E-1,-1.016710377E1,-3.732803464E-1,1.017465029E1
4.751593380E-1,9.511470050E-2,-1.015513897E1,-3.900300860E-1,1.016307128E1
4.776039220E-1,1.070788130E-1,-1.017906761E1,-3.661018610E-1,1.018621195E1
4.800484530E-1,9.272187948E-2,-1.017188931E1,-3.732803464E-1,1.017915849E1
4.824929840E-1,1.070788130E-1,-1.015274620E1,-3.684946895E-1,1.015999555E1
4.849382970E-1,1.070788130E-1,-1.016231823E1,-3.613162339E-1,1.016930318E1
4.873819950E-1,1.022931710E-1,-1.016231823E1,-3.852444589E-1,1.017013220E1
4.898265780E-1,9.272187948E-2,-1.017188931E1,-3.517449200E-1,1.017839152E1
4.922718910E-1,9.750752151E-2,-1.016949654E1,-3.541377485E-1,1.017612800E1
4.947155880E-1,1.070788130E-1,-1.016710377E1,-3.708875179E-1,1.017442983E1
4.971601720E-1,1.262213886E-1,-1.015513897E1,-3.637090325E-1,1.016243394E1
4.996047030E-1,1.046859920E-1,-1.016471100E1,-3.852444589E-1,1.017254748E1
5.020492340E-1,1.142572835E-1,-1.016710377E1,-3.852444589E-1,1.017504138E1
5.044945990E-1,9.272187948E-2,-1.016949654E1,-3.708875179E-1,1.017667994E1
5.069382970E-1,1.142572835E-1,-1.018624592E1,-3.900300860E-1,1.019435060E1
5.093828800E-1,1.142572835E-1,-1.016710377E1,-3.589234054E-1,1.017407882E1
5.118281930E-1,8.793623000E-2,-1.018385315E1,-3.828516304E-1,1.019142645E1
5.142718910E-1,9.990034252E-2,-1.016231823E1,-3.756731451E-1,1.016975035E1
5.167164740E-1,1.094716340E-1,-1.018146038E1,-3.684946895E-1,1.018871473E1
5.191610050E-1,1.118644550E-1,-1.015274620E1,-3.876372576E-1,1.016075941E1
5.216055360E-1,9.032905847E-2,-1.015753174E1,-3.732803464E-1,1.016478965E1
5.240508490E-1,1.022931710E-1,-1.015753174E1,-3.756731451E-1,1.016499116E1
5.264945470E-1,9.511470050E-2,-1.014796066E1,-3.613162339E-1,1.015483638E1
5.289391300E-1,1.214357466E-1,-1.017188931E1,-3.517449200E-1,1.017869359E1
5.313844950E-1,1.118644550E-1,-1.016231823E1,-3.804588020E-1,1.017005282E1
5.338281410E-1,1.142572835E-1,-1.017906761E1,-3.637090325E-1,1.018620422E1
5.362727760E-1,1.070788130E-1,-1.018146038E1,-3.589234054E-1,1.018834763E1
5.387173070E-1,1.046859920E-1,-1.016949654E1,-3.613162339E-1,1.017645166E1
5.411618380E-1,1.190429255E-1,-1.016471100E1,-3.756731451E-1,1.017234738E1
5.436071510E-1,1.070788130E-1,-1.016949654E1,-3.708875179E-1,1.017682088E1
5.460508490E-1,1.262213886E-1,-1.016471100E1,-3.804588020E-1,1.017261178E1
5.484954320E-1,1.118644550E-1,-1.018146038E1,-3.900300860E-1,1.018954232E1
5.509407450E-1,9.750752151E-2,-1.016471100E1,-3.780659735E-1,1.017220680E1
5.533844430E-1,1.142572835E-1,-1.017428207E1,-3.613162339E-1,1.018133684E1
5.558290260E-1,1.214357466E-1,-1.017667484E1,-3.900300860E-1,1.018487020E1
5.582735570E-1,1.214357466E-1,-1.016471100E1,-3.661018610E-1,1.017202669E1
5.607180880E-1,1.190429255E-1,-1.015992451E1,-3.780659735E-1,1.016765318E1
5.631634530E-1,1.286142170E-1,-1.015753174E1,-3.613162339E-1,1.016476965E1
5.656070990E-1,1.190429255E-1,-1.016471100E1,-3.732803464E-1,1.017225929E1
5.680517340E-1,1.118644550E-1,-1.015513897E1,-3.708875179E-1,1.016252521E1
5.704970470E-1,1.094716340E-1,-1.016949654E1,-3.804588020E-1,1.017719965E1
5.729407450E-1,1.070788130E-1,-1.014796066E1,-3.756731451E-1,1.015547644E1
5.753853280E-1,1.166501045E-1,-1.015992451E1,-3.804588020E-1,1.016771470E1
5.778298590E-1,9.990034252E-2,-1.017188931E1,-3.732803464E-1,1.017922641E1
5.802743910E-1,1.070788130E-1,-1.016231823E1,-3.708875179E-1,1.016964774E1
5.827197030E-1,1.262213886E-1,-1.017428207E1,-3.732803464E-1,1.018190973E1
5.851634010E-1,1.190429255E-1,-1.016710377E1,-3.589234054E-1,1.017413369E1
5.876079840E-1,1.142572835E-1,-1.016949654E1,-3.661018610E-1,1.017672566E1
5.900532970E-1,1.238285750E-1,-1.016710377E1,-3.661018610E-1,1.017444657E1
5.924969950E-1,1.166501045E-1,-1.017188931E1,-3.708875179E-1,1.017931711E1
5.949415780E-1,1.118644550E-1,-1.015035343E1,-3.732803464E-1,1.015783080E1
5.973861090E-1,1.214357466E-1,-1.016471100E1,-3.661018610E-1,1.017202669E1
5.998306410E-1,1.070788130E-1,-1.015274620E1,-3.828516304E-1,1.016052640E1
6.022760050E-1,9.990034252E-2,-1.017188931E1,-3.613162339E-1,1.017879470E1
6.047197030E-1,9.990034252E-2,-1.015035343E1,-3.828516304E-1,1.015806233E1
6.071642860E-1,1.118644550E-1,-1.016710377E1,-3.780659735E-1,1.017474553E1
6.096095990E-1,9.750752151E-2,-1.017906761E1,-3.613162339E-1,1.018594495E1
6.120532970E-1,1.286142170E-1,-1.015992451E1,-3.900300860E-1,1.016822163E1
6.144978800E-1,1.070788130E-1,-1.017906761E1,-3.804588020E-1,1.018673806E1
6.169424110E-1,1.022931710E-1,-1.016231823E1,-3.756731451E-1,1.016977414E1
6.193869430E-1,1.214357466E-1,-1.017428207E1,-3.708875179E-1,1.018176409E1
6.218323070E-1,1.046859920E-1,-1.017188931E1,-3.708875179E-1,1.017918704E1
6.242759530E-1,1.022931710E-1,-1.015992451E1,-3.517449200E-1,1.016652617E1
6.267205360E-1,1.046859920E-1,-1.015753174E1,-3.684946895E-1,1.016475275E1
6.291659010E-1,1.214357466E-1,-1.015513897E1,-3.924229145E-1,1.016344380E1
6.316095990E-1,1.166501045E-1,-1.017188931E1,-3.780659735E-1,1.017958119E1
6.340541820E-1,9.032905847E-2,-1.017667484E1,-3.589234054E-1,1.018340298E1
6.364987130E-1,1.022931710E-1,-1.017188931E1,-3.684946895E-1,1.017907581E1
6.389432450E-1,1.310070455E-1,-1.016231823E1,-3.589234054E-1,1.016949855E1
6.413885570E-1,1.046859920E-1,-1.016710377E1,-3.708875179E-1,1.017440493E1
6.438322550E-1,1.142572835E-1,-1.015753174E1,-3.541377485E-1,1.016434549E1
6.462768380E-1,1.190429255E-1,-1.014317513E1,-3.852444589E-1,1.015118644E1
6.487221510E-1,1.046859920E-1,-1.017667484E1,-3.661018610E-1,1.018379598E1
6.511658490E-1,1.190429255E-1,-1.017428207E1,-3.684946895E-1,1.018164895E1
6.536104320E-1,1.094716340E-1,-1.017188931E1,-3.661018610E-1,1.017906413E1
6.560549630E-1,1.286142170E-1,-1.016471100E1,-3.732803464E-1,1.017237580E1
6.584994950E-1,1.022931710E-1,-1.015992451E1,-3.732803464E-1,1.016729404E1
6.609448590E-1,1.118644550E-1,-1.017906761E1,-3.828516304E-1,1.018687913E1
6.633885050E-1,1.070788130E-1,-1.015753174E1,-3.708875179E-1,1.016486470E1
6.658331410E-1,8.793623000E-2,-1.016949654E1,-3.828516304E-1,1.017708052E1
6.682784530E-1,1.094716340E-1,-1.017667484E1,-3.828516304E-1,1.018446220E1
6.707221510E-1,1.070788130E-1,-1.015753174E1,-3.732803464E-1,1.016495229E1
6.731667340E-1,1.094716340E-1,-1.016471100E1,-3.589234054E-1,1.017163506E1
6.756112660E-1,9.511470050E-2,-1.016949654E1,-3.732803464E-1,1.017678951E1
6.780557970E-1,1.022931710E-1,-1.017428207E1,-3.900300860E-1,1.018226905E1
6.805011090E-1,1.046859920E-1,-1.017906761E1,-3.852444589E-1,1.018689304E1
6.829448070E-1,1.070788130E-1,-1.016471100E1,-3.828516304E-1,1.017248204E1
6.853893910E-1,1.142572835E-1,-1.015992451E1,-3.804588020E-1,1.016768753E1
6.878347030E-1,1.046859920E-1,-1.018385315E1,-3.876372576E-1,1.019176564E1
6.902784010E-1,1.094716340E-1,-1.018385315E1,-3.780659735E-1,1.019145637E1
6.927229840E-1,1.022931710E-1,-1.017188931E1,-3.852444589E-1,1.017969593E1
6.951675160E-1,1.142572835E-1,-1.016471100E1,-3.852444589E-1,1.017265048E1
6.976120990E-1,1.357926875E-1,-1.015992451E1,-3.900300860E-1,1.016831496E1
7.000574110E-1,9.990034252E-2,-1.017906761E1,-3.756731451E-1,1.018648751E1
7.025011090E-1,1.142572835E-1,-1.016710377E1,-3.804588020E-1,1.017486131E1
7.049456930E-1,1.357926875E-1,-1.016949654E1,-3.661018610E-1,1.017699022E1
7.073910050E-1,1.214357466E-1,-1.017428207E1,-3.732803464E-1,1.018185153E1
7.098347030E-1,1.262213886E-1,-1.016949654E1,-3.637090325E-1,1.017678122E1
7.122792860E-1,9.990034252E-2,-1.017188931E1,-3.732803464E-1,1.017922641E1
7.147238180E-1,1.118644550E-1,-1.017188931E1,-3.828516304E-1,1.017970633E1
7.171683490E-1,9.511470050E-2,-1.020538902E1,-3.780659735E-1,1.021283241E1
7.196136610E-1,1.166501045E-1,-1.016231823E1,-3.708875179E-1,1.016975303E1
7.220573590E-1,1.070788130E-1,-1.016231823E1,-3.948157430E-1,1.017054852E1
7.245019430E-1,1.142572835E-1,-1.017906761E1,-3.780659735E-1,1.018672695E1
7.269473070E-1,1.118644550E-1,-1.015992451E1,-3.876372576E-1,1.016793206E1
7.293910050E-1,8.554340899E-2,-1.016471100E1,-3.637090325E-1,1.017157567E1
7.318355880E-1,1.070788130E-1,-1.017188931E1,-3.708875179E-1,1.017921193E1
7.342801200E-1,1.142572835E-1,-1.015753174E1,-3.589234054E-1,1.016451336E1
7.367246510E-1,9.990034252E-2,-1.016471100E1,-3.637090325E-1,1.017170654E1
7.391699630E-1,1.094716340E-1,-1.016949654E1,-3.661018610E-1,1.017667305E1
7.416136610E-1,1.166501045E-1,-1.017428207E1,-3.708875179E-1,1.018170813E1
7.440582450E-1,1.142572835E-1,-1.017428207E1,-3.613162339E-1,1.018133684E1
7.465035570E-1,1.142572835E-1,-1.015992451E1,-3.708875179E-1,1.016733388E1
7.489472550E-1,1.238285750E-1,-1.014317513E1,-3.804588020E-1,1.015106320E1
7.513918380E-1,9.990034252E-2,-1.015513897E1,-3.684946895E-1,1.016231351E1
7.538363700E-1,1.118644550E-1,-1.017188931E1,-3.804588020E-1,1.017961662E1
7.562809010E-1,1.070788130E-1,-1.017428207E1,-3.900300860E-1,1.018231826E1
7.587262660E-1,9.750752151E-2,-1.017188931E1,-3.732803464E-1,1.017920321E1
7.611699630E-1,9.990034252E-2,-1.017906761E1,-3.732803464E-1,1.018639955E1
7.636145470E-1,1.022931710E-1,-1.016949654E1,-3.828516304E-1,1.017721470E1
7.660598590E-1,9.032905847E-2,-1.016710377E1,-3.732803464E-1,1.017435485E1
7.685035570E-1,9.990034252E-2,-1.018146038E1,-3.684946895E-1,1.018861639E1
7.709481410E-1,1.142572835E-1,-1.015992451E1,-3.900300860E-1,1.016805017E1
7.733926720E-1,1.262213886E-1,-1.017428207E1,-3.756731451E-1,1.018199773E1
7.758372030E-1,1.262213886E-1,-1.017428207E1,-3.900300860E-1,1.018253755E1
7.782825160E-1,1.190429255E-1,-1.014796066E1,-3.852444589E-1,1.015596820E1
7.807262130E-1,1.286142170E-1,-1.014317513E1,-3.780659735E-1,1.015103330E1
7.831707970E-1,1.142572835E-1,-1.017428207E1,-3.828516304E-1,1.018212384E1
7.856161610E-1,1.046859920E-1,-1.015513897E1,-4.115654826E-1,1.016401460E1
7.880598070E-1,1.214357466E-1,-1.018385315E1,-3.996013701E-1,1.019241350E1
7.905043910E-1,1.094716340E-1,-1.017428207E1,-3.876372576E-1,1.018225232E1
7.929489740E-1,1.357926875E-1,-1.014796066E1,-3.756731451E-1,1.015581979E1
7.953935050E-1,1.214357466E-1,-1.016471100E1,-3.684946895E-1,1.017211309E1
7.978388180E-1,1.262213886E-1,-1.018146038E1,-3.613162339E-1,1.018865137E1
8.002825160E-1,1.094716340E-1,-1.016949654E1,-3.900300860E-1,1.017756195E1
8.027270990E-1,8.075776696E-2,-1.018624592E1,-3.637090325E-1,1.019305705E1
8.051724110E-1,9.990034252E-2,-1.019342422E1,-3.828516304E-1,1.020110057E1
8.076161090E-1,1.118644550E-1,-1.017906761E1,-3.732803464E-1,1.018652391E1
8.100606930E-1,9.750752151E-2,-1.014317513E1,-3.804588020E-1,1.015077624E1
8.125052240E-1,1.094716340E-1,-1.015513897E1,-3.780659735E-1,1.016276367E1
8.149497550E-1,9.990034252E-2,-1.018146038E1,-3.661018610E-1,1.018853013E1
8.173950680E-1,1.118644550E-1,-1.016710377E1,-3.852444589E-1,1.017501479E1
8.198387660E-1,1.238285750E-1,-1.017667484E1,-3.708875179E-1,1.018418391E1
8.222833490E-1,1.070788130E-1,-1.015753174E1,-3.852444589E-1,1.016539867E1
8.247287130E-1,9.990034252E-2,-1.015753174E1,-3.732803464E-1,1.016487921E1
8.271724110E-1,1.022931710E-1,-1.015992451E1,-3.852444589E-1,1.016774032E1
8.296169950E-1,1.070788130E-1,-1.017428207E1,-4.163511395E-1,1.018336044E1
8.320615260E-1,1.022931710E-1,-1.018624592E1,-3.780659735E-1,1.019377279E1
8.345060570E-1,1.022931710E-1,-1.017188931E1,-3.900300860E-1,1.017987816E1
8.369513700E-1,1.190429255E-1,-1.015992451E1,-3.684946895E-1,1.016730178E1
8.393950680E-1,1.070788130E-1,-1.015992451E1,-3.732803464E-1,1.016734331E1
8.418396510E-1,8.793623000E-2,-1.015992451E1,-3.732803464E-1,1.016715973E1
8.442849630E-1,1.118644550E-1,-1.018146038E1,-3.804588020E-1,1.018918044E1
8.467286610E-1,1.142572835E-1,-1.018146038E1,-3.780659735E-1,1.018911792E1
8.491732450E-1,1.190429255E-1,-1.018863869E1,-3.828516304E-1,1.019652416E1
8.516177760E-1,1.190429255E-1,-1.017188931E1,-3.708875179E-1,1.017934481E1
8.540623070E-1,1.214357466E-1,-1.015992451E1,-3.637090325E-1,1.016715776E1
8.565076720E-1,1.238285750E-1,-1.016231823E1,-3.828516304E-1,1.017028125E1
8.589513180E-1,1.286142170E-1,-1.015274620E1,-3.637090325E-1,1.016007290E1
8.613959010E-1,1.142572835E-1,-1.015753174E1,-3.804588020E-1,1.016529658E1
8.638412660E-1,1.118644550E-1,-1.015992451E1,-3.804588020E-1,1.016766092E1
8.662849630E-1,1.238285750E-1,-1.017428207E1,-3.900300860E-1,1.018250817E1
8.687295470E-1,1.070788130E-1,-1.017667484E1,-3.876372576E-1,1.018461778E1
8.711740780E-1,1.118644550E-1,-1.016710377E1,-3.924229145E-1,1.017528911E1
8.736186090E-1,1.333998591E-1,-1.016231823E1,-3.589234054E-1,1.016952965E1
8.760639220E-1,1.190429255E-1,-1.017188931E1,-3.780659735E-1,1.017960889E1
8.785076200E-1,9.990034252E-2,-1.017188931E1,-3.661018610E-1,1.017896570E1
8.809522030E-1,9.750752151E-2,-1.016949654E1,-3.541377485E-1,1.017612800E1
8.833975160E-1,9.990034252E-2,-1.016231823E1,-3.613162339E-1,1.016923012E1
8.858412130E-1,1.214357466E-1,-1.015513897E1,-3.661018610E-1,1.016246155E1
8.882857970E-1,1.022931710E-1,-1.016949654E1,-3.684946895E-1,1.017668473E1
8.907303280E-1,1.142572835E-1,-1.017667484E1,-3.661018610E-1,1.018389887E1
8.931748590E-1,1.166501045E-1,-1.016710377E1,-3.852444589E-1,1.017506853E1
8.956202240E-1,1.070788130E-1,-1.016231823E1,-3.828516304E-1,1.017009110E1
8.980639220E-1,9.750752151E-2,-1.015753174E1,-3.780659735E-1,1.016503284E1
9.005085050E-1,1.310070455E-1,-1.017667484E1,-3.876372576E-1,1.018489746E1
9.029538180E-1,1.310070455E-1,-1.015753174E1,-3.876372576E-1,1.016576984E1
9.053975160E-1,1.381855011E-1,-1.017188931E1,-3.637090325E-1,1.017932766E1
9.078420990E-1,9.511470050E-2,-1.016949654E1,-3.900300860E-1,1.017741765E1
9.102866300E-1,9.750752151E-2,-1.017188931E1,-3.517449200E-1,1.017843624E1
9.127311610E-1,1.142572835E-1,-1.016471100E1,-3.708875179E-1,1.017211689E1
9.151764740E-1,1.046859920E-1,-1.016949654E1,-3.828516304E-1,1.017723903E1
9.176201720E-1,9.511470050E-2,-1.018624592E1,-3.900300860E-1,1.019415402E1
9.200647550E-1,1.070788130E-1,-1.017906761E1,-3.708875179E-1,1.018638507E1
9.225100680E-1,1.118644550E-1,-1.015753174E1,-3.900300860E-1,1.016563270E1
9.249537660E-1,1.214357466E-1,-1.015274620E1,-3.732803464E-1,1.016033170E1
9.273983490E-1,9.511470050E-2,-1.016710377E1,-3.684946895E-1,1.017422401E1
9.298428800E-1,9.272187948E-2,-1.017428207E1,-3.589234054E-1,1.018103330E1
9.322874110E-1,1.166501045E-1,-1.017906761E1,-3.732803464E-1,1.018657759E1
9.347327760E-1,1.238285750E-1,-1.016231823E1,-3.780659735E-1,1.017010222E1
9.371764740E-1,1.166501045E-1,-1.017667484E1,-3.708875179E-1,1.018409916E1
9.396210570E-1,9.990034252E-2,-1.015513897E1,-3.637090325E-1,1.016214110E1
9.420663700E-1,1.190429255E-1,-1.017188931E1,-3.756731451E-1,1.017952030E1
9.445100680E-1,1.262213886E-1,-1.016710377E1,-3.900300860E-1,1.017536507E1
9.469546510E-1,1.046859920E-1,-1.017428207E1,-3.780659735E-1,1.018184211E1
9.493991820E-1,1.094716340E-1,-1.017188931E1,-3.637090325E-1,1.017897835E1
9.518437130E-1,1.022931710E-1,-1.017188931E1,-3.852444589E-1,1.017969593E1
9.542890260E-1,1.166501045E-1,-1.016949654E1,-3.732803464E-1,1.017701357E1
9.567327240E-1,1.070788130E-1,-1.016949654E1,-3.780659735E-1,1.017708502E1
9.591773070E-1,1.046859920E-1,-1.015513897E1,-3.780659735E-1,1.016271325E1
9.616226720E-1,1.094716340E-1,-1.015753174E1,-3.708875179E-1,1.016489019E1
9.640663180E-1,9.511470050E-2,-1.016710377E1,-3.828516304E-1,1.017475411E1
9.665109010E-1,1.190429255E-1,-1.015753174E1,-3.852444589E-1,1.016553174E1
9.689554320E-1,1.046859920E-1,-1.017188931E1,-3.732803464E-1,1.017927450E1
9.714000160E-1,1.094716340E-1,-1.016949654E1,-3.661018610E-1,1.017667305E1
9.738453280E-1,1.046859920E-1,-1.016949654E1,-3.684946895E-1,1.017670906E1
9.762890260E-1,1.070788130E-1,-1.017188931E1,-3.661018610E-1,1.017903868E1
9.787336090E-1,1.046859920E-1,-1.017667484E1,-3.613162339E-1,1.018362506E1
9.811789220E-1,9.750752151E-2,-1.016949654E1,-3.780659735E-1,1.017698882E1
9.836226200E-1,1.094716340E-1,-1.014078236E1,-3.732803464E-1,1.014824069E1
9.860672030E-1,9.990034252E-2,-1.016231823E1,-3.541377485E-1,1.016897760E1
9.885117340E-1,1.022931710E-1,-1.017188931E1,-3.589234054E-1,1.017873381E1
9.909562660E-1,9.511470050E-2,-1.017188931E1,-3.756731451E-1,1.017926860E1
9.934016300E-1,9.511470050E-2,-1.016471100E1,-3.828516304E-1,1.017236314E1
9.958452760E-1,1.070788130E-1,-1.016231823E1,-3.804588020E-1,1.017000131E1
9.982898590E-1,1.214357466E-1,-1.017428207E1,-3.732803464E-1,1.018185153E1
1.000735224E0,1.094716340E-1,-1.015992451E1,-3.756731451E-1,1.016745693E1
1.003178922E0,1.214357466E-1,-1.016471100E1,-3.708875179E-1,1.017220005E1
1.005623505E0,1.094716340E-1,-1.016949654E1,-3.780659735E-1,1.017711048E1
1.008068036E0,9.032905847E-2,-1.015992451E1,-3.637090325E-1,1.016683380E1
1.010512568E0,1.190429255E-1,-1.017906761E1,-3.756731451E-1,1.018669323E1
1.012957880E0,1.142572835E-1,-1.015753174E1,-3.732803464E-1,1.016503045E1
1.015401578E0,1.070788130E-1,-1.016471100E1,-3.828516304E-1,1.017248204E1
1.017846161E0,9.272187948E-2,-1.016949654E1,-3.780659735E-1,1.017694409E1
1.020291474E0,9.750752151E-2,-1.016471100E1,-3.828516304E-1,1.017238580E1
1.022735172E0,9.990034252E-2,-1.015992451E1,-3.756731451E-1,1.016735838E1
1.025179755E0,1.094716340E-1,-1.015992451E1,-3.756731451E-1,1.016745693E1
1.027624286E0,1.214357466E-1,-1.016471100E1,-3.708875179E-1,1.017220005E1
1.030068818E0,1.142572835E-1,-1.017188931E1,-3.684946895E-1,1.017920307E1
1.032514182E0,1.166501045E-1,-1.016710377E1,-3.637090325E-1,1.017427592E1
1.034957828E0,1.022931710E-1,-1.016710377E1,-3.493520916E-1,1.017361832E1
1.037402411E0,1.190429255E-1,-1.018385315E1,-3.517449200E-1,1.019062121E1
1.039847776E0,1.070788130E-1,-1.017188931E1,-3.637090325E-1,1.017895290E1
1.042291474E0,1.070788130E-1,-1.016231823E1,-3.900300860E-1,1.017036386E1
1.044736057E0,9.511470050E-2,-1.016231823E1,-3.900300860E-1,1.017024494E1
1.047180588E0,9.990034252E-2,-1.018146038E1,-3.924229145E-1,1.018950987E1
1.049625120E0,1.118644550E-1,-1.018863869E1,-3.613162339E-1,1.019565699E1
1.052070432E0,1.190429255E-1,-1.016710377E1,-3.708875179E-1,1.017456278E1
1.054514130E0,1.022931710E-1,-1.016231823E1,-3.780659735E-1,1.016986281E1
1.056958713E0,9.032905847E-2,-1.016949654E1,-3.780659735E-1,1.017692257E1
1.059404026E0,1.022931710E-1,-1.017188931E1,-3.852444589E-1,1.017969593E1
1.061847724E0,1.142572835E-1,-1.017188931E1,-3.732803464E-1,1.017937744E1
1.064292307E0,8.793623000E-2,-1.018624592E1,-3.756731451E-1,1.019355036E1
1.066736838E0,1.286142170E-1,-1.015513897E1,-3.493520916E-1,1.016196024E1
1.069181370E0,1.070788130E-1,-1.015274620E1,-3.804588020E-1,1.016043652E1
1.071626734E0,9.511470050E-2,-1.016471100E1,-3.924229145E-1,1.017272787E1
1.074070380E0,1.070788130E-1,-1.015513897E1,-3.613162339E-1,1.016212885E1
1.076514963E0,1.238285750E-1,-1.017667484E1,-3.756731451E-1,1.018435932E1
1.078960328E0,1.070788130E-1,-1.015753174E1,-4.067798555E-1,1.016623759E1
1.081404026E0,1.238285750E-1,-1.016710377E1,-3.804588020E-1,1.017497329E1
1.083848609E0,1.142572835E-1,-1.016471100E1,-3.732803464E-1,1.017220441E1
1.086293141E0,1.046859920E-1,-1.016710377E1,-3.780659735E-1,1.017466914E1
1.088737672E0,9.272187948E-2,-1.016471100E1,-4.067798555E-1,1.017326972E1
1.091182984E0,1.046859920E-1,-1.015992451E1,-3.732803464E-1,1.016731840E1
1.093626682E0,9.750752151E-2,-1.016710377E1,-3.876372576E-1,1.017495795E1
1.096071266E0,1.142572835E-1,-1.016471100E1,-3.972085714E-1,1.017311059E1
1.098516578E0,1.214357466E-1,-1.018146038E1,-3.684946895E-1,1.018885030E1
1.100960276E0,1.046859920E-1,-1.016231823E1,-3.852444589E-1,1.017015655E1
1.103404859E0,1.142572835E-1,-1.017188931E1,-3.828516304E-1,1.017973291E1
1.105849391E0,1.142572835E-1,-1.015753174E1,-3.589234054E-1,1.016451336E1
1.108293922E0,9.990034252E-2,-1.018863869E1,-3.780659735E-1,1.019614007E1
1.110739286E0,1.118644550E-1,-1.016231823E1,-3.661018610E-1,1.016952585E1
1.113182932E0,1.214357466E-1,-1.017428207E1,-3.589234054E-1,1.018133529E1
1.115627568E0,1.070788130E-1,-1.016949654E1,-3.780659735E-1,1.017708502E1
1.118072880E0,1.166501045E-1,-1.016231823E1,-3.804588020E-1,1.017010658E1
1.120516578E0,8.554340899E-2,-1.015753174E1,-3.780659735E-1,1.016492511E1
1.122961161E0,9.511470050E-2,-1.016231823E1,-3.852444589E-1,1.017006253E1
1.125405693E0,1.022931710E-1,-1.017428207E1,-3.517449200E-1,1.018087443E1
1.127850224E0,9.990034252E-2,-1.017188931E1,-3.900300860E-1,1.017985440E1
1.130295536E0,1.022931710E-1,-1.016710377E1,-3.732803464E-1,1.017446810E1
1.132739234E0,9.990034252E-2,-1.016471100E1,-3.876372576E-1,1.017259025E1
1.135183818E0,9.750752151E-2,-1.015992451E1,-3.780659735E-1,1.016742384E1
1.137629130E0,1.070788130E-1,-1.015753174E1,-3.565305769E-1,1.016435098E1
1.140072828E0,1.046859920E-1,-1.018146038E1,-3.804588020E-1,1.018910416E1
1.142517411E0,9.990034252E-2,-1.018146038E1,-3.828516304E-1,1.018914574E1
1.144961943E0,8.793623000E-2,-1.015992451E1,-3.684946895E-1,1.016698515E1
1.147406474E0,1.022931710E-1,-1.016949654E1,-3.804588020E-1,1.017712497E1
1.149851838E0,1.214357466E-1,-1.017906761E1,-3.637090325E-1,1.018628727E1
1.152295536E0,1.238285750E-1,-1.015992451E1,-3.804588020E-1,1.016779959E1
1.154740120E0,1.022931710E-1,-1.017667484E1,-3.732803464E-1,1.018403225E1
1.157185432E0,9.511470050E-2,-1.016231823E1,-3.684946895E-1,1.016944182E1
1.159629130E0,9.750752151E-2,-1.016231823E1,-3.756731451E-1,1.016972713E1
1.162073713E0,1.166501045E-1,-1.018385315E1,-3.756731451E-1,1.019144752E1
1.164518245E0,9.990034252E-2,-1.016471100E1,-3.996013701E-1,1.017305318E1
1.166962776E0,1.070788130E-1,-1.017667484E1,-3.972085714E-1,1.018498657E1
1.169408088E0,1.238285750E-1,-1.016231823E1,-3.756731451E-1,1.017001355E1
1.171851786E0,1.070788130E-1,-1.015992451E1,-3.828516304E-1,1.016769921E1
1.174296370E0,9.990034252E-2,-1.018146038E1,-3.924229145E-1,1.018950987E1
1.176741682E0,1.118644550E-1,-1.017428207E1,-3.804588020E-1,1.018200758E1
1.179185380E0,1.094716340E-1,-1.017428207E1,-3.900300860E-1,1.018234370E1
1.181629963E0,9.750752151E-2,-1.016231823E1,-3.828516304E-1,1.016999483E1
1.184074495E0,1.094716340E-1,-1.015992451E1,-3.804588020E-1,1.016763487E1
1.186519026E0,9.511470050E-2,-1.018385315E1,-3.780659735E-1,1.019131226E1
1.188964391E0,1.238285750E-1,-1.018146038E1,-3.684946895E-1,1.018887910E1
1.191408088E0,9.272187948E-2,-1.018146038E1,-3.828516304E-1,1.018907789E1
1.193852672E0,1.166501045E-1,-1.015513897E1,-3.756731451E-1,1.016275480E1
1.196297984E0,1.094716340E-1,-1.016949654E1,-3.924229145E-1,1.017765393E1
1.198741682E0,1.238285750E-1,-1.019103146E1,-3.804588020E-1,1.019888251E1
1.201186266E0,9.032905847E-2,-1.015753174E1,-3.852444589E-1,1.016523603E1
1.203630797E0,1.142572835E-1,-1.015992451E1,-3.756731451E-1,1.016750958E1
1.206075328E0,1.118644550E-1,-1.016949654E1,-3.684946895E-1,1.017678544E1
1.208520641E0,1.022931710E-1,-1.016710377E1,-3.708875179E-1,1.017438059E1
1.210964338E0,1.046859920E-1,-1.017188931E1,-3.828516304E-1,1.017962998E1
1.213408922E0,1.262213886E-1,-1.017667484E1,-3.613162339E-1,1.018386921E1
1.215854234E0,9.272187948E-2,-1.016471100E1,-3.876372576E-1,1.017252229E1
1.218297932E0,9.511470050E-2,-1.017667484E1,-3.708875179E-1,1.018387526E1
1.220742516E0,1.070788130E-1,-1.018385315E1,-3.900300860E-1,1.019188178E1
1.223187047E0,1.022931710E-1,-1.015274620E1,-3.613162339E-1,1.015968842E1
1.225631630E0,1.118644550E-1,-1.017667484E1,-3.613162339E-1,1.018370139E1
1.228076943E0,1.142572835E-1,-1.017428207E1,-3.804588020E-1,1.018203415E1
1.230520641E0,1.022931710E-1,-1.015992451E1,-3.804588020E-1,1.016756012E1
1.232965224E0,1.118644550E-1,-1.015753174E1,-3.637090325E-1,1.016465685E1
1.235410536E0,1.046859920E-1,-1.016949654E1,-3.708875179E-1,1.017679598E1
1.237854234E0,1.022931710E-1,-1.017188931E1,-3.756731451E-1,1.017933820E1
1.240298818E0,1.118644550E-1,-1.018385315E1,-3.804588020E-1,1.019157140E1
1.242743349E0,1.094716340E-1,-1.018624592E1,-3.828516304E-1,1.019402596E1
1.245187880E0,1.190429255E-1,-1.017428207E1,-3.756731451E-1,1.018191128E1
1.247633193E0,1.118644550E-1,-1.017188931E1,-3.756731451E-1,1.017943888E1
1.250076891E0,9.990034252E-2,-1.016231823E1,-3.828516304E-1,1.017001806E1
1.252521474E0,1.190429255E-1,-1.016471100E1,-3.732803464E-1,1.017225929E1
1.254966786E0,1.190429255E-1,-1.015513897E1,-3.924229145E-1,1.016341549E1
1.257410484E0,1.238285750E-1,-1.017906761E1,-3.972085714E-1,1.018756721E1
1.259855068E0,1.094716340E-1,-1.015274620E1,-3.637090325E-1,1.015984861E1
1.262299599E0,9.990034252E-2,-1.016949654E1,-3.708875179E-1,1.017674788E1
1.264744130E0,9.511470050E-2,-1.015992451E1,-3.756731451E-1,1.016731248E1
1.267189495E0,1.022931710E-1,-1.018624592E1,-3.589234054E-1,1.019308078E1
1.269633193E0,9.032905847E-2,-1.016949654E1,-3.828516304E-1,1.017710148E1
1.272077776E0,1.022931710E-1,-1.015753174E1,-3.708875179E-1,1.016481542E1
1.274523088E0,1.070788130E-1,-1.017188931E1,-3.708875179E-1,1.017921193E1
1.276966786E0,9.032905847E-2,-1.015753174E1,-3.684946895E-1,1.016461503E1
1.279411370E0,9.990034252E-2,-1.017428207E1,-3.756731451E-1,1.018170546E1
1.281855901E0,9.032905847E-2,-1.016949654E1,-3.708875179E-1,1.017665842E1
1.284300432E0,1.070788130E-1,-1.015753174E1,-3.948157430E-1,1.016576590E1
1.286745745E0,1.070788130E-1,-1.016949654E1,-3.828516304E-1,1.017726393E1
1.289189443E0,1.070788130E-1,-1.018863869E1,-3.613162339E-1,1.019560560E1
1.291634026E0,1.046859920E-1,-1.017906761E1,-3.756731451E-1,1.018653557E1
1.294079338E0,9.511470050E-2,-1.017667484E1,-3.756731451E-1,1.018405067E1
1.296523036E0,1.142572835E-1,-1.016471100E1,-3.708875179E-1,1.017211689E1
1.298967620E0,1.094716340E-1,-1.016710377E1,-3.804588020E-1,1.017480869E1
1.301412151E0,1.118644550E-1,-1.017188931E1,-3.637090325E-1,1.017900437E1
1.303856734E0,1.166501045E-1,-1.017428207E1,-3.541377485E-1,1.018111175E1
1.306302047E0,1.070788130E-1,-1.016949654E1,-3.876372576E-1,1.017744508E1
1.308745745E0,1.166501045E-1,-1.018624592E1,-3.708875179E-1,1.019366326E1
1.311190328E0,1.238285750E-1,-1.015753174E1,-3.900300860E-1,1.016577139E1
1.313635641E0,1.310070455E-1,-1.020060253E1,-3.948157430E-1,1.020908097E1
1.316079338E0,1.142572835E-1,-1.017188931E1,-3.732803464E-1,1.017937744E1
1.318523922E0,1.142572835E-1,-1.017428207E1,-3.589234054E-1,1.018125220E1
1.320968453E0,8.075776696E-2,-1.018146038E1,-3.613162339E-1,1.018818957E1
1.323412984E0,8.554340899E-2,-1.016949654E1,-3.924229145E-1,1.017742469E1
1.325858297E0,1.190429255E-1,-1.016710377E1,-3.684946895E-1,1.017447584E1
1.328301995E0,1.357926875E-1,-1.016471100E1,-3.756731451E-1,1.017255718E1
1.330746578E0,1.046859920E-1,-1.016949654E1,-3.804588020E-1,1.017714930E1
1.333191891E0,9.272187948E-2,-1.015992451E1,-3.684946895E-1,1.016702767E1
1.335635588E0,9.511470050E-2,-1.017906761E1,-3.756731451E-1,1.018644170E1
1.338080172E0,1.070788130E-1,-1.017906761E1,-3.661018610E-1,1.018621195E1
1.340524703E0,8.075776696E-2,-1.015274620E1,-3.708875179E-1,1.015983931E1
1.342969234E0,9.032905847E-2,-1.016710377E1,-3.924229145E-1,1.017507514E1
1.345414599E0,1.118644550E-1,-1.017188931E1,-3.780659735E-1,1.017952747E1
1.347858297E0,1.166501045E-1,-1.016231823E1,-3.589234054E-1,1.016932373E1
1.350302880E0,1.094716340E-1,-1.016710377E1,-3.732803464E-1,1.017454280E1
1.352748193E0,9.750752151E-2,-1.017667484E1,-3.732803464E-1,1.018398531E1
1.355191891E0,1.022931710E-1,-1.016949654E1,-3.708875179E-1,1.017677165E1
1.357636474E0,9.272187948E-2,-1.015992451E1,-3.637090325E-1,1.016685534E1
1.360081005E0,1.166501045E-1,-1.016949654E1,-3.493520916E-1,1.017616401E1
1.362525536E0,1.118644550E-1,-1.016231823E1,-3.828516304E-1,1.017014262E1
1.364970849E0,1.214357466E-1,-1.015992451E1,-3.756731451E-1,1.016759278E1
1.367414547E0,9.272187948E-2,-1.016471100E1,-3.708875179E-1,1.017189779E1
1.369859130E0,1.094716340E-1,-1.016949654E1,-3.900300860E-1,1.017756195E1
1.372304443E0,1.022931710E-1,-1.017906761E1,-3.756731451E-1,1.018651126E1
1.374748141E0,1.094716340E-1,-1.017428207E1,-3.852444589E-1,1.018216151E1
1.377192724E0,1.118644550E-1,-1.017428207E1,-3.780659735E-1,1.018191845E1
1.379637255E0,9.511470050E-2,-1.017428207E1,-3.708875179E-1,1.018148418E1
1.382081786E0,1.190429255E-1,-1.016231823E1,-3.972085714E-1,1.017077468E1
1.384527151E0,1.262213886E-1,-1.016471100E1,-3.708875179E-1,1.017225831E1
1.386970849E0,1.046859920E-1,-1.015992451E1,-3.756731451E-1,1.016740653E1
1.389415432E0,1.070788130E-1,-1.016949654E1,-3.756731451E-1,1.017699641E1
1.391860745E0,1.094716340E-1,-1.015513897E1,-4.067798555E-1,1.016387236E1
1.394304443E0,1.046859920E-1,-1.016231823E1,-3.756731451E-1,1.016979849E1
1.396749026E0,1.238285750E-1,-1.015274620E1,-3.852444589E-1,1.016080716E1
1.399193557E0,9.990034252E-2,-1.016949654E1,-3.852444589E-1,1.017728123E1
1.401638088E0,1.118644550E-1,-1.016231823E1,-3.948157430E-1,1.017060003E1
1.404083401E0,1.118644550E-1,-1.016710377E1,-3.756731451E-1,1.017465690E1
1.406527099E0,1.142572835E-1,-1.017667484E1,-3.684946895E-1,1.018398517E1
1.408971682E0,1.190429255E-1,-1.016471100E1,-3.661018610E-1,1.017199840E1
1.411416995E0,1.094716340E-1,-1.017667484E1,-3.684946895E-1,1.018393260E1
1.413860693E0,9.750752151E-2,-1.016231823E1,-3.589234054E-1,1.016912216E1
1.416305276E0,1.022931710E-1,-1.016471100E1,-3.684946895E-1,1.017190257E1
1.418749807E0,1.070788130E-1,-1.017188931E1,-3.589234054E-1,1.017878303E1
1.421194338E0,1.142572835E-1,-1.017906761E1,-3.804588020E-1,1.018681604E1
1.423639703E0,1.214357466E-1,-1.017906761E1,-3.924229145E-1,1.018735294E1
1.426083401E0,1.118644550E-1,-1.016471100E1,-3.684946895E-1,1.017200333E1
1.428527984E0,1.070788130E-1,-1.016710377E1,-3.852444589E-1,1.017496330E1
1.430973297E0,1.262213886E-1,-1.016710377E1,-3.756731451E-1,1.017482487E1
1.433416995E0,1.022931710E-1,-1.017188931E1,-3.780659735E-1,1.017942679E1
1.435861578E0,1.070788130E-1,-1.017428207E1,-3.780659735E-1,1.018186699E1
1.438306109E0,9.990034252E-2,-1.017428207E1,-3.613162339E-1,1.018118585E1
1.440750641E0,1.022931710E-1,-1.018146038E1,-3.661018610E-1,1.018855387E1
1.443195953E0,1.118644550E-1,-1.016710377E1,-3.852444589E-1,1.017501479E1
1.445639651E0,9.990034252E-2,-1.016231823E1,-3.756731451E-1,1.016975035E1
1.448084234E0,1.142572835E-1,-1.019581699E1,-3.804588020E-1,1.020355270E1
1.450529547E0,1.094716340E-1,-1.018146038E1,-3.780659735E-1,1.018906538E1
1.452973245E0,1.142572835E-1,-1.016949654E1,-3.804588020E-1,1.017725225E1
1.455417828E0,1.070788130E-1,-1.016231823E1,-3.637090325E-1,1.016938847E1
1.457862359E0,1.046859920E-1,-1.016471100E1,-3.637090325E-1,1.017175467E1
1.460306891E0,1.094716340E-1,-1.018863869E1,-3.804588020E-1,1.019632734E1
1.462752255E0,9.990034252E-2,-1.018385315E1,-3.732803464E-1,1.019118164E1
1.465195901E0,9.990034252E-2,-1.017906761E1,-3.661018610E-1,1.018613902E1
1.467640536E0,9.990034252E-2,-1.016231823E1,-3.637090325E-1,1.016931542E1
1.470085849E0,9.990034252E-2,-1.014796066E1,-3.661018610E-1,1.015505373E1
1.472529547E0,8.793623000E-2,-1.014317513E1,-3.589234054E-1,1.014990445E1
1.474974130E0,1.094716340E-1,-1.014317513E1,-3.637090325E-1,1.015028423E1
1.477418661E0,9.511470050E-2,-1.016710377E1,-3.637090325E-1,1.017405180E1
1.479863193E0,9.990034252E-2,-1.018146038E1,-3.637090325E-1,1.018844443E1
1.482308505E0,9.990034252E-2,-1.020060253E1,-3.684946895E-1,1.020774512E1
1.484752203E0,1.142572835E-1,-1.017428207E1,-3.613162339E-1,1.018133684E1
1.487196786E0,9.511470050E-2,-1.016949654E1,-3.780659735E-1,1.017696617E1
1.489642099E0,1.118644550E-1,-1.017428207E1,-3.852444589E-1,1.018218752E1
1.492085797E0,1.238285750E-1,-1.016471100E1,-3.589234054E-1,1.017179970E1
1.494530380E0,1.238285750E-1,-1.018863869E1,-3.684946895E-1,1.019605218E1
1.496974911E0,9.032905847E-2,-1.017667484E1,-3.732803464E-1,1.018391911E1
1.499419443E0,9.511470050E-2,-1.017188931E1,-3.780659735E-1,1.017935719E1
1.501864755E0,1.070788130E-1,-1.015753174E1,-3.780659735E-1,1.016512916E1
1.504308453E0,1.214357466E-1,-1.015992451E1,-3.756731451E-1,1.016759278E1
1.506753036E0,1.190429255E-1,-1.015753174E1,-3.708875179E-1,1.016499778E1
1.509198401E0,1.046859920E-1,-1.015992451E1,-3.828516304E-1,1.016767429E1
1.511642047E0,1.022931710E-1,-1.017667484E1,-3.684946895E-1,1.018385797E1
1.514086682E0,1.118644550E-1,-1.017667484E1,-3.708875179E-1,1.018404547E1
1.516531213E0,1.238285750E-1,-1.016710377E1,-3.972085714E-1,1.017561336E1
1.518975745E0,1.142572835E-1,-1.016231823E1,-3.684946895E-1,1.016963888E1
1.521421057E0,1.214357466E-1,-1.019103146E1,-3.541377485E-1,1.019790578E1
1.523864755E0,1.238285750E-1,-1.016231823E1,-3.708875179E-1,1.016983790E1
1.526309338E0,1.022931710E-1,-1.018146038E1,-3.613162339E-1,1.018838303E1
1.528754651E0,1.046859920E-1,-1.018624592E1,-3.684946895E-1,1.019344659E1
1.531198349E0,1.094716340E-1,-1.017667484E1,-3.948157430E-1,1.018491897E1
1.533642932E0,1.094716340E-1,-1.018624592E1,-3.684946895E-1,1.019349686E1
1.536087463E0,1.166501045E-1,-1.016471100E1,-3.924229145E-1,1.017295201E1
1.538531995E0,9.272187948E-2,-1.015513897E1,-3.996013701E-1,1.016342098E1
1.540977307E0,9.990034252E-2,-1.014796066E1,-3.708875179E-1,1.015522739E1
1.543421005E0,1.190429255E-1,-1.017428207E1,-3.756731451E-1,1.018191128E1
1.545865588E0,1.046859920E-1,-1.017188931E1,-3.852444589E-1,1.017972026E1
1.548310953E0,9.990034252E-2,-1.017428207E1,-3.852444589E-1,1.018206311E1
1.550754599E0,1.142572835E-1,-1.018385315E1,-3.828516304E-1,1.019168755E1
1.553199182E0,1.190429255E-1,-1.016710377E1,-3.661018610E-1,1.017438946E1
1.555643713E0,1.070788130E-1,-1.015035343E1,-3.732803464E-1,1.015777923E1
1.558088297E0,1.238285750E-1,-1.017906761E1,-3.756731451E-1,1.018675028E1
1.560533609E0,1.022931710E-1,-1.015753174E1,-3.517449200E-1,1.016413496E1
1.562977307E0,1.070788130E-1,-1.016471100E1,-3.684946895E-1,1.017195182E1
1.565421891E0,8.793623000E-2,-1.019103146E1,-3.876372576E-1,1.019878020E1
1.567867203E0,1.190429255E-1,-1.014796066E1,-3.756731451E-1,1.015560964E1
1.570310901E0,1.238285750E-1,-1.014796066E1,-3.756731451E-1,1.015566686E1
1.572755484E0,1.094716340E-1,-1.016471100E1,-3.732803464E-1,1.017215179E1
1.575200016E0,1.214357466E-1,-1.017428207E1,-3.517449200E-1,1.018108476E1
1.577644547E0,1.094716340E-1,-1.018146038E1,-3.780659735E-1,1.018906538E1
1.580089859E0,1.046859920E-1,-1.017667484E1,-3.756731451E-1,1.018414456E1
1.582533557E0,1.070788130E-1,-1.015513897E1,-3.708875179E-1,1.016247366E1
1.584978141E0,1.310070455E-1,-1.016471100E1,-3.708875179E-1,1.017231882E1
1.587423505E0,1.286142170E-1,-1.016710377E1,-3.828516304E-1,1.017512241E1
1.589867151E0,1.094716340E-1,-1.015753174E1,-3.541377485E-1,1.016429282E1
1.592311734E0,1.046859920E-1,-1.018624592E1,-3.756731451E-1,1.019370862E1
1.594756266E0,1.094716340E-1,-1.019581699E1,-3.972085714E-1,1.020413852E1
1.597200797E0,1.094716340E-1,-1.018863869E1,-3.708875179E-1,1.019597469E1
1.599646161E0,1.142572835E-1,-1.017667484E1,-3.828516304E-1,1.018451476E1
1.602089859E0,9.990034252E-2,-1.015274620E1,-3.684946895E-1,1.015992243E1
1.604534443E0,1.070788130E-1,-1.016949654E1,-3.708875179E-1,1.017682088E1
1.606979755E0,9.511470050E-2,-1.015992451E1,-3.948157430E-1,1.016803778E1
1.609423453E0,1.046859920E-1,-1.015753174E1,-3.780659735E-1,1.016510423E1
1.611868036E0,8.315058798E-2,-1.017428207E1,-3.948157430E-1,1.018227918E1
1.614312568E0,1.070788130E-1,-1.017667484E1,-3.732803464E-1,1.018408145E1
1.616757099E0,1.166501045E-1,-1.018624592E1,-3.876372576E-1,1.019428643E1
1.619202411E0,1.070788130E-1,-1.014796066E1,-3.661018610E-1,1.015512689E1
1.621646109E0,1.262213886E-1,-1.014317513E1,-3.804588020E-1,1.015109267E1
1.624090693E0,1.070788130E-1,-1.016231823E1,-3.708875179E-1,1.016964774E1
1.626536005E0,1.214357466E-1,-1.018385315E1,-3.732803464E-1,1.019141550E1
1.628979703E0,9.990034252E-2,-1.016710377E1,-3.996013701E-1,1.017544399E1
1.631424286E0,1.118644550E-1,-1.018624592E1,-3.852444589E-1,1.019414209E1
1.633868818E0,1.190429255E-1,-1.017428207E1,-3.684946895E-1,1.018164895E1
1.636313349E0,1.333998591E-1,-1.017667484E1,-3.804588020E-1,1.018465784E1
1.638758713E0,1.190429255E-1,-1.015753174E1,-3.756731451E-1,1.016517351E1
1.641202411E0,1.142572835E-1,-1.015513897E1,-3.732803464E-1,1.016263944E1
1.643646995E0,9.511470050E-2,-1.018624592E1,-3.876372576E-1,1.019406275E1
1.646092307E0,1.046859920E-1,-1.017428207E1,-3.684946895E-1,1.018149121E1
1.648536005E0,1.094716340E-1,-1.015274620E1,-3.708875179E-1,1.016010812E1
1.650980588E0,1.094716340E-1,-1.016949654E1,-3.828516304E-1,1.017728938E1
1.653425120E0,1.166501045E-1,-1.016231823E1,-3.756731451E-1,1.016992868E1
1.655869651E0,1.357926875E-1,-1.015992451E1,-3.661018610E-1,1.016742525E1
1.658314963E0,9.272187948E-2,-1.016949654E1,-3.780659735E-1,1.017694409E1
1.660758661E0,1.094716340E-1,-1.018385315E1,-3.684946895E-1,1.019110580E1
1.663203245E0,1.046859920E-1,-1.017667484E1,-3.756731451E-1,1.018414456E1
1.665648557E0,1.022931710E-1,-1.017428207E1,-3.972085714E-1,1.018254655E1
1.668092255E0,9.750752151E-2,-1.016949654E1,-3.661018610E-1,1.017655138E1
1.670536838E0,1.166501045E-1,-1.018624592E1,-3.589234054E-1,1.019323497E1
1.672981370E0,9.750752151E-2,-1.018146038E1,-3.852444589E-1,1.018921275E1
1.675425901E0,1.190429255E-1,-1.017188931E1,-3.828516304E-1,1.017978775E1
1.677871266E0,1.022931710E-1,-1.017667484E1,-3.828516304E-1,1.018438757E1
1.680314911E0,1.070788130E-1,-1.015753174E1,-3.828516304E-1,1.016530827E1
1.682759495E0,1.070788130E-1,-1.015753174E1,-3.684946895E-1,1.016477768E1
1.685204859E0,9.511470050E-2,-1.016710377E1,-3.780659735E-1,1.017457516E1
1.687648505E0,1.094716340E-1,-1.018146038E1,-3.589234054E-1,1.018837306E1
1.690093141E0,1.070788130E-1,-1.019820976E1,-3.780659735E-1,1.020577690E1
1.692537672E0,8.554340899E-2,-1.019103146E1,-3.541377485E-1,1.019754153E1
1.694982203E0,1.070788130E-1,-1.014317513E1,-3.876372576E-1,1.015114428E1
1.697427516E0,1.214357466E-1,-1.015753174E1,-3.924229145E-1,1.016583461E1
1.699871213E0,9.990034252E-2,-1.019103146E1,-3.804588020E-1,1.019862006E1
1.702315797E0,1.094716340E-1,-1.016471100E1,-3.780659735E-1,1.017232852E1
1.704761109E0,1.094716340E-1,-1.016471100E1,-3.541377485E-1,1.017146731E1
1.707204807E0,1.118644550E-1,-1.019103146E1,-3.661018610E-1,1.019821878E1
1.709649391E0,1.094716340E-1,-1.015753174E1,-3.948157430E-1,1.016579139E1
1.712093922E0,1.166501045E-1,-1.013599682E1,-3.637090325E-1,1.014319097E1
1.714538453E0,1.238285750E-1,-1.013121128E1,-3.732803464E-1,1.013884183E1
1.716983766E0,1.094716340E-1,-1.014317513E1,-3.876372576E-1,1.015116980E1
1.719427463E0,1.214357466E-1,-1.016949654E1,-3.900300860E-1,1.017769767E1
1.721872047E0,1.142572835E-1,-1.019581699E1,-3.900300860E-1,1.020391407E1
1.724317411E0,1.094716340E-1,-1.017188931E1,-3.756731451E-1,1.017941287E1
1.726761057E0,9.511470050E-2,-1.018146038E1,-3.924229145E-1,1.018946407E1
1.729205641E0,1.118644550E-1,-1.015035343E1,-3.780659735E-1,1.015800779E1
1.731650224E0,1.022931710E-1,-1.015513897E1,-3.708875179E-1,1.016242436E1
1.734094755E0,1.238285750E-1,-1.018385315E1,-3.780659735E-1,1.019162069E1
1.736540068E0,1.190429255E-1,-1.017906761E1,-3.828516304E-1,1.018696049E1
1.738983766E0,1.166501045E-1,-1.017906761E1,-4.043870270E-1,1.018776490E1
1.741428349E0,1.070788130E-1,-1.016949654E1,-3.828516304E-1,1.017726393E1
1.743873661E0,1.046859920E-1,-1.016231823E1,-3.876372576E-1,1.017024747E1
1.746317359E0,1.118644550E-1,-1.016710377E1,-3.780659735E-1,1.017474553E1
1.748761943E0,1.190429255E-1,-1.015035343E1,-3.828516304E-1,1.015826862E1
1.751206474E0,1.094716340E-1,-1.017906761E1,-3.661018610E-1,1.018623738E1
1.753651005E0,1.046859920E-1,-1.017188931E1,-3.637090325E-1,1.017892801E1
1.756096318E0,1.190429255E-1,-1.016710377E1,-3.924229145E-1,1.017537056E1
1.758540016E0,1.070788130E-1,-1.019342422E1,-3.732803464E-1,1.020081867E1
1.760984599E0,1.238285750E-1,-1.016231823E1,-3.637090325E-1,1.016957863E1
1.763429911E0,1.094716340E-1,-1.016710377E1,-3.589234054E-1,1.017402620E1
1.765873609E0,1.142572835E-1,-1.016710377E1,-3.684946895E-1,1.017442097E1
1.768318193E0,9.990034252E-2,-1.017428207E1,-3.732803464E-1,1.018161746E1
1.770762724E0,1.046859920E-1,-1.017667484E1,-3.756731451E-1,1.018414456E1
1.773207255E0,1.118644550E-1,-1.018863869E1,-3.756731451E-1,1.019617586E1
1.775652620E0,1.094716340E-1,-1.018146038E1,-3.876372576E-1,1.018942502E1
1.778096318E0,1.118644550E-1,-1.016949654E1,-3.661018610E-1,1.017669907E1
1.780540901E0,1.022931710E-1,-1.015753174E1,-3.756731451E-1,1.016499116E1
1.782986213E0,1.070788130E-1,-1.017906761E1,-3.780659735E-1,1.018664897E1
1.785429911E0,1.118644550E-1,-1.015992451E1,-3.708875179E-1,1.016730727E1
1.787874495E0,1.142572835E-1,-1.015274620E1,-3.708875179E-1,1.016016081E1
1.790319026E0,1.118644550E-1,-1.017906761E1,-3.708875179E-1,1.018643650E1
1.792763557E0,9.990034252E-2,-1.016949654E1,-3.684946895E-1,1.017666096E1
1.795208870E0,1.190429255E-1,-1.016471100E1,-3.948157430E-1,1.017307232E1
1.797652568E0,9.511470050E-2,-1.016949654E1,-3.828516304E-1,1.017714508E1
1.800097151E0,1.022931710E-1,-1.019342422E1,-3.684946895E-1,1.020059555E1
1.802542463E0,9.990034252E-2,-1.017667484E1,-3.924229145E-1,1.018472811E1
1.804986161E0,9.272187948E-2,-1.018385315E1,-3.732803464E-1,1.019111380E1
1.807430745E0,1.142572835E-1,-1.017667484E1,-3.828516304E-1,1.018451476E1
1.809875276E0,1.166501045E-1,-1.015274620E1,-3.852444589E-1,1.016072222E1
1.812319807E0,1.238285750E-1,-1.015992451E1,-3.780659735E-1,1.016771033E1
1.814765172E0,1.070788130E-1,-1.018385315E1,-3.828516304E-1,1.019160960E1
1.817208818E0,1.142572835E-1,-1.016471100E1,-3.756731451E-1,1.017229250E1
1.819653401E0,9.272187948E-2,-1.017188931E1,-3.924229145E-1,1.017987844E1
1.822098766E0,9.750752151E-2,-1.017906761E1,-3.876372576E-1,1.018691257E1
1.824542411E0,1.070788130E-1,-1.015992451E1,-3.708875179E-1,1.016725575E1
1.826986995E0,1.070788130E-1,-1.018624592E1,-3.924229145E-1,1.019436450E1
1.829431578E0,1.214357466E-1,-1.015513897E1,-3.756731451E-1,1.016281085E1
1.831876109E0,1.046859920E-1,-1.016710377E1,-3.828516304E-1,1.017484808E1
1.834321422E0,1.046859920E-1,-1.015274620E1,-3.852444589E-1,1.016059191E1
1.836765120E0,1.070788130E-1,-1.017428207E1,-3.708875179E-1,1.018160298E1
1.839209703E0,1.046859920E-1,-1.016471100E1,-3.876372576E-1,1.017263837E1
1.841655016E0,1.238285750E-1,-1.015992451E1,-3.852444589E-1,1.016797978E1
1.844098713E0,1.022931710E-1,-1.017428207E1,-3.565305769E-1,1.018104089E1
1.846543297E0,1.022931710E-1,-1.017428207E1,-3.804588020E-1,1.018190692E1
1.848987828E0,9.272187948E-2,-1.015992451E1,-3.852444589E-1,1.016764853E1
1.851432359E0,1.214357466E-1,-1.014796066E1,-3.972085714E-1,1.015645740E1
1.853877672E0,1.262213886E-1,-1.016471100E1,-3.756731451E-1,1.017243392E1
1.856321370E0,1.166501045E-1,-1.016231823E1,-3.708875179E-1,1.016975303E1
1.858765953E0,1.022931710E-1,-1.017428207E1,-3.541377485E-1,1.018095738E1
1.861211266E0,1.333998591E-1,-1.015513897E1,-3.780659735E-1,1.016304959E1
1.863654963E0,1.118644550E-1,-1.016949654E1,-3.732803464E-1,1.017695984E1
1.866099547E0,1.238285750E-1,-1.018624592E1,-4.019941986E-1,1.019492711E1
1.868544078E0,9.750752151E-2,-1.018146038E1,-3.708875179E-1,1.018868003E1
1.870988661E0,1.022931710E-1,-1.018385315E1,-3.852444589E-1,1.019165061E1
1.873433974E0,9.750752151E-2,-1.017188931E1,-3.589234054E-1,1.017868684E1
1.875877672E0,1.046859920E-1,-1.016949654E1,-3.661018610E-1,1.017662270E1
1.878322255E0,9.032905847E-2,-1.017667484E1,-3.996013701E-1,1.018491784E1
1.880767568E0,1.022931710E-1,-1.015992451E1,-3.804588020E-1,1.016756012E1
1.883211266E0,9.990034252E-2,-1.016710377E1,-3.876372576E-1,1.017498117E1
1.885655849E0,1.022931710E-1,-1.018385315E1,-4.043870270E-1,1.019239215E1
1.888100380E0,9.511470050E-2,-1.016471100E1,-3.876372576E-1,1.017254438E1
1.890544911E0,1.190429255E-1,-1.014556789E1,-3.876372576E-1,1.015366839E1
1.892990224E0,1.190429255E-1,-1.016231823E1,-3.828516304E-1,1.017022411E1
1.895433922E0,1.118644550E-1,-1.017428207E1,-3.828516304E-1,1.018209727E1
1.897878505E0,9.750752151E-2,-1.019103146E1,-3.732803464E-1,1.019833163E1
1.900323818E0,9.272187948E-2,-1.018146038E1,-3.780659735E-1,1.018889919E1
1.902767516E0,1.142572835E-1,-1.017906761E1,-3.732803464E-1,1.018655047E1
1.905212099E0,1.214357466E-1,-1.017667484E1,-3.972085714E-1,1.018514763E1
1.907656630E0,1.070788130E-1,-1.015992451E1,-3.948157430E-1,1.016815673E1
1.910101161E0,1.166501045E-1,-1.016471100E1,-3.900300860E-1,1.017285999E1
1.912546526E0,1.046859920E-1,-1.016231823E1,-3.661018610E-1,1.016944942E1
1.914990172E0,9.990034252E-2,-1.018146038E1,-3.828516304E-1,1.018914574E1
1.917434807E0,1.214357466E-1,-1.016710377E1,-3.900300860E-1,1.017530683E1
1.919880120E0,1.022931710E-1,-1.017188931E1,-3.972085714E-1,1.018015572E1
1.922323818E0,9.272187948E-2,-1.017906761E1,-3.852444589E-1,1.018677712E1
1.924768401E0,1.214357466E-1,-1.014556789E1,-3.948157430E-1,1.015397331E1
1.927212932E0,1.046859920E-1,-1.015513897E1,-3.852444589E-1,1.016298283E1
1.929657463E0,1.118644550E-1,-1.015274620E1,-3.852444589E-1,1.016066840E1
1.932102776E0,1.118644550E-1,-1.016231823E1,-3.852444589E-1,1.017023297E1
1.934546474E0,9.990034252E-2,-1.016710377E1,-3.684946895E-1,1.017426987E1
1.936991057E0,1.118644550E-1,-1.018863869E1,-3.780659735E-1,1.019626431E1
1.939436370E0,1.022931710E-1,-1.018146038E1,-3.900300860E-1,1.018944173E1
1.941880068E0,9.511470050E-2,-1.015992451E1,-3.876372576E-1,1.016776157E1
1.944324651E0,1.070788130E-1,-1.015274620E1,-3.900300860E-1,1.016079942E1
1.946769182E0,1.190429255E-1,-1.019581699E1,-3.780659735E-1,1.020351847E1
1.949213713E0,1.262213886E-1,-1.017667484E1,-3.756731451E-1,1.018438869E1
1.951659026E0,1.094716340E-1,-1.015035343E1,-4.019941986E-1,1.015890044E1
1.954102724E0,1.070788130E-1,-1.013838959E1,-3.996013701E-1,1.014682662E1
1.956547307E0,1.118644550E-1,-1.017188931E1,-3.828516304E-1,1.017970633E1
1.958992672E0,1.070788130E-1,-1.017906761E1,-3.804588020E-1,1.018673806E1
1.961436318E0,8.793623000E-2,-1.016949654E1,-3.613162339E-1,1.017629314E1
1.963880901E0,1.070788130E-1,-1.018146038E1,-3.876372576E-1,1.018939959E1
1.966325432E0,9.750752151E-2,-1.019581699E1,-3.780659735E-1,1.020328995E1
1.968770016E0,1.190429255E-1,-1.017428207E1,-3.684946895E-1,1.018164895E1
1.971215328E0,1.046859920E-1,-1.015513897E1,-3.732803464E-1,1.016253634E1
1.973659026E0,9.511470050E-2,-1.016710377E1,-3.804588020E-1,1.017466435E1
1.976103609E0,1.094716340E-1,-1.015753174E1,-3.780659735E-1,1.016515464E1
1.978548922E0,1.214357466E-1,-1.018624592E1,-3.900300860E-1,1.019443358E1
1.980992620E0,1.094716340E-1,-1.016710377E1,-3.996013701E-1,1.017554246E1
1.983437203E0,1.022931710E-1,-1.014317513E1,-3.948157430E-1,1.015137158E1
1.985881734E0,1.214357466E-1,-1.017667484E1,-3.804588020E-1,1.018450816E1
1.988326266E0,1.022931710E-1,-1.015753174E1,-3.876372576E-1,1.016544035E1
1.990771578E0,1.094716340E-1,-1.016231823E1,-3.924229145E-1,1.017048138E1
1.993215276E0,1.070788130E-1,-1.016471100E1,-3.828516304E-1,1.017248204E1
1.995659859E0,1.022931710E-1,-1.015992451E1,-3.948157430E-1,1.016810746E1
1.998105172E0,9.032905847E-2,-1.014796066E1,-4.067798555E-1,1.015651194E1
2.000548870E0,8.075776696E-2,-1.017428207E1,-3.876372576E-1,1.018198410E1
2.002993453E0,1.070788130E-1,-1.017188931E1,-3.996013701E-1,1.018029858E1
2.005437984E0,1.118644550E-1,-1.017906761E1,-3.804588020E-1,1.018678948E1
2.007882568E0,1.070788130E-1,-1.017428207E1,-3.996013701E-1,1.018268937E1
2.010327880E0,1.142572835E-1,-1.016471100E1,-3.948157430E-1,1.017301744E1
2.012771578E0,1.118644550E-1,-1.015513897E1,-3.756731451E-1,1.016270099E1
2.015216161E0,9.272187948E-2,-1.016471100E1,-3.924229145E-1,1.017270577E1
2.017661474E0,9.272187948E-2,-1.015753174E1,-3.876372576E-1,1.016534854E1
2.020105172E0,9.750752151E-2,-1.017188931E1,-3.828516304E-1,1.017955869E1
2.022549755E0,1.046859920E-1,-1.018863869E1,-3.828516304E-1,1.019636665E1
2.024994286E0,1.046859920E-1,-1.019342422E1,-3.613162339E-1,1.020036303E1
2.027438818E0,1.190429255E-1,-1.015992451E1,-3.948157430E-1,1.016828976E1
2.029884130E0,1.070788130E-1,-1.016710377E1,-3.924229145E-1,1.017523762E1
2.032327828E0,1.046859920E-1,-1.016231823E1,-3.804588020E-1,1.016997639E1
2.034772411E0,1.262213886E-1,-1.019103146E1,-3.661018610E-1,1.019838637E1
2.037217724E0,1.118644550E-1,-1.019103146E1,-3.924229145E-1,1.019919759E1
2.039661422E0,1.022931710E-1,-1.016710377E1,-3.996013701E-1,1.017546776E1
2.042106005E0,9.750752151E-2,-1.016471100E1,-3.708875179E-1,1.017194254E1
2.044550536E0,9.990034252E-2,-1.016231823E1,-3.828516304E-1,1.017001806E1
2.046995068E0,1.142572835E-1,-1.014796066E1,-3.996013701E-1,1.015646797E1
2.049440432E0,1.118644550E-1,-1.014796066E1,-3.948157430E-1,1.015625417E1
2.051884078E0,1.142572835E-1,-1.020299530E1,-3.780659735E-1,1.021063669E1
2.054328661E0,1.022931710E-1,-1.023170948E1,-3.996013701E-1,1.024002070E1
2.056774026E0,1.022931710E-1,-1.020538902E1,-3.948157430E-1,1.021353555E1
2.059217724E0,9.990034252E-2,-1.015274620E1,-3.900300860E-1,1.016072630E1
2.061662307E0,1.166501045E-1,-1.011924744E1,-3.924229145E-1,1.012752545E1
2.064106838E0,1.094716340E-1,-1.014556789E1,-3.804588020E-1,1.015328916E1
2.066551370E0,1.238285750E-1,-1.017428207E1,-3.732803464E-1,1.018188035E1
2.068996682E0,1.333998591E-1,-1.019103146E1,-4.019941986E-1,1.019982926E1
2.071440380E0,1.022931710E-1,-1.019103146E1,-4.091726840E-1,1.019975531E1
2.073884963E0,1.166501045E-1,-1.019581699E1,-3.924229145E-1,1.020403289E1
2.076330276E0,1.118644550E-1,-1.017428207E1,-3.852444589E-1,1.018218752E1
2.078773974E0,1.046859920E-1,-1.015274620E1,-3.780659735E-1,1.016032226E1
2.081218557E0,1.238285750E-1,-1.012881851E1,-3.852444589E-1,1.013689850E1
2.083663088E0,1.118644550E-1,-1.016710377E1,-3.996013701E-1,1.017556848E1
2.086107620E0,8.793623000E-2,-1.019103146E1,-3.828516304E-1,1.019859943E1
2.088552932E0,1.022931710E-1,-1.016949654E1,-3.924229145E-1,1.017757925E1
2.090996630E0,1.046859920E-1,-1.019342422E1,-4.211367965E-1,1.020265714E1
2.093441213E0,1.022931710E-1,-1.019581699E1,-3.924229145E-1,1.020387886E1
2.095886578E0,1.118644550E-1,-1.013599682E1,-3.852444589E-1,1.014393210E1
2.098330276E0,1.214357466E-1,-1.012164021E1,-4.019941986E-1,1.013034779E1
2.100774859E0,1.214357466E-1,-1.016949654E1,-3.804588020E-1,1.017733538E1
2.103219391E0,1.166501045E-1,-1.018385315E1,-3.924229145E-1,1.019207869E1
2.105663922E0,9.272187948E-2,-1.019342422E1,-3.996013701E-1,1.020167516E1
2.108109234E0,9.272187948E-2,-1.020299530E1,-3.900300860E-1,1.021086842E1
2.110552932E0,9.750752151E-2,-1.018146038E1,-3.948157430E-1,1.018957912E1
2.112997516E0,1.070788130E-1,-1.015274620E1,-3.852444589E-1,1.016061684E1
2.115442828E0,1.094716340E-1,-1.016231823E1,-3.708875179E-1,1.016967322E1
2.117886526E0,1.286142170E-1,-1.016710377E1,-3.924229145E-1,1.017548703E1
2.120331109E0,1.070788130E-1,-1.016231823E1,-3.804588020E-1,1.017000131E1
2.122775641E0,1.190429255E-1,-1.021017456E1,-3.828516304E-1,1.021804341E1
2.125220172E0,1.070788130E-1,-1.019342422E1,-3.924229145E-1,1.020153709E1
2.127665484E0,1.046859920E-1,-1.015992451E1,-3.852444589E-1,1.016776467E1
2.130109182E0,1.142572835E-1,-1.014796066E1,-3.972085714E-1,1.015637411E1
2.132553766E0,1.214357466E-1,-1.013838959E1,-3.661018610E-1,1.014572425E1
2.134999130E0,1.286142170E-1,-1.014556789E1,-3.780659735E-1,1.015342422E1
2.137442776E0,1.070788130E-1,-1.020778179E1,-3.804588020E-1,1.021543068E1
2.139887359E0,9.032905847E-2,-1.021017456E1,-3.972085714E-1,1.021829724E1
2.142331891E0,9.750752151E-2,-1.020778179E1,-3.804588020E-1,1.021533483E1
2.144776422E0,1.262213886E-1,-1.020299530E1,-3.972085714E-1,1.021150428E1
2.147221786E0,1.118644550E-1,-1.015753174E1,-3.924229145E-1,1.016572479E1
2.149665484E0,1.333998591E-1,-1.011924744E1,-3.876372576E-1,1.012754792E1
2.152110068E0,1.142572835E-1,-1.014796066E1,-3.876372576E-1,1.015600428E1
2.154555380E0,1.022931710E-1,-1.021256733E1,-3.613162339E-1,1.021946891E1
2.156999078E0,8.554340899E-2,-1.019342422E1,-3.924229145E-1,1.020133378E1
2.159443661E0,7.597211748E-2,-1.019103146E1,-3.732803464E-1,1.019814847E1
2.161888193E0,1.286142170E-1,-1.015513897E1,-3.852444589E-1,1.016325747E1
2.164332724E0,1.142572835E-1,-1.013121128E1,-3.565305769E-1,1.013812659E1
2.166778036E0,1.286142170E-1,-1.015274620E1,-3.948157430E-1,1.016123400E1
2.169221734E0,1.214357466E-1,-1.017906761E1,-3.804588020E-1,1.018689909E1
2.171666318E0,1.070788130E-1,-1.021496010E1,-3.708875179E-1,1.022225187E1
2.174111630E0,1.070788130E-1,-1.021974564E1,-4.019941986E-1,1.022820933E1
2.176555328E0,9.990034252E-2,-1.022213840E1,-4.043870270E-1,1.023062180E1
2.178999911E0,9.511470050E-2,-1.014078236E1,-3.924229145E-1,1.014881813E1
2.181444443E0,1.214357466E-1,-1.008096218E1,-3.708875179E-1,1.008851340E1
2.183888974E0,1.190429255E-1,-1.013360405E1,-3.828516304E-1,1.014153231E1
2.186334338E0,1.118644550E-1,-1.021256733E1,-3.900300860E-1,1.022062467E1
2.188777984E0,1.142572835E-1,-1.021735287E1,-3.637090325E-1,1.022446275E1
2.191222620E0,9.511470050E-2,-1.017667484E1,-3.996013701E-1,1.018496141E1
2.193667932E0,8.075776696E-2,-1.016231823E1,-4.043870270E-1,1.017068152E1
2.196111630E0,1.333998591E-1,-1.018385315E1,-3.996013701E-1,1.019256306E1
2.198556213E0,1.214357466E-1,-1.010967541E1,-3.948157430E-1,1.011811064E1
2.201000745E0,1.333998591E-1,-1.014556789E1,-3.852444589E-1,1.015375579E1
2.203445276E0,1.046859920E-1,-1.018863869E1,-3.756731451E-1,1.019609963E1
2.205890588E0,9.750752151E-2,-1.019342422E1,-3.828516304E-1,1.020107742E1
2.208334286E0,8.793623000E-2,-1.018624592E1,-3.900300860E-1,1.019408957E1
2.210778870E0,9.750752151E-2,-1.016231823E1,-3.948157430E-1,1.017045225E1
2.213224182E0,1.381855011E-1,-1.016471100E1,-3.876372576E-1,1.017303827E1
2.215667880E0,1.214357466E-1,-1.015274620E1,-3.780659735E-1,1.016050865E1
2.218112463E0,1.357926875E-1,-1.013838959E1,-3.900300860E-1,1.014679785E1
2.220556995E0,1.094716340E-1,-1.016949654E1,-3.876372576E-1,1.017747053E1
2.223001526E0,1.022931710E-1,-1.017667484E1,-4.115654826E-1,1.018550740E1
2.225446891E0,9.750752151E-2,-1.015753174E1,-3.804588020E-1,1.016512212E1
2.227890536E0,1.214357466E-1,-1.016231823E1,-3.972085714E-1,1.017080297E1
2.230335120E0,1.022931710E-1,-1.021256733E1,-3.708875179E-1,1.021981178E1
2.232780484E0,1.214357466E-1,-1.019342422E1,-3.756731451E-1,1.020106732E1
2.235224182E0,1.142572835E-1,-1.015753174E1,-3.756731451E-1,1.016511860E1
2.237668713E0,9.511470050E-2,-1.016471100E1,-4.067798555E-1,1.017329181E1
2.240113297E0,9.750752151E-2,-1.015274620E1,-3.852444589E-1,1.016052048E1
2.242557828E0,1.046859920E-1,-1.015753174E1,-3.708875179E-1,1.016483978E1
2.245003141E0,9.511470050E-2,-1.015753174E1,-3.996013701E-1,1.016583391E1
2.247446838E0,1.094716340E-1,-1.020299530E1,-3.876372576E-1,1.021094314E1
2.249891422E0,1.310070455E-1,-1.019581699E1,-3.661018610E-1,1.020322878E1
2.252336734E0,9.511470050E-2,-1.018863869E1,-3.900300860E-1,1.019654493E1
2.254780432E0,1.022931710E-1,-1.016471100E1,-3.876372576E-1,1.017261403E1
2.257225016E0,1.310070455E-1,-1.012642574E1,-4.043870270E-1,1.013534361E1
2.259669547E0,1.381855011E-1,-1.012642574E1,-4.043870270E-1,1.013543894E1
2.262114078E0,1.501496136E-1,-1.018146038E1,-3.828516304E-1,1.018976230E1
2.264559391E0,1.070788130E-1,-1.021496010E1,-3.756731451E-1,1.022242662E1
2.267003088E0,9.750752151E-2,-1.019581699E1,-3.876372576E-1,1.020364908E1
2.269447672E0,1.046859920E-1,-1.015753174E1,-3.780659735E-1,1.016510423E1
2.271893036E0,1.022931710E-1,-1.013360405E1,-3.996013701E-1,1.014199567E1
2.274336682E0,1.070788130E-1,-1.016231823E1,-3.469592929E-1,1.016880320E1
2.276781318E0,1.046859920E-1,-1.014317513E1,-4.019941986E-1,1.015167770E1
2.279225849E0,1.022931710E-1,-1.015513897E1,-3.804588020E-1,1.016277818E1
2.281670380E0,7.597211748E-2,-1.020778179E1,-3.924229145E-1,1.021560456E1
2.284115693E0,7.357929647E-2,-1.022692394E1,-3.828516304E-1,1.023435209E1
2.286559391E0,1.310070455E-1,-1.018146038E1,-4.043870270E-1,1.019033008E1
2.289003974E0,1.166501045E-1,-1.014078236E1,-3.852444589E-1,1.014876777E1
2.291449286E0,1.238285750E-1,-1.015035343E1,-3.852444589E-1,1.015841629E1
2.293892984E0,1.214357466E-1,-1.016471100E1,-3.756731451E-1,1.017237566E1
2.296337568E0,9.750752151E-2,-1.015035343E1,-3.780659735E-1,1.015785983E1
2.298782099E0,1.070788130E-1,-1.015274620E1,-3.804588020E-1,1.016043652E1
2.301226630E0,1.022931710E-1,-1.018624592E1,-3.541377485E-1,1.019291339E1
2.303671943E0,9.750752151E-2,-1.019820976E1,-3.876372576E-1,1.020604001E1
2.306115641E0,9.032905847E-2,-1.019820976E1,-3.756731451E-1,1.020552654E1
2.308560224E0,1.190429255E-1,-1.015274620E1,-3.780659735E-1,1.016048033E1
2.311005588E0,1.286142170E-1,-1.013360405E1,-3.852444589E-1,1.014173979E1
2.313449234E0,1.046859920E-1,-1.012642574E1,-4.115654826E-1,1.013532652E1
2.315893818E0,1.070788130E-1,-1.017428207E1,-3.900300860E-1,1.018231826E1
2.318338401E0,1.070788130E-1,-1.021974564E1,-3.852444589E-1,1.022756472E1
2.320782880E0,9.272187948E-2,-1.018863869E1,-3.852444589E-1,1.019634096E1
2.323228245E0,9.032905847E-2,-1.017667484E1,-4.115654826E-1,1.018539427E1
2.325671943E0,9.990034252E-2,-1.016710377E1,-4.091726840E-1,1.017582436E1
2.328116526E0,1.142572835E-1,-1.012403297E1,-3.637090325E-1,1.013120835E1
2.330561838E0,1.118644550E-1,-1.010249710E1,-3.828516304E-1,1.011036778E1
2.333005536E0,1.238285750E-1,-1.017188931E1,-3.972085714E-1,1.018039489E1
2.335450120E0,1.070788130E-1,-1.023170948E1,-3.948157430E-1,1.023988400E1
2.337894651E0,1.142572835E-1,-1.021496010E1,-3.852444589E-1,1.022286055E1
2.340339182E0,1.046859920E-1,-1.017667484E1,-3.948157430E-1,1.018486865E1
2.342784495E0,1.286142170E-1,-1.015274620E1,-3.996013701E-1,1.016142108E1
2.345228193E0,1.286142170E-1,-1.010728264E1,-3.804588020E-1,1.011525842E1
2.347672776E0,1.310070455E-1,-1.014078236E1,-3.804588020E-1,1.014876241E1
2.350118088E0,1.118644550E-1,-1.019103146E1,-3.732803464E-1,1.019847900E1
2.352561786E0,8.075776696E-2,-1.024367332E1,-3.828516304E-1,1.025114337E1
2.355006370E0,1.118644550E-1,-1.019342422E1,-4.091726840E-1,1.020224649E1
2.357450901E0,7.836493850E-2,-1.016471100E1,-3.852444589E-1,1.017231065E1
2.359895432E0,1.094716340E-1,-1.012642574E1,-3.948157430E-1,1.013471074E1
2.362340797E0,1.094716340E-1,-1.012642574E1,-3.708875179E-1,1.013380678E1
2.364784495E0,1.310070455E-1,-1.015992451E1,-3.876372576E-1,1.016816067E1
2.367229078E0,1.118644550E-1,-1.018624592E1,-3.708875179E-1,1.019360962E1
2.369674391E0,1.022931710E-1,-1.021735287E1,-3.996013701E-1,1.022567576E1
2.372118088E0,8.315058798E-2,-1.018863869E1,-4.115654826E-1,1.019728682E1
2.374562672E0,8.793623000E-2,-1.014317513E1,-4.067798555E-1,1.015170943E1
2.377007203E0,1.166501045E-1,-1.010010433E1,-3.852444589E-1,1.010812189E1
2.379451734E0,1.238285750E-1,-1.012642574E1,-3.780659735E-1,1.013423730E1
2.381897047E0,1.286142170E-1,-1.020778179E1,-3.924229145E-1,1.021613168E1
2.384340745E0,1.094716340E-1,-1.023170948E1,-3.661018610E-1,1.023884239E1
2.386785328E0,9.750752151E-2,-1.018146038E1,-4.043870270E-1,1.018995447E1
2.389230641E0,9.990034252E-2,-1.016949654E1,-3.900300860E-1,1.017746350E1
2.391674338E0,1.022931710E-1,-1.015274620E1,-3.828516304E-1,1.016047709E1
2.394118922E0,1.046859920E-1,-1.015513897E1,-3.661018610E-1,1.016227520E1
2.396563453E0,1.190429255E-1,-1.016231823E1,-3.661018610E-1,1.016960735E1
2.399007984E0,1.166501045E-1,-1.019581699E1,-3.637090325E-1,1.020296896E1
2.401453349E0,9.032905847E-2,-1.019103146E1,-3.876372576E-1,1.019880111E1
2.403897047E0,7.597211748E-2,-1.015753174E1,-3.900300860E-1,1.016530109E1
2.406341630E0,8.554340899E-2,-1.014796066E1,-4.019941986E-1,1.015627996E1
2.408786943E0,1.286142170E-1,-1.014796066E1,-3.876372576E-1,1.015617595E1
2.411230641E0,1.070788130E-1,-1.018385315E1,-3.924229145E-1,1.019197364E1
2.413675224E0,1.022931710E-1,-1.017188931E1,-3.613162339E-1,1.017881847E1
2.416119755E0,8.075776696E-2,-1.020778179E1,-3.948157430E-1,1.021573347E1
2.418564286E0,1.166501045E-1,-1.017428207E1,-3.948157430E-1,1.018260784E1
2.421009599E0,1.046859920E-1,-1.016471100E1,-4.067798555E-1,1.017338580E1
2.423453297E0,1.262213886E-1,-1.014317513E1,-3.924229145E-1,1.015154812E1
2.425897880E0,1.166501045E-1,-1.014796066E1,-3.972085714E-1,1.015640131E1
2.428343193E0,1.405783296E-1,-1.019581699E1,-3.876372576E-1,1.020415156E1
2.430786891E0,1.118644550E-1,-1.015274620E1,-3.684946895E-1,1.016004712E1
2.433231474E0,1.118644550E-1,-1.017188931E1,-4.187439680E-1,1.018111940E1
2.435676005E0,9.750752151E-2,-1.021256733E1,-3.900300860E-1,1.022047761E1
2.438120536E0,1.046859920E-1,-1.016710377E1,-3.876372576E-1,1.017502928E1
2.440565901E0,1.333998591E-1,-1.014078236E1,-3.684946895E-1,1.014835212E1
2.443009547E0,1.046859920E-1,-1.018146038E1,-3.804588020E-1,1.018910416E1
2.445454130E0,1.070788130E-1,-1.018863869E1,-3.732803464E-1,1.019603660E1
2.447899495E0,1.070788130E-1,-1.014078236E1,-4.067798555E-1,1.014950258E1
2.450343193E0,9.032905847E-2,-1.017188931E1,-3.732803464E-1,1.017913698E1
2.452787776E0,1.046859920E-1,-1.017906761E1,-4.043870270E-1,1.018763493E1
2.455232307E0,1.190429255E-1,-1.017906761E1,-3.876372576E-1,1.018714147E1
2.457676838E0,1.262213886E-1,-1.015753174E1,-3.900300860E-1,1.016580082E1
2.460122151E0,9.990034252E-2,-1.016710377E1,-3.972085714E-1,1.017535030E1
2.462565849E0,1.142572835E-1,-1.017428207E1,-3.948157430E-1,1.018258071E1
2.465010432E0,1.022931710E-1,-1.016231823E1,-3.732803464E-1,1.016968603E1
2.467455745E0,1.118644550E-1,-1.015992451E1,-3.661018610E-1,1.016713383E1
2.469899443E0,1.070788130E-1,-1.015035343E1,-3.924229145E-1,1.015850070E1
2.472344026E0,1.118644550E-1,-1.017667484E1,-3.996013701E-1,1.018513160E1
2.474788557E0,1.166501045E-1,-1.018385315E1,-3.828516304E-1,1.019171465E1
2.477233088E0,1.190429255E-1,-1.019342422E1,-3.804588020E-1,1.020121647E1
2.479678401E0,1.070788130E-1,-1.017906761E1,-3.852444589E-1,1.018691792E1
2.482122099E0,8.554340899E-2,-1.015992451E1,-3.828516304E-1,1.016749522E1
2.484566682E0,1.022931710E-1,-1.014078236E1,-3.804588020E-1,1.014843237E1
2.487012047E0,1.190429255E-1,-1.016231823E1,-3.828516304E-1,1.017022411E1
2.489455745E0,1.310070455E-1,-1.015992451E1,-3.924229145E-1,1.016834424E1
2.491900328E0,1.190429255E-1,-1.017428207E1,-3.828516304E-1,1.018217866E1
2.494344859E0,1.022931710E-1,-1.019581699E1,-3.732803464E-1,1.020316060E1
2.496789391E0,1.022931710E-1,-1.019581699E1,-3.708875179E-1,1.020307334E1
2.499234703E0,1.357926875E-1,-1.015513897E1,-4.091726840E-1,1.016428598E1
2.501678401E0,1.262213886E-1,-1.015274620E1,-3.804588020E-1,1.016065629E1
2.504122984E0,1.190429255E-1,-1.016231823E1,-3.732803464E-1,1.016986830E1
2.506568297E0,1.190429255E-1,-1.018146038E1,-3.804588020E-1,1.018926178E1
2.509011995E0,1.118644550E-1,-1.015035343E1,-3.852444589E-1,1.015827750E1
2.511456578E0,1.046859920E-1,-1.015274620E1,-3.924229145E-1,1.016086661E1
2.513901109E0,1.190429255E-1,-1.017428207E1,-3.948157430E-1,1.018263553E1
2.516345641E0,1.214357466E-1,-1.016710377E1,-3.637090325E-1,1.017433192E1
2.518791005E0,1.142572835E-1,-1.015274620E1,-3.876372576E-1,1.016078603E1
2.521234651E0,1.022931710E-1,-1.021017456E1,-3.828516304E-1,1.021786200E1
2.523679234E0,9.750752151E-2,-1.018146038E1,-3.924229145E-1,1.018948669E1
2.526124599E0,1.094716340E-1,-1.015274620E1,-3.565305769E-1,1.015959416E1
2.528568297E0,1.022931710E-1,-1.015513897E1,-3.780659735E-1,1.016268888E1
2.531012880E0,1.094716340E-1,-1.015274620E1,-3.876372576E-1,1.016073334E1
2.533457411E0,1.286142170E-1,-1.015753174E1,-3.900300860E-1,1.016583081E1
2.535901943E0,1.357926875E-1,-1.017188931E1,-4.019941986E-1,1.018073529E1
2.538347255E0,1.166501045E-1,-1.016710377E1,-3.852444589E-1,1.017506853E1
2.540790953E0,9.750752151E-2,-1.015513897E1,-3.804588020E-1,1.016273113E1
2.543235536E0,1.094716340E-1,-1.017188931E1,-3.828516304E-1,1.017968032E1
2.545680849E0,1.022931710E-1,-1.016471100E1,-3.972085714E-1,1.017298325E1
2.548124547E0,1.118644550E-1,-1.016949654E1,-3.900300860E-1,1.017758797E1
2.550569130E0,1.190429255E-1,-1.018146038E1,-3.828516304E-1,1.018935141E1
2.553013661E0,1.094716340E-1,-1.016471100E1,-3.661018610E-1,1.017189089E1
2.555458193E0,1.381855011E-1,-1.016710377E1,-3.708875179E-1,1.017480475E1
2.557903557E0,1.118644550E-1,-1.017428207E1,-4.043870270E-1,1.018292975E1
2.560347203E0,1.022931710E-1,-1.017428207E1,-4.091726840E-1,1.018302027E1
2.562791786E0,1.238285750E-1,-1.016231823E1,-3.948157430E-1,1.017073865E1
2.565237151E0,9.272187948E-2,-1.016471100E1,-3.900300860E-1,1.017261375E1
2.567680849E0,1.094716340E-1,-1.017667484E1,-3.852444589E-1,1.018455243E1
2.570125432E0,9.990034252E-2,-1.015753174E1,-3.780659735E-1,1.016505607E1
2.572569963E0,1.070788130E-1,-1.014796066E1,-3.924229145E-1,1.015610985E1
2.575014495E0,1.166501045E-1,-1.018624592E1,-3.780659735E-1,1.019392697E1
2.577459807E0,9.990034252E-2,-1.017188931E1,-3.708875179E-1,1.017913895E1
2.579903505E0,1.190429255E-1,-1.017906761E1,-3.948157430E-1,1.018741715E1
2.582348088E0,1.238285750E-1,-1.015035343E1,-3.876372576E-1,1.015850732E1
2.584793401E0,1.022931710E-1,-1.017906761E1,-3.756731451E-1,1.018651126E1
2.587237099E0,1.142572835E-1,-1.017428207E1,-3.876372576E-1,1.018230490E1
2.589681682E0,1.142572835E-1,-1.015035343E1,-3.876372576E-1,1.015839516E1
2.592126213E0,1.118644550E-1,-1.016710377E1,-3.708875179E-1,1.017448132E1
2.594570745E0,1.429711580E-1,-1.017428207E1,-3.852444589E-1,1.018257677E1
2.597016057E0,1.118644550E-1,-1.017667484E1,-4.067798555E-1,1.018541577E1
2.599459755E0,9.272187948E-2,-1.017188931E1,-3.804588020E-1,1.017942426E1
2.601904338E0,1.142572835E-1,-1.018385315E1,-3.972085714E-1,1.019223696E1
2.604349703E0,1.022931710E-1,-1.017428207E1,-3.900300860E-1,1.018226905E1
2.606793349E0,1.094716340E-1,-1.015992451E1,-3.996013701E-1,1.016836916E1
2.609237984E0,9.032905847E-2,-1.015513897E1,-3.828516304E-1,1.016275466E1
2.611682516E0,1.070788130E-1,-1.014317513E1,-3.708875179E-1,1.015051846E1
2.614127047E0,1.190429255E-1,-1.015513897E1,-3.780659735E-1,1.016287128E1
2.616572359E0,1.142572835E-1,-1.016471100E1,-3.708875179E-1,1.017211689E1
2.619016057E0,1.070788130E-1,-1.019342422E1,-3.684946895E-1,1.020064467E1
2.621460641E0,1.070788130E-1,-1.018385315E1,-3.924229145E-1,1.019197364E1
2.623905953E0,1.046859920E-1,-1.015513897E1,-4.019941986E-1,1.016363154E1
2.626349651E0,1.094716340E-1,-1.016471100E1,-3.613162339E-1,1.017171977E1
2.628794234E0,1.166501045E-1,-1.018624592E1,-3.804588020E-1,1.019401599E1
2.631238766E0,9.990034252E-2,-1.016231823E1,-3.948157430E-1,1.017047547E1
2.633683297E0,9.272187948E-2,-1.018146038E1,-3.996013701E-1,1.018972100E1
2.636128609E0,9.032905847E-2,-1.017428207E1,-3.876372576E-1,1.018206451E1
2.638572307E0,1.022931710E-1,-1.016231823E1,-3.661018610E-1,1.016942507E1
2.641016891E0,1.214357466E-1,-1.015274620E1,-3.684946895E-1,1.016015701E1
2.643462255E0,9.511470050E-2,-1.017906761E1,-3.876372576E-1,1.018688995E1
2.645905901E0,1.118644550E-1,-1.017188931E1,-3.780659735E-1,1.017952747E1
2.648350484E0,1.046859920E-1,-1.016231823E1,-3.780659735E-1,1.016988716E1
2.650795068E0,1.046859920E-1,-1.016231823E1,-3.852444589E-1,1.017015655E1
2.653239599E0,1.118644550E-1,-1.014796066E1,-3.684946895E-1,1.015526502E1
2.655684911E0,1.286142170E-1,-1.016710377E1,-3.828516304E-1,1.017512241E1
2.658128609E0,1.238285750E-1,-1.016231823E1,-3.732803464E-1,1.016992544E1
2.660573193E0,8.315058798E-2,-1.016949654E1,-4.043870270E-1,1.017787319E1
2.663018505E0,9.511470050E-2,-1.017667484E1,-3.780659735E-1,1.018413921E1
2.665462203E0,1.142572835E-1,-1.015753174E1,-3.804588020E-1,1.016529658E1
2.667906786E0,1.070788130E-1,-1.016471100E1,-4.091726840E-1,1.017350666E1
2.670351318E0,1.070788130E-1,-1.017667484E1,-3.876372576E-1,1.018461778E1
2.672795849E0,1.022931710E-1,-1.015753174E1,-3.900300860E-1,1.016553188E1
2.675241161E0,1.333998591E-1,-1.018863869E1,-3.972085714E-1,1.019725103E1
2.677684859E0,1.190429255E-1,-1.018624592E1,-3.804588020E-1,1.019404365E1
2.680129443E0,1.046859920E-1,-1.016471100E1,-3.732803464E-1,1.017210141E1
2.682574807E0,9.750752151E-2,-1.015274620E1,-3.876372576E-1,1.016061149E1
2.685018453E0,1.142572835E-1,-1.015753174E1,-3.732803464E-1,1.016503045E1
2.687463036E0,1.214357466E-1,-1.016231823E1,-3.924229145E-1,1.017061720E1
2.689907620E0,1.310070455E-1,-1.017667484E1,-3.804588020E-1,1.018462678E1
2.692352151E0,1.214357466E-1,-1.016471100E1,-3.876372576E-1,1.017282453E1
2.694797463E0,8.075776696E-2,-1.017188931E1,-3.828516304E-1,1.017941203E1
2.697241161E0,1.214357466E-1,-1.019342422E1,-3.828516304E-1,1.020133420E1
2.699685745E0,1.166501045E-1,-1.017906761E1,-3.996013701E-1,1.018757606E1
2.702131057E0,1.262213886E-1,-1.017188931E1,-3.708875179E-1,1.017943129E1
2.704574755E0,1.094716340E-1,-1.015274620E1,-3.708875179E-1,1.016010812E1
2.707019338E0,1.070788130E-1,-1.015753174E1,-3.828516304E-1,1.016530827E1
2.709463870E0,1.094716340E-1,-1.017667484E1,-3.708875179E-1,1.018401946E1
2.711908401E0,1.094716340E-1,-1.015992451E1,-3.780659735E-1,1.016754562E1
2.714353713E0,1.070788130E-1,-1.017188931E1,-3.780659735E-1,1.017947601E1
2.716797411E0,1.046859920E-1,-1.017667484E1,-3.756731451E-1,1.018414456E1
2.719241995E0,9.511470050E-2,-1.016949654E1,-3.804588020E-1,1.017705535E1
2.721687359E0,1.262213886E-1,-1.018385315E1,-3.684946895E-1,1.019129948E1
2.724131005E0,1.262213886E-1,-1.016710377E1,-3.732803464E-1,1.017473681E1
2.726575588E0,1.046859920E-1,-1.015753174E1,-3.996013701E-1,1.016592797E1
2.729020172E0,1.118644550E-1,-1.016949654E1,-3.876372576E-1,1.017749655E1
2.731464703E0,1.333998591E-1,-1.017667484E1,-3.780659735E-1,1.018456873E1
2.733910016E0,1.357926875E-1,-1.017428207E1,-3.756731451E-1,1.018212088E1
2.736353713E0,9.990034252E-2,-1.018385315E1,-3.948157430E-1,1.019199316E1
2.738798297E0,1.142572835E-1,-1.016710377E1,-3.661018610E-1,1.017433459E1
2.741243609E0,9.990034252E-2,-1.017428207E1,-3.756731451E-1,1.018170546E1
2.743687307E0,1.094716340E-1,-1.016231823E1,-4.019941986E-1,1.017085518E1
2.746131891E0,8.793623000E-2,-1.016231823E1,-3.972085714E-1,1.017045816E1
2.748576422E0,1.238285750E-1,-1.016471100E1,-3.876372576E-1,1.017285338E1
2.751020953E0,1.166501045E-1,-1.017428207E1,-3.589234054E-1,1.018127934E1
2.753466266E0,9.990034252E-2,-1.017667484E1,-3.972085714E-1,1.018491363E1
2.755909963E0,1.238285750E-1,-1.017188931E1,-3.948157430E-1,1.018030181E1
2.758354547E0,1.142572835E-1,-1.018146038E1,-4.091726840E-1,1.019031955E1
2.760799911E0,1.142572835E-1,-1.017188931E1,-3.852444589E-1,1.017982318E1
2.763243557E0,1.214357466E-1,-1.018146038E1,-3.613162339E-1,1.018859321E1
2.765688141E0,1.142572835E-1,-1.019103146E1,-3.708875179E-1,1.019841823E1
2.768132724E0,1.357926875E-1,-1.018146038E1,-3.756731451E-1,1.018929367E1
2.770577255E0,1.166501045E-1,-1.018146038E1,-3.996013701E-1,1.018996683E1
2.773022568E0,1.094716340E-1,-1.017188931E1,-3.780659735E-1,1.017950146E1
2.775466266E0,1.046859920E-1,-1.016949654E1,-3.828516304E-1,1.017723903E1
2.777910849E0,1.262213886E-1,-1.015274620E1,-3.780659735E-1,1.016056697E1
2.780356161E0,9.272187948E-2,-1.016231823E1,-4.019941986E-1,1.017068869E1
2.782799859E0,1.022931710E-1,-1.016231823E1,-3.996013701E-1,1.017068616E1
2.785244443E0,1.118644550E-1,-1.016231823E1,-3.876372576E-1,1.017032389E1
2.787688974E0,1.094716340E-1,-1.017667484E1,-3.852444589E-1,1.018455243E1
2.790133505E0,9.511470050E-2,-1.015513897E1,-3.804588020E-1,1.016270846E1
2.792578818E0,9.511470050E-2,-1.009053326E1,-3.972085714E-1,1.009879611E1
2.795022516E0,1.214357466E-1,-1.026072216E1,-3.852444589E-1,1.026866979E1
2.797467099E0,1.094716340E-1,-1.011685371E1,-3.326023519E-1,1.012291151E1
2.799912463E0,1.094716340E-1,-1.018385315E1,-4.211367965E-1,1.019314501E1
2.802356109E0,1.118644550E-1,-1.014796066E1,-3.421736360E-1,1.015434400E1
2.804800693E0,1.214357466E-1,-1.017188931E1,-4.378865361E-1,1.018203434E1
2.807245224E0,1.022931710E-1,-1.017906761E1,-3.206382394E-1,1.018463010E1
2.809689807E0,1.142572835E-1,-1.015513897E1,-4.211367965E-1,1.016450975E1
2.812135120E0,9.032905847E-2,-1.017906761E1,-3.493520916E-1,1.018546139E1
2.814578818E0,1.118644550E-1,-1.019103146E1,-3.900300860E-1,1.019910581E1
2.817023401E0,1.333998591E-1,-1.017188931E1,-3.852444589E-1,1.018005603E1
2.819468713E0,1.238285750E-1,-1.018624592E1,-4.091726840E-1,1.019521269E1
2.821912411E0,1.094716340E-1,-1.015513897E1,-3.780659735E-1,1.016276367E1
2.824356995E0,1.094716340E-1,-1.016949654E1,-3.804588020E-1,1.017719965E1
2.826801526E0,1.310070455E-1,-1.017428207E1,-3.732803464E-1,1.018197018E1
2.829246057E0,1.046859920E-1,-1.018385315E1,-3.852444589E-1,1.019167491E1
2.831691370E0,8.554340899E-2,-1.015753174E1,-3.804588020E-1,1.016501439E1
2.834135068E0,1.118644550E-1,-1.016231823E1,-4.091726840E-1,1.017116747E1
2.836579651E0,1.357926875E-1,-1.017188931E1,-3.732803464E-1,1.017964193E1
2.839024963E0,1.142572835E-1,-1.015513897E1,-3.780659735E-1,1.016281635E1
2.841468661E0,1.094716340E-1,-1.015035343E1,-3.708875179E-1,1.015771708E1
2.843913245E0,1.166501045E-1,-1.015513897E1,-3.876372576E-1,1.016320409E1
2.846357828E0,1.166501045E-1,-1.017906761E1,-3.828516304E-1,1.018693281E1
2.848802307E0,1.333998591E-1,-1.015992451E1,-3.732803464E-1,1.016765458E1
2.851247672E0,1.046859920E-1,-1.016710377E1,-3.732803464E-1,1.017449244E1
2.853691370E0,1.046859920E-1,-1.015992451E1,-3.684946895E-1,1.016714382E1
2.856135953E0,1.022931710E-1,-1.018863869E1,-3.661018610E-1,1.019572718E1
2.858581266E0,1.142572835E-1,-1.016231823E1,-4.043870270E-1,1.017100267E1
2.861024963E0,1.118644550E-1,-1.015753174E1,-3.756731451E-1,1.016509198E1
2.863469547E0,1.238285750E-1,-1.016710377E1,-3.828516304E-1,1.017506304E1
2.865914078E0,1.022931710E-1,-1.018385315E1,-3.637090325E-1,1.019085929E1
2.868358609E0,1.142572835E-1,-1.016710377E1,-3.756731451E-1,1.017468349E1
2.870803922E0,1.190429255E-1,-1.018146038E1,-3.661018610E-1,1.018873580E1
2.873247620E0,1.118644550E-1,-1.015992451E1,-3.613162339E-1,1.016696263E1
2.875692203E0,1.118644550E-1,-1.016710377E1,-3.948157430E-1,1.017538167E1
2.878137516E0,1.070788130E-1,-1.017428207E1,-3.876372576E-1,1.018222688E1
2.880581213E0,1.118644550E-1,-1.016710377E1,-3.708875179E-1,1.017448132E1
2.883025797E0,1.190429255E-1,-1.017188931E1,-3.708875179E-1,1.017934481E1
2.885470328E0,1.094716340E-1,-1.016471100E1,-3.948157430E-1,1.017296482E1
2.887914911E0,1.022931710E-1,-1.017188931E1,-3.876372576E-1,1.017978676E1
2.890360224E0,8.075776696E-2,-1.015753174E1,-3.828516304E-1,1.016506509E1
2.892803922E0,1.142572835E-1,-1.016949654E1,-3.852444589E-1,1.017743228E1
2.895248505E0,1.262213886E-1,-1.016710377E1,-3.804588020E-1,1.017500269E1
2.897693818E0,1.190429255E-1,-1.018863869E1,-3.828516304E-1,1.019652416E1
2.900137516E0,1.142572835E-1,-1.018863869E1,-3.756731451E-1,1.019620240E1
2.902582099E0,1.190429255E-1,-1.016231823E1,-3.732803464E-1,1.016986830E1
2.905026630E0,1.142572835E-1,-1.017188931E1,-3.637090325E-1,1.017903095E1
2.907471161E0,1.118644550E-1,-1.017188931E1,-3.732803464E-1,1.017935086E1
2.909916474E0,1.190429255E-1,-1.016231823E1,-3.828516304E-1,1.017022411E1
2.912360172E0,1.190429255E-1,-1.016231823E1,-3.732803464E-1,1.016986830E1
2.914804755E0,1.190429255E-1,-1.016949654E1,-3.900300860E-1,1.017766940E1
2.917250068E0,1.190429255E-1,-1.015035343E1,-3.732803464E-1,1.015791239E1
2.919693766E0,1.142572835E-1,-1.015513897E1,-3.637090325E-1,1.016229238E1
2.922138349E0,1.214357466E-1,-1.017188931E1,-3.708875179E-1,1.017937308E1
2.924582880E0,1.166501045E-1,-1.017428207E1,-3.613162339E-1,1.018136397E1
2.927027411E0,1.214357466E-1,-1.016471100E1,-3.732803464E-1,1.017228758E1
2.929472776E0,1.070788130E-1,-1.016949654E1,-3.780659735E-1,1.017708502E1
2.931916474E0,9.750752151E-2,-1.017906761E1,-3.780659735E-1,1.018655285E1
2.934361057E0,9.990034252E-2,-1.016231823E1,-3.804588020E-1,1.016992826E1
2.936806370E0,1.190429255E-1,-1.016231823E1,-3.732803464E-1,1.016986830E1
2.939250068E0,8.554340899E-2,-1.017906761E1,-3.804588020E-1,1.018653445E1
2.941694651E0,1.286142170E-1,-1.015274620E1,-3.900300860E-1,1.016104918E1
2.944139182E0,1.022931710E-1,-1.015753174E1,-3.732803464E-1,1.016490301E1
2.946583713E0,9.032905847E-2,-1.015513897E1,-3.996013701E-1,1.016339944E1
2.949029026E0,1.070788130E-1,-1.016471100E1,-3.780659735E-1,1.017230305E1
2.951472724E0,1.190429255E-1,-1.017428207E1,-3.756731451E-1,1.018191128E1
2.953917307E0,1.118644550E-1,-1.016949654E1,-3.804588020E-1,1.017722567E1
2.956362620E0,1.070788130E-1,-1.016471100E1,-3.876372576E-1,1.017266328E1
2.958806318E0,1.046859920E-1,-1.017428207E1,-3.900300860E-1,1.018229337E1
2.961250901E0,1.070788130E-1,-1.017188931E1,-3.900300860E-1,1.017992738E1
2.963695432E0,1.142572835E-1,-1.016471100E1,-3.684946895E-1,1.017202992E1
2.966139963E0,1.142572835E-1,-1.017428207E1,-3.876372576E-1,1.018230490E1
2.968585328E0,1.094716340E-1,-1.017428207E1,-3.900300860E-1,1.018234370E1
2.971028974E0,1.214357466E-1,-1.017188931E1,-3.876372576E-1,1.017999712E1
2.973473609E0,1.118644550E-1,-1.017667484E1,-3.613162339E-1,1.018370139E1
2.975918922E0,9.990034252E-2,-1.017667484E1,-3.613162339E-1,1.018357699E1
2.978362620E0,1.118644550E-1,-1.018385315E1,-3.661018610E-1,1.019104554E1
2.980807203E0,1.190429255E-1,-1.018624592E1,-3.661018610E-1,1.019351793E1
2.983251734E0,1.118644550E-1,-1.017906761E1,-3.804588020E-1,1.018678948E1
2.985696266E0,1.142572835E-1,-1.017188931E1,-3.804588020E-1,1.017964320E1
2.988141578E0,1.094716340E-1,-1.017188931E1,-3.756731451E-1,1.017941287E1
2.990585276E0,1.070788130E-1,-1.016710377E1,-3.804588020E-1,1.017478323E1
2.993029859E0,1.094716340E-1,-1.015753174E1,-3.732803464E-1,1.016497778E1
2.995475172E0,1.262213886E-1,-1.018385315E1,-3.661018610E-1,1.019121324E1
2.997918870E0,9.750752151E-2,-1.016710377E1,-3.804588020E-1,1.017468700E1
3.000363453E0,9.750752151E-2,-1.016710377E1,-3.972085714E-1,1.017532709E1
3.002807984E0,1.046859920E-1,-1.017428207E1,-3.876372576E-1,1.018220200E1
3.005252516E0,1.094716340E-1,-1.017906761E1,-3.756731451E-1,1.018658588E1
3.007697880E0,1.094716340E-1,-1.015992451E1,-3.852444589E-1,1.016781507E1
3.010141526E0,9.990034252E-2,-1.016710377E1,-3.972085714E-1,1.017535030E1
3.012586161E0,1.214357466E-1,-1.019581699E1,-3.876372576E-1,1.020390579E1
3.015031474E0,1.046859920E-1,-1.018146038E1,-3.804588020E-1,1.018910416E1
3.017475172E0,1.262213886E-1,-1.016710377E1,-3.661018610E-1,1.017447598E1
3.019919755E0,1.094716340E-1,-1.017428207E1,-3.684946895E-1,1.018154154E1
3.022364286E0,1.070788130E-1,-1.017906761E1,-3.684946895E-1,1.018629823E1
3.024808818E0,1.142572835E-1,-1.015992451E1,-3.613162339E-1,1.016698924E1
3.027254130E0,1.166501045E-1,-1.017667484E1,-3.804588020E-1,1.018445222E1
3.029697828E0,1.022931710E-1,-1.016949654E1,-3.876372576E-1,1.017739585E1
3.032142411E0,1.046859920E-1,-1.018146038E1,-3.828516304E-1,1.018919379E1
3.034587724E0,1.262213886E-1,-1.017188931E1,-3.828516304E-1,1.017987423E1
3.037031422E0,1.238285750E-1,-1.014317513E1,-3.661018610E-1,1.015053524E1
3.039476005E0,1.238285750E-1,-1.018863869E1,-3.589234054E-1,1.019571076E1
3.041920536E0,1.166501045E-1,-1.015992451E1,-3.732803464E-1,1.016744862E1
3.044365068E0,9.750752151E-2,-1.016231823E1,-3.637090325E-1,1.016929220E1
3.046810432E0,9.511470050E-2,-1.016710377E1,-3.780659735E-1,1.017457516E1
3.049254078E0,1.190429255E-1,-1.017906761E1,-3.924229145E-1,1.018732469E1
3.051698713E0,9.990034252E-2,-1.017188931E1,-3.900300860E-1,1.017985440E1
3.054144026E0,1.214357466E-1,-1.018385315E1,-3.804588020E-1,1.019168095E1
3.056587724E0,1.118644550E-1,-1.016471100E1,-3.852444589E-1,1.017262388E1
3.059032307E0,1.094716340E-1,-1.017906761E1,-3.661018610E-1,1.018623738E1
3.061476838E0,1.070788130E-1,-1.017906761E1,-3.637090325E-1,1.018612623E1
3.063921370E0,1.022931710E-1,-1.016949654E1,-3.589234054E-1,1.017634265E1
3.066366682E0,1.118644550E-1,-1.017906761E1,-3.708875179E-1,1.018643650E1
3.068810380E0,1.286142170E-1,-1.015992451E1,-3.972085714E-1,1.016849951E1
3.071254963E0,1.094716340E-1,-1.014556789E1,-3.756731451E-1,1.015311096E1
3.073700276E0,1.118644550E-1,-1.016710377E1,-3.852444589E-1,1.017501479E1
3.076143974E0,1.094716340E-1,-1.017428207E1,-3.948157430E-1,1.018252814E1
3.078588557E0,1.262213886E-1,-1.016231823E1,-3.828516304E-1,1.017031066E1
3.081033088E0,1.214357466E-1,-1.017428207E1,-3.852444589E-1,1.018229717E1
3.083477620E0,1.190429255E-1,-1.016949654E1,-3.924229145E-1,1.017776138E1
3.085922984E0,1.022931710E-1,-1.015753174E1,-3.732803464E-1,1.016490301E1
3.088366630E0,1.022931710E-1,-1.017188931E1,-3.684946895E-1,1.017907581E1
3.090811213E0,9.272187948E-2,-1.018146038E1,-3.804588020E-1,1.018898826E1
3.093256578E0,1.190429255E-1,-1.015513897E1,-3.804588020E-1,1.016296057E1
3.095700276E0,1.142572835E-1,-1.016710377E1,-3.804588020E-1,1.017486131E1
3.098144859E0,1.166501045E-1,-1.017428207E1,-3.804588020E-1,1.018206128E1
3.100589391E0,1.094716340E-1,-1.015992451E1,-3.756731451E-1,1.016745693E1
3.103033922E0,1.046859920E-1,-1.016949654E1,-3.445664644E-1,1.017587072E1
3.105479234E0,1.094716340E-1,-1.015992451E1,-3.948157430E-1,1.016818221E1
3.107922932E0,9.511470050E-2,-1.015992451E1,-3.756731451E-1,1.016731248E1
3.110367516E0,9.990034252E-2,-1.017906761E1,-3.780659735E-1,1.018657604E1
3.112812828E0,9.511470050E-2,-1.016949654E1,-3.996013701E-1,1.017778895E1
3.115256526E0,1.214357466E-1,-1.018624592E1,-3.804588020E-1,1.019407188E1
3.117701109E0,1.070788130E-1,-1.016710377E1,-3.780659735E-1,1.017469404E1
3.120145641E0,1.142572835E-1,-1.016471100E1,-3.852444589E-1,1.017265048E1
3.122590172E0,1.238285750E-1,-1.017188931E1,-3.924229145E-1,1.018020930E1
3.125035484E0,8.315058798E-2,-1.016471100E1,-3.804588020E-1,1.017216853E1
3.127479182E0,1.118644550E-1,-1.016710377E1,-3.948157430E-1,1.017538167E1
3.129923818E0,1.262213886E-1,-1.016231823E1,-3.948157430E-1,1.017076807E1
3.132369130E0,1.214357466E-1,-1.015992451E1,-3.900300860E-1,1.016813336E1
3.134812828E0,9.032905847E-2,-1.017428207E1,-3.876372576E-1,1.018206451E1
3.137257411E0,1.118644550E-1,-1.016710377E1,-3.613162339E-1,1.017413692E1
3.139701943E0,1.214357466E-1,-1.017188931E1,-3.948157430E-1,1.018027299E1
3.142146474E0,9.750752151E-2,-1.016710377E1,-3.732803464E-1,1.017442111E1
3.144591786E0,1.142572835E-1,-1.018624592E1,-3.900300860E-1,1.019435060E1
3.147035484E0,1.094716340E-1,-1.016710377E1,-3.661018610E-1,1.017428197E1
3.149480068E0,9.990034252E-2,-1.016949654E1,-3.780659735E-1,1.017701203E1
3.151925380E0,1.118644550E-1,-1.017188931E1,-3.804588020E-1,1.017961662E1
3.154369078E0,1.070788130E-1,-1.018624592E1,-3.780659735E-1,1.019382194E1
3.156813661E0,1.286142170E-1,-1.017188931E1,-3.661018610E-1,1.017928800E1
3.159258193E0,1.142572835E-1,-1.017428207E1,-3.541377485E-1,1.018108462E1
3.161702724E0,1.142572835E-1,-1.018385315E1,-3.804588020E-1,1.019159794E1
3.164148088E0,1.310070455E-1,-1.017667484E1,-3.900300860E-1,1.018498882E1
3.166591734E0,1.190429255E-1,-1.016231823E1,-3.732803464E-1,1.016986830E1
3.169036318E0,9.032905847E-2,-1.017667484E1,-3.828516304E-1,1.018427443E1
3.171481682E0,1.190429255E-1,-1.017667484E1,-3.756731451E-1,1.018430225E1
3.173925328E0,9.990034252E-2,-1.016710377E1,-3.708875179E-1,1.017435682E1
3.176369963E0,1.022931710E-1,-1.018146038E1,-3.756731451E-1,1.018890228E1
3.178814495E0,9.750752151E-2,-1.016231823E1,-3.756731451E-1,1.016972713E1
3.181259026E0,1.286142170E-1,-1.016710377E1,-3.756731451E-1,1.017485484E1
3.183704338E0,1.190429255E-1,-1.017428207E1,-3.804588020E-1,1.018208897E1
3.186148036E0,1.238285750E-1,-1.017667484E1,-3.732803464E-1,1.018427133E1
3.188592620E0,1.190429255E-1,-1.017667484E1,-3.613162339E-1,1.018378277E1
3.191037932E0,1.118644550E-1,-1.018146038E1,-3.756731451E-1,1.018900287E1
3.193481630E0,1.142572835E-1,-1.015753174E1,-3.828516304E-1,1.016538642E1
3.195926213E0,9.990034252E-2,-1.017667484E1,-3.708875179E-1,1.018392108E1
3.198370745E0,1.214357466E-1,-1.018863869E1,-3.637090325E-1,1.019585157E1
3.200815276E0,1.214357466E-1,-1.015992451E1,-3.828516304E-1,1.016786054E1
3.203260588E0,1.166501045E-1,-1.017188931E1,-3.852444589E-1,1.017985032E1
3.205704286E0,1.046859920E-1,-1.017188931E1,-3.804588020E-1,1.017954027E1
3.208148870E0,1.190429255E-1,-1.016710377E1,-3.852444589E-1,1.017509624E1
3.210594234E0,1.166501045E-1,-1.017906761E1,-4.091726840E-1,1.018795598E1
3.213037880E0,1.310070455E-1,-1.016710377E1,-3.876372576E-1,1.017533412E1
3.215482516E0,1.070788130E-1,-1.015992451E1,-3.732803464E-1,1.016734331E1
3.217927047E0,1.094716340E-1,-1.017428207E1,-3.876372576E-1,1.018225232E1
3.220371578E0,1.022931710E-1,-1.015992451E1,-3.708875179E-1,1.016720647E1
3.222816891E0,9.750752151E-2,-1.017188931E1,-3.876372576E-1,1.017973980E1
3.225260588E0,1.094716340E-1,-1.015992451E1,-3.780659735E-1,1.016754562E1
3.227705172E0,1.022931710E-1,-1.016471100E1,-3.900300860E-1,1.017270549E1
3.230150484E0,1.310070455E-1,-1.014796066E1,-3.948157430E-1,1.015648305E1
3.232594182E0,1.142572835E-1,-1.015035343E1,-3.852444589E-1,1.015830413E1
3.235038766E0,1.214357466E-1,-1.016471100E1,-3.589234054E-1,1.017177086E1
3.237483297E0,9.272187948E-2,-1.017428207E1,-3.708875179E-1,1.018146211E1
3.239927828E0,9.990034252E-2,-1.015753174E1,-3.661018610E-1,1.016461813E1
3.242373141E0,8.554340899E-2,-1.015992451E1,-3.804588020E-1,1.016740540E1
3.244816838E0,1.022931710E-1,-1.017667484E1,-3.708875179E-1,1.018394483E1
3.247261422E0,1.118644550E-1,-1.017428207E1,-3.876372576E-1,1.018227833E1
3.249706786E0,1.286142170E-1,-1.017188931E1,-3.589234054E-1,1.017903235E1
3.252150432E0,1.357926875E-1,-1.017667484E1,-3.708875179E-1,1.018433641E1
3.254595068E0,1.094716340E-1,-1.016471100E1,-3.828516304E-1,1.017250751E1
3.257039547E0,1.166501045E-1,-1.017428207E1,-3.661018610E-1,1.018153493E1
3.259484130E0,1.022931710E-1,-1.016231823E1,-3.828516304E-1,1.017004184E1
3.261929443E0,1.118644550E-1,-1.017428207E1,-3.780659735E-1,1.018191845E1
3.264373141E0,1.286142170E-1,-1.016471100E1,-3.708875179E-1,1.017228828E1
3.266817724E0,9.990034252E-2,-1.018624592E1,-3.876372576E-1,1.019410853E1
3.269263036E0,1.142572835E-1,-1.017188931E1,-4.019941986E-1,1.018047082E1
3.271706734E0,1.214357466E-1,-1.015274620E1,-4.043870270E-1,1.016152208E1
3.274151318E0,1.142572835E-1,-1.015274620E1,-3.708875179E-1,1.016016081E1
3.276595849E0,1.070788130E-1,-1.016949654E1,-3.637090325E-1,1.017656179E1
3.279040380E0,1.190429255E-1,-1.017667484E1,-3.613162339E-1,1.018378277E1
3.281485693E0,1.238285750E-1,-1.015513897E1,-3.661018610E-1,1.016249042E1
3.283929391E0,1.262213886E-1,-1.016949654E1,-3.852444589E-1,1.017757363E1
3.286373974E0,1.070788130E-1,-1.016949654E1,-3.804588020E-1,1.017717419E1
3.288819338E0,1.118644550E-1,-1.017428207E1,-3.684946895E-1,1.018156755E1
3.291262984E0,1.094716340E-1,-1.017667484E1,-3.732803464E-1,1.018410689E1
3.293707568E0,1.022931710E-1,-1.015992451E1,-3.804588020E-1,1.016756012E1
3.296152099E0,9.990034252E-2,-1.016231823E1,-3.661018610E-1,1.016940128E1
3.298596682E0,1.118644550E-1,-1.018624592E1,-3.828516304E-1,1.019405194E1
3.301041995E0,1.166501045E-1,-1.016949654E1,-3.924229145E-1,1.017773368E1
3.303485693E0,1.070788130E-1,-1.015513897E1,-3.828516304E-1,1.016291733E1
3.305930276E0,1.022931710E-1,-1.016471100E1,-3.804588020E-1,1.017234302E1
3.308375588E0,1.022931710E-1,-1.018624592E1,-3.828516304E-1,1.019395140E1
3.310819286E0,1.453639716E-1,-1.018146038E1,-3.828516304E-1,1.018969291E1
3.313263870E0,1.238285750E-1,-1.016471100E1,-3.828516304E-1,1.017267215E1
3.315708401E0,1.094716340E-1,-1.018146038E1,-3.900300860E-1,1.018951633E1
3.318152932E0,9.032905847E-2,-1.019103146E1,-3.828516304E-1,1.019862034E1
3.320598245E0,1.262213886E-1,-1.016471100E1,-3.924229145E-1,1.017306627E1
3.323041943E0,1.214357466E-1,-1.017188931E1,-3.972085714E-1,1.018036607E1
3.325486526E0,1.142572835E-1,-1.015753174E1,-3.996013701E-1,1.016603103E1
3.327931838E0,1.142572835E-1,-1.014796066E1,-3.637090325E-1,1.015511913E1
3.330375536E0,1.214357466E-1,-1.015274620E1,-3.828516304E-1,1.016068784E1
3.332820120E0,1.190429255E-1,-1.015753174E1,-3.804588020E-1,1.016535150E1
3.335264651E0,1.118644550E-1,-1.016949654E1,-3.852444589E-1,1.017740570E1
3.337709182E0,9.990034252E-2,-1.016949654E1,-3.876372576E-1,1.017737208E1
3.340154547E0,1.094716340E-1,-1.016471100E1,-3.756731451E-1,1.017223987E1
3.342598193E0,1.046859920E-1,-1.018624592E1,-3.900300860E-1,1.019424782E1
3.345042828E0,8.793623000E-2,-1.018146038E1,-3.541377485E-1,1.018799695E1
3.347488141E0,9.511470050E-2,-1.016710377E1,-3.996013701E-1,1.017539813E1
3.349931838E0,1.070788130E-1,-1.018146038E1,-3.828516304E-1,1.018921865E1
3.352376422E0,9.511470050E-2,-1.016231823E1,-3.852444589E-1,1.017006253E1
3.354820953E0,1.238285750E-1,-1.016949654E1,-3.804588020E-1,1.017736421E1
3.357265484E0,1.214357466E-1,-1.015035343E1,-3.804588020E-1,1.015820704E1
3.359710797E0,1.166501045E-1,-1.017428207E1,-3.996013701E-1,1.018279452E1
3.362154495E0,1.142572835E-1,-1.017188931E1,-3.852444589E-1,1.017982318E1
3.364599078E0,1.214357466E-1,-1.017188931E1,-3.708875179E-1,1.017937308E1
3.367044391E0,1.214357466E-1,-1.016471100E1,-3.780659735E-1,1.017246431E1
3.369488088E0,1.262213886E-1,-1.018146038E1,-3.852444589E-1,1.018952799E1
3.371932672E0,1.381855011E-1,-1.017667484E1,-3.876372576E-1,1.018499233E1
3.374377203E0,1.238285750E-1,-1.017906761E1,-3.684946895E-1,1.018648807E1
3.376821734E0,9.990034252E-2,-1.018146038E1,-3.780659735E-1,1.018896704E1
3.379267099E0,1.142572835E-1,-1.015753174E1,-3.661018610E-1,1.016476937E1
3.381710797E0,9.511470050E-2,-1.016471100E1,-3.613162339E-1,1.017157539E1
3.384155380E0,1.070788130E-1,-1.017428207E1,-3.828516304E-1,1.018204581E1
3.386600693E0,1.046859920E-1,-1.017906761E1,-3.732803464E-1,1.018644761E1
3.389044391E0,1.262213886E-1,-1.017428207E1,-3.756731451E-1,1.018199773E1
3.391488974E0,1.190429255E-1,-1.016949654E1,-3.780659735E-1,1.017721794E1
3.393933505E0,9.990034252E-2,-1.016710377E1,-3.780659735E-1,1.017462102E1
3.396378036E0,1.238285750E-1,-1.017906761E1,-3.756731451E-1,1.018675028E1
3.398823349E0,1.094716340E-1,-1.017428207E1,-3.708875179E-1,1.018162842E1
3.401267047E0,1.070788130E-1,-1.016710377E1,-3.589234054E-1,1.017400073E1
3.403711630E0,1.333998591E-1,-1.020060253E1,-3.924229145E-1,1.020901970E1
3.406156943E0,1.142572835E-1,-1.017667484E1,-3.708875179E-1,1.018407203E1
3.408600641E0,1.166501045E-1,-1.018385315E1,-3.780659735E-1,1.019153600E1
3.411045224E0,9.990034252E-2,-1.018385315E1,-3.756731451E-1,1.019126957E1
3.413489755E0,9.750752151E-2,-1.017667484E1,-3.996013701E-1,1.018498404E1
3.415934286E0,1.118644550E-1,-1.015992451E1,-3.828516304E-1,1.016775074E1
3.418379651E0,1.046859920E-1,-1.019103146E1,-3.708875179E-1,1.019831549E1
3.420823297E0,1.070788130E-1,-1.018385315E1,-3.661018610E-1,1.019099413E1
3.423267880E0,1.142572835E-1,-1.016471100E1,-3.852444589E-1,1.017265048E1
3.425713245E0,1.262213886E-1,-1.016231823E1,-4.043870270E-1,1.017114411E1
3.428156891E0,8.554340899E-2,-1.015992451E1,-3.804588020E-1,1.016740540E1
3.430601526E0,1.214357466E-1,-1.017667484E1,-3.732803464E-1,1.018424252E1
3.433046057E0,1.022931710E-1,-1.017906761E1,-3.708875179E-1,1.018633589E1
3.435490588E0,9.272187948E-2,-1.016949654E1,-3.852444589E-1,1.017721329E1
3.437935901E0,1.142572835E-1,-1.017188931E1,-3.828516304E-1,1.017973291E1
3.440379599E0,1.190429255E-1,-1.016949654E1,-3.828516304E-1,1.017739684E1
3.442824182E0,1.094716340E-1,-1.017428207E1,-3.541377485E-1,1.018103204E1
3.445269495E0,1.142572835E-1,-1.016710377E1,-3.637090325E-1,1.017424877E1
3.447713193E0,9.990034252E-2,-1.017906761E1,-3.661018610E-1,1.018613902E1
3.450157776E0,1.094716340E-1,-1.017667484E1,-3.517449200E-1,1.018334029E1
3.452602307E0,1.094716340E-1,-1.018863869E1,-3.780659735E-1,1.019623834E1
3.455046838E0,9.990034252E-2,-1.016231823E1,-3.780659735E-1,1.016983902E1
3.457492203E0,8.554340899E-2,-1.016949654E1,-3.708875179E-1,1.017661707E1
3.459935849E0,1.022931710E-1,-1.016471100E1,-3.924229145E-1,1.017279752E1
3.462380432E0,1.118644550E-1,-1.018385315E1,-3.756731451E-1,1.019139387E1
3.464825797E0,1.190429255E-1,-1.015992451E1,-3.828516304E-1,1.016783225E1
3.467269495E0,1.166501045E-1,-1.015035343E1,-3.637090325E-1,1.015753741E1
3.469714078E0,1.238285750E-1,-1.015513897E1,-3.780659735E-1,1.016292846E1
3.472158609E0,1.142572835E-1,-1.018863869E1,-3.780659735E-1,1.019629084E1
3.474603141E0,1.238285750E-1,-1.015992451E1,-3.756731451E-1,1.016762164E1
3.477048453E0,1.118644550E-1,-1.016949654E1,-3.756731451E-1,1.017704789E1
3.479492151E0,1.310070455E-1,-1.016471100E1,-3.804588020E-1,1.017267229E1
3.481936734E0,1.046859920E-1,-1.015753174E1,-3.589234054E-1,1.016441027E1
3.484382047E0,1.166501045E-1,-1.016231823E1,-3.637090325E-1,1.016949376E1
3.486825745E0,9.511470050E-2,-1.016471100E1,-3.661018610E-1,1.017174651E1
3.489270328E0,1.070788130E-1,-1.016471100E1,-3.780659735E-1,1.017230305E1
3.491714859E0,1.046859920E-1,-1.016710377E1,-3.708875179E-1,1.017440493E1
3.494159391E0,1.262213886E-1,-1.017428207E1,-3.565305769E-1,1.018130943E1
3.496604703E0,1.070788130E-1,-1.018385315E1,-3.732803464E-1,1.019125454E1
3.499048401E0,1.070788130E-1,-1.018146038E1,-3.852444589E-1,1.018930884E1
3.501492984E0,1.214357466E-1,-1.018146038E1,-3.780659735E-1,1.018920095E1
3.503938297E0,1.118644550E-1,-1.016471100E1,-3.589234054E-1,1.017166109E1
3.506381995E0,1.022931710E-1,-1.016949654E1,-3.852444589E-1,1.017730500E1
3.508826578E0,1.022931710E-1,-1.017188931E1,-3.684946895E-1,1.017907581E1
3.511271161E0,1.214357466E-1,-1.016710377E1,-3.708875179E-1,1.017459106E1
3.513715693E0,1.094716340E-1,-1.014796066E1,-3.948157430E-1,1.015622810E1
3.516161005E0,1.142572835E-1,-1.016949654E1,-3.780659735E-1,1.017716308E1
3.518604703E0,1.094716340E-1,-1.017188931E1,-3.756731451E-1,1.017941287E1
3.521049286E0,1.118644550E-1,-1.019342422E1,-3.541377485E-1,1.020018748E1
3.523494599E0,1.190429255E-1,-1.015513897E1,-3.732803464E-1,1.016269437E1
3.525938297E0,1.094716340E-1,-1.016710377E1,-3.828516304E-1,1.017489845E1
3.528382880E0,1.118644550E-1,-1.015753174E1,-3.756731451E-1,1.016509198E1
3.530827411E0,9.750752151E-2,-1.015992451E1,-3.828516304E-1,1.016760292E1
3.533271943E0,1.022931710E-1,-1.016710377E1,-3.756731451E-1,1.017455617E1
3.535717255E0,1.286142170E-1,-1.017428207E1,-3.732803464E-1,1.018193968E1
3.538160953E0,1.070788130E-1,-1.016231823E1,-3.684946895E-1,1.016956076E1
3.540605536E0,1.214357466E-1,-1.015753174E1,-3.828516304E-1,1.016546964E1
3.543050849E0,1.046859920E-1,-1.016231823E1,-3.732803464E-1,1.016971038E1
3.545494547E0,1.262213886E-1,-1.016949654E1,-3.613162339E-1,1.017669598E1
3.547939130E0,1.094716340E-1,-1.016949654E1,-3.684946895E-1,1.017675941E1
3.550383661E0,9.511470050E-2,-1.015274620E1,-3.756731451E-1,1.016013940E1
3.552828193E0,1.022931710E-1,-1.017667484E1,-3.732803464E-1,1.018403225E1
3.555273557E0,1.142572835E-1,-1.016710377E1,-3.708875179E-1,1.017450791E1
3.557717255E0,1.214357466E-1,-1.015753174E1,-3.876372576E-1,1.016565100E1
3.560161838E0,1.214357466E-1,-1.014796066E1,-3.708875179E-1,1.015546207E1
3.562607151E0,1.310070455E-1,-1.017667484E1,-3.828516304E-1,1.018471645E1
3.565050849E0,1.118644550E-1,-1.016231823E1,-3.732803464E-1,1.016978681E1
3.567495432E0,1.142572835E-1,-1.016471100E1,-3.804588020E-1,1.017247036E1
3.569939963E0,1.166501045E-1,-1.015035343E1,-3.732803464E-1,1.015788463E1
3.572384495E0,1.190429255E-1,-1.017906761E1,-3.589234054E-1,1.018608927E1
3.574829807E0,1.046859920E-1,-1.016710377E1,-3.852444589E-1,1.017493840E1
3.577273505E0,9.272187948E-2,-1.015274620E1,-3.828516304E-1,1.016038524E1
3.579718088E0,9.750752151E-2,-1.015753174E1,-3.756731451E-1,1.016494412E1
3.582163401E0,1.022931710E-1,-1.015753174E1,-3.684946895E-1,1.016472839E1
3.584607099E0,1.166501045E-1,-1.016710377E1,-3.732803464E-1,1.017462257E1
3.587051682E0,1.070788130E-1,-1.018624592E1,-3.589234054E-1,1.019312993E1
3.589496213E0,1.118644550E-1,-1.016471100E1,-3.684946895E-1,1.017200333E1
3.591940745E0,1.310070455E-1,-1.018385315E1,-3.924229145E-1,1.019225311E1
3.594386109E0,1.166501045E-1,-1.015753174E1,-3.684946895E-1,1.016488301E1
3.596829755E0,1.333998591E-1,-1.015992451E1,-3.756731451E-1,1.016774271E1
3.599274391E0,9.990034252E-2,-1.016710377E1,-3.828516304E-1,1.017479997E1
3.601719703E0,1.214357466E-1,-1.016949654E1,-3.804588020E-1,1.017733538E1
3.604163401E0,9.511470050E-2,-1.017667484E1,-3.804588020E-1,1.018422832E1
3.606607984E0,1.118644550E-1,-1.016710377E1,-3.804588020E-1,1.017483472E1
3.609052516E0,1.022931710E-1,-1.017667484E1,-3.852444589E-1,1.018447780E1
3.611497047E0,1.022931710E-1,-1.017188931E1,-3.828516304E-1,1.017960566E1
3.613942359E0,1.214357466E-1,-1.017188931E1,-3.852444589E-1,1.017990628E1
3.616386057E0,1.190429255E-1,-1.016471100E1,-3.732803464E-1,1.017225929E1
3.618830641E0,1.094716340E-1,-1.015753174E1,-3.828516304E-1,1.016533376E1
3.621275953E0,1.022931710E-1,-1.016231823E1,-3.756731451E-1,1.016977414E1
3.623719651E0,1.046859920E-1,-1.015035343E1,-3.852444589E-1,1.015820098E1
3.626164234E0,1.094716340E-1,-1.016231823E1,-3.852444589E-1,1.017020694E1
3.628608766E0,1.166501045E-1,-1.017188931E1,-3.732803464E-1,1.017940457E1
3.631053297E0,1.022931710E-1,-1.016471100E1,-3.756731451E-1,1.017216515E1
3.633498661E0,1.214357466E-1,-1.017188931E1,-4.019941986E-1,1.018055391E1
3.635942307E0,1.118644550E-1,-1.017906761E1,-3.852444589E-1,1.018696934E1
3.638386891E0,1.214357466E-1,-1.014556789E1,-3.732803464E-1,1.015315876E1
3.640832255E0,9.272187948E-2,-1.017667484E1,-3.780659735E-1,1.018411715E1
3.643275901E0,1.094716340E-1,-1.016471100E1,-3.756731451E-1,1.017223987E1
3.645720536E0,1.142572835E-1,-1.015992451E1,-3.732803464E-1,1.016742145E1
3.648165068E0,1.094716340E-1,-1.017188931E1,-3.732803464E-1,1.017932484E1
3.650609599E0,1.142572835E-1,-1.017428207E1,-3.589234054E-1,1.018125220E1
3.653054911E0,9.511470050E-2,-1.015513897E1,-3.876372576E-1,1.016297973E1
3.655498609E0,9.990034252E-2,-1.017188931E1,-4.019941986E-1,1.018031981E1
3.657943193E0,1.070788130E-1,-1.017428207E1,-3.828516304E-1,1.018204581E1
3.660388505E0,1.118644550E-1,-1.018146038E1,-3.828516304E-1,1.018927007E1
3.662832203E0,1.094716340E-1,-1.017188931E1,-3.780659735E-1,1.017950146E1
3.665276786E0,1.262213886E-1,-1.017428207E1,-3.852444589E-1,1.018235537E1
3.667721318E0,1.046859920E-1,-1.019103146E1,-3.948157430E-1,1.019921373E1
3.670165849E0,1.190429255E-1,-1.017428207E1,-3.924229145E-1,1.018254304E1
3.672611161E0,1.190429255E-1,-1.016710377E1,-3.756731451E-1,1.017473835E1
3.675054859E0,1.166501045E-1,-1.015513897E1,-3.756731451E-1,1.016275480E1
3.677499443E0,1.046859920E-1,-1.016471100E1,-3.852444589E-1,1.017254748E1
3.679944807E0,1.046859920E-1,-1.015992451E1,-3.804588020E-1,1.016758447E1
3.682388453E0,1.118644550E-1,-1.015992451E1,-3.852444589E-1,1.016784112E1
3.684833036E0,1.166501045E-1,-1.017906761E1,-3.756731451E-1,1.018666555E1
3.687277568E0,9.511470050E-2,-1.016949654E1,-3.948157430E-1,1.017760218E1
3.689722151E0,1.070788130E-1,-1.017667484E1,-3.996013701E-1,1.018508017E1
3.692167463E0,1.166501045E-1,-1.016949654E1,-3.684946895E-1,1.017683916E1
3.694611161E0,1.190429255E-1,-1.017188931E1,-3.637090325E-1,1.017908579E1
3.697055745E0,1.142572835E-1,-1.016710377E1,-3.613162339E-1,1.017416351E1
3.699501057E0,1.022931710E-1,-1.018146038E1,-3.924229145E-1,1.018953361E1
3.701944755E0,9.990034252E-2,-1.015753174E1,-3.804588020E-1,1.016514535E1
3.704389338E0,1.142572835E-1,-1.015992451E1,-4.067798555E-1,1.016870644E1
3.706833870E0,1.238285750E-1,-1.016710377E1,-3.780659735E-1,1.017488410E1
3.709278401E0,1.333998591E-1,-1.018385315E1,-3.613162339E-1,1.019113389E1
3.711723713E0,1.262213886E-1,-1.016471100E1,-4.019941986E-1,1.017343997E1
3.714167411E0,1.070788130E-1,-1.016949654E1,-3.732803464E-1,1.017690837E1
3.716611995E0,9.032905847E-2,-1.017188931E1,-3.589234054E-1,1.017862060E1
3.719057307E0,1.118644550E-1,-1.018385315E1,-3.708875179E-1,1.019121858E1
3.721501005E0,1.094716340E-1,-1.015513897E1,-3.493520916E-1,1.016173599E1
3.723945588E0,9.990034252E-2,-1.017188931E1,-3.996013701E-1,1.018022561E1
3.726390120E0,9.511470050E-2,-1.016949654E1,-3.517449200E-1,1.017602236E1
3.728834651E0,1.022931710E-1,-1.015753174E1,-3.804588020E-1,1.016516915E1
3.731280016E0,1.190429255E-1,-1.016710377E1,-3.972085714E-1,1.017555624E1
3.733723713E0,1.046859920E-1,-1.015992451E1,-3.852444589E-1,1.016776467E1
3.736168245E0,1.190429255E-1,-1.018146038E1,-3.613162339E-1,1.018856497E1
3.738613609E0,1.118644550E-1,-1.016471100E1,-3.708875179E-1,1.017209029E1
3.741057307E0,1.118644550E-1,-1.015992451E1,-3.684946895E-1,1.016722027E1
3.743501891E0,1.094716340E-1,-1.014317513E1,-3.732803464E-1,1.015063170E1
3.745946422E0,1.166501045E-1,-1.017428207E1,-3.828516304E-1,1.018215097E1
3.748390953E0,1.022931710E-1,-1.016710377E1,-3.900300860E-1,1.017509638E1
3.750836266E0,9.990034252E-2,-1.016949654E1,-3.637090325E-1,1.017648879E1
3.753279963E0,1.238285750E-1,-1.017667484E1,-3.541377485E-1,1.018358767E1
3.755724547E0,1.166501045E-1,-1.014556789E1,-3.708875179E-1,1.015301496E1
3.758169859E0,1.190429255E-1,-1.016949654E1,-3.684946895E-1,1.017686687E1
3.760613557E0,1.118644550E-1,-1.015753174E1,-3.708875179E-1,1.016491624E1
3.763058141E0,1.046859920E-1,-1.016949654E1,-3.684946895E-1,1.017670906E1
3.765502672E0,1.118644550E-1,-1.017667484E1,-3.732803464E-1,1.018413289E1
3.767947203E0,9.750752151E-2,-1.017906761E1,-3.684946895E-1,1.018620211E1
3.770392568E0,1.190429255E-1,-1.017906761E1,-3.756731451E-1,1.018669323E1
3.772836213E0,1.094716340E-1,-1.017188931E1,-3.756731451E-1,1.017941287E1
3.775280797E0,1.070788130E-1,-1.017188931E1,-3.852444589E-1,1.017974514E1
3.777726161E0,1.022931710E-1,-1.014796066E1,-3.804588020E-1,1.015560527E1
3.780169807E0,1.142572835E-1,-1.016471100E1,-3.780659735E-1,1.017238115E1
3.782614443E0,1.118644550E-1,-1.016710377E1,-3.852444589E-1,1.017501479E1
3.785058974E0,1.070788130E-1,-1.018385315E1,-3.517449200E-1,1.019048847E1
3.787503505E0,9.272187948E-2,-1.017188931E1,-3.900300860E-1,1.017978648E1
3.789948818E0,9.511470050E-2,-1.017188931E1,-3.876372576E-1,1.017971716E1
3.792392516E0,1.022931710E-1,-1.017188931E1,-3.756731451E-1,1.017933820E1
3.794837099E0,1.166501045E-1,-1.018385315E1,-3.684946895E-1,1.019118543E1
3.797282411E0,1.118644550E-1,-1.017906761E1,-3.780659735E-1,1.018670040E1
3.799726109E0,1.118644550E-1,-1.017188931E1,-3.756731451E-1,1.017943888E1
3.802170693E0,1.070788130E-1,-1.017667484E1,-3.780659735E-1,1.018425798E1
3.804615224E0,1.118644550E-1,-1.017188931E1,-3.613162339E-1,1.017891915E1
3.807059755E0,1.286142170E-1,-1.017428207E1,-3.445664644E-1,1.018092743E1
3.809505120E0,1.070788130E-1,-1.018624592E1,-3.684946895E-1,1.019347145E1
3.811948766E0,1.118644550E-1,-1.017188931E1,-3.661018610E-1,1.017909015E1
3.814393349E0,1.070788130E-1,-1.015274620E1,-3.756731451E-1,1.016025844E1
3.816838661E0,1.262213886E-1,-1.016710377E1,-3.852444589E-1,1.017518276E1
3.819282359E0,1.142572835E-1,-1.015753174E1,-3.637090325E-1,1.016468347E1
3.821726943E0,1.094716340E-1,-1.016231823E1,-3.732803464E-1,1.016976077E1
3.824171474E0,1.118644550E-1,-1.015274620E1,-3.852444589E-1,1.016066840E1
3.826616005E0,1.046859920E-1,-1.017188931E1,-3.852444589E-1,1.017972026E1
3.829061370E0,1.118644550E-1,-1.016949654E1,-3.732803464E-1,1.017695984E1
3.831505068E0,1.190429255E-1,-1.017188931E1,-3.948157430E-1,1.018024473E1
3.833949651E0,1.190429255E-1,-1.017428207E1,-3.804588020E-1,1.018208897E1
3.836394963E0,1.142572835E-1,-1.015992451E1,-3.828516304E-1,1.016777734E1
3.838838661E0,1.046859920E-1,-1.018385315E1,-3.972085714E-1,1.019213416E1
3.841283245E0,1.142572835E-1,-1.016231823E1,-3.804588020E-1,1.017007942E1
3.843727776E0,1.118644550E-1,-1.018146038E1,-3.804588020E-1,1.018918044E1
3.846172307E0,1.190429255E-1,-1.015992451E1,-3.661018610E-1,1.016721534E1
3.848617620E0,1.142572835E-1,-1.017188931E1,-3.708875179E-1,1.017928997E1
3.851061318E0,1.118644550E-1,-1.019103146E1,-3.756731451E-1,1.019856687E1
3.853505901E0,1.118644550E-1,-1.016710377E1,-3.684946895E-1,1.017439438E1
3.855951213E0,1.046859920E-1,-1.015274620E1,-3.756731451E-1,1.016023351E1
3.858394911E0,1.070788130E-1,-1.016231823E1,-3.804588020E-1,1.017000131E1
3.860839495E0,1.046859920E-1,-1.018146038E1,-3.613162339E-1,1.018840734E1
3.863284026E0,1.022931710E-1,-1.016710377E1,-3.517449200E-1,1.017370077E1
3.865728557E0,1.046859920E-1,-1.016231823E1,-3.732803464E-1,1.016971038E1
3.868173922E0,9.990034252E-2,-1.015035343E1,-3.613162339E-1,1.015727347E1
3.870617568E0,1.190429255E-1,-1.016710377E1,-3.589234054E-1,1.017413369E1
3.873062203E0,1.046859920E-1,-1.016231823E1,-3.780659735E-1,1.016988716E1
3.875507516E0,1.310070455E-1,-1.016710377E1,-3.756731451E-1,1.017488536E1
3.877951213E0,1.190429255E-1,-1.016710377E1,-3.828516304E-1,1.017500593E1
3.880395797E0,9.750752151E-2,-1.016949654E1,-3.828516304E-1,1.017716772E1
3.882840328E0,9.032905847E-2,-1.015753174E1,-3.708875179E-1,1.016470206E1
3.885284859E0,9.990034252E-2,-1.017667484E1,-3.756731451E-1,1.018409649E1
3.887730172E0,1.166501045E-1,-1.016710377E1,-3.756731451E-1,1.017471064E1
3.890173870E0,1.166501045E-1,-1.017188931E1,-3.565305769E-1,1.017880412E1
3.892618453E0,1.286142170E-1,-1.016710377E1,-3.732803464E-1,1.017476677E1
3.895063766E0,1.166501045E-1,-1.014796066E1,-3.948157430E-1,1.015630801E1
3.897507463E0,1.046859920E-1,-1.014796066E1,-3.804588020E-1,1.015562965E1
3.899952047E0,1.262213886E-1,-1.016471100E1,-3.684946895E-1,1.017217134E1
3.902396578E0,1.118644550E-1,-1.017428207E1,-3.876372576E-1,1.018227833E1
3.904841109E0,1.286142170E-1,-1.018863869E1,-4.019941986E-1,1.019737708E1
3.907286422E0,1.214357466E-1,-1.019103146E1,-3.756731451E-1,1.019867634E1
3.909730120E0,1.262213886E-1,-1.017428207E1,-3.852444589E-1,1.018235537E1
3.912174703E0,1.094716340E-1,-1.018863869E1,-3.756731451E-1,1.019614989E1
3.914620068E0,1.094716340E-1,-1.016471100E1,-3.756731451E-1,1.017223987E1
3.917063713E0,1.046859920E-1,-1.016471100E1,-3.732803464E-1,1.017210141E1
3.919508297E0,8.075776696E-2,-1.015992451E1,-3.780659735E-1,1.016727700E1
3.921952880E0,1.094716340E-1,-1.019103146E1,-3.637090325E-1,1.019810720E1
3.924397411E0,1.142572835E-1,-1.018146038E1,-3.661018610E-1,1.018868101E1
3.926842724E0,1.070788130E-1,-1.016231823E1,-3.756731451E-1,1.016982340E1
3.929286422E0,1.262213886E-1,-1.015992451E1,-3.756731451E-1,1.016765106E1
3.931731005E0,1.094716340E-1,-1.016231823E1,-3.780659735E-1,1.016993755E1
3.934176318E0,1.046859920E-1,-1.016710377E1,-3.708875179E-1,1.017440493E1
3.936620016E0,1.046859920E-1,-1.017428207E1,-3.828516304E-1,1.018202093E1
3.939064599E0,1.238285750E-1,-1.016949654E1,-3.828516304E-1,1.017745394E1
3.941509130E0,1.262213886E-1,-1.018863869E1,-3.732803464E-1,1.019625560E1
3.943953661E0,1.333998591E-1,-1.017188931E1,-3.565305769E-1,1.017900985E1
3.946398974E0,1.118644550E-1,-1.016710377E1,-3.708875179E-1,1.017448132E1
3.948842672E0,9.511470050E-2,-1.017667484E1,-3.708875179E-1,1.018387526E1
3.951287255E0,1.190429255E-1,-1.017188931E1,-3.804588020E-1,1.017969804E1
3.953732568E0,1.094716340E-1,-1.016231823E1,-3.876372576E-1,1.017029786E1
3.956176266E0,1.262213886E-1,-1.017188931E1,-3.876372576E-1,1.018005533E1
3.958620849E0,1.094716340E-1,-1.017906761E1,-3.828516304E-1,1.018685314E1
3.961065380E0,9.990034252E-2,-1.015753174E1,-3.661018610E-1,1.016461813E1
3.963509911E0,1.238285750E-1,-1.017428207E1,-3.804588020E-1,1.018214605E1
3.965955276E0,1.070788130E-1,-1.016471100E1,-3.756731451E-1,1.017221440E1
