"Time (s)","Acceleration x (m/s^2)","Acceleration y (m/s^2)","Acceleration z (m/s^2)","Absolute acceleration (m/s^2)"
2.608344400E-2,-5.982056609E-4,9.586544991E0,-3.972085714E-1,9.594770443E0
2.852875700E-2,6.580262445E-3,9.586544991E0,-4.187439680E-1,9.595688337E0
3.097318400E-2,6.580262445E-3,9.591330528E0,-4.067798555E-1,9.599954919E0
3.341688200E-2,-2.991028363E-3,9.562616348E0,-4.187439680E-1,9.571780758E0
3.586146500E-2,1.136590727E-2,9.588937759E0,-4.139583111E-1,9.597875704E0
3.830672600E-2,-5.982056609E-4,9.557830811E0,-3.924229145E-1,9.565883436E0
4.075120500E-2,8.973085321E-3,9.584152222E0,-4.163511395E-1,9.593195640E0
4.319490300E-2,-5.982056609E-4,9.588937759E0,-4.091726840E-1,9.597663778E0
4.563938200E-2,4.187439568E-3,9.586544991E0,-4.187439680E-1,9.595686995E0
4.808474600E-2,-5.982056609E-4,9.574581146E0,-4.259224236E-1,9.584050000E0
5.052917300E-2,-7.776673418E-3,9.574581146E0,-4.139583111E-1,9.583528895E0
5.297292300E-2,-5.982056609E-4,9.565009117E0,-4.115654826E-1,9.573859510E0
5.541740300E-2,2.093719877E-2,9.569794655E0,-3.948157430E-1,9.577958424E0
5.786276700E-2,1.136590727E-2,9.600901604E0,-4.259224236E-1,9.610351227E0
6.030719400E-2,3.290131316E-2,9.572187424E0,-4.019941986E-1,9.580681286E0
6.275089200E-2,1.854437590E-2,9.569794655E0,-4.091726840E-1,9.578556045E0
6.519547600E-2,1.794616925E-3,9.584152222E0,-3.996013701E-1,9.592479256E0
6.764073600E-2,2.093719877E-2,9.567401886E0,-4.091726840E-1,9.576170398E0
7.008521500E-2,1.375873014E-2,9.584152222E0,-4.067798555E-1,9.592790676E0
7.252891300E-2,4.187439568E-3,9.579366684E0,-4.163511395E-1,9.588411332E0
7.497349600E-2,-5.982056609E-4,9.593723297E0,-4.115654826E-1,9.602547225E0
7.741875700E-2,6.580262445E-3,9.569794655E0,-3.900300860E-1,9.577741723E0
7.986323600E-2,2.093719877E-2,9.593723297E0,-4.019941986E-1,9.602164569E0
8.230693400E-2,1.375873014E-2,9.576973915E0,-4.211367965E-1,9.586238828E0
8.475141300E-2,2.093719877E-2,9.584152222E0,-3.900300860E-1,9.592107987E0
8.719677800E-2,1.794616925E-3,9.567401886E0,-4.019941986E-1,9.575843639E0
8.964120500E-2,1.375873014E-2,9.581759453E0,-4.115654826E-1,9.590604239E0
9.208495500E-2,1.615155302E-2,9.574581146E0,-4.163511395E-1,9.583643006E0
9.452943400E-2,1.854437590E-2,9.586544991E0,-4.211367965E-1,9.595808718E0
9.697479800E-2,-2.991028363E-3,9.591330528E0,-3.972085714E-1,9.599552328E0
9.941922600E-2,-5.982056609E-4,9.569794655E0,-4.067798555E-1,9.578436195E0
1.018629230E-1,-5.982056609E-4,9.576973915E0,-4.067798555E-1,9.585608983E0
1.043075070E-1,2.093719877E-2,9.596116066E0,-3.996013701E-1,9.604455381E0
1.067528190E-1,8.973085321E-3,9.586544991E0,-4.091726840E-1,9.595277362E0
1.091972460E-1,-2.991028363E-3,9.588937759E0,-4.163511395E-1,9.597972941E0
1.116409440E-1,1.794616925E-3,9.576973915E0,-4.067798555E-1,9.585609133E0
1.140854230E-1,1.854437590E-2,9.579366684E0,-3.996013701E-1,9.587715641E0
1.165307880E-1,8.973085321E-3,9.588937759E0,-3.996013701E-1,9.597264669E0
1.189752670E-1,1.375873014E-2,9.572187424E0,-4.187439680E-1,9.581352091E0
1.214189650E-1,-7.776673418E-3,9.576973915E0,-4.043870270E-1,9.585510874E0
1.238634440E-1,1.794616925E-3,9.569794655E0,-4.043870270E-1,9.578335024E0
1.263088090E-1,1.854437590E-2,9.579366684E0,-4.307080805E-1,9.589062489E0
1.287532360E-1,-5.383851007E-3,9.576973915E0,-4.259224236E-1,9.586441898E0
1.311969860E-1,-5.982056609E-4,9.576973915E0,-3.972085714E-1,9.585207581E0
1.336414650E-1,-7.776673418E-3,9.576973915E0,-4.067798555E-1,9.585612119E0
1.360868300E-1,-1.734796353E-2,9.591330528E0,-4.091726840E-1,9.600070028E0
1.385312570E-1,8.973085321E-3,9.591330528E0,-4.091726840E-1,9.600058547E0
1.409749550E-1,-1.016949583E-2,9.562616348E0,-3.924229145E-1,9.570670331E0
1.434195380E-1,1.375873014E-2,9.574581146E0,-4.187439680E-1,9.583743524E0
1.458647980E-1,1.136590727E-2,9.576973915E0,-4.378865361E-1,9.586986136E0
1.483092780E-1,1.615155302E-2,9.579366684E0,-4.187439680E-1,9.588528221E0
1.507529760E-1,-7.776673418E-3,9.574581146E0,-4.235295951E-1,9.583947095E0
1.531975590E-1,1.375873014E-2,9.593723297E0,-4.163511395E-1,9.602763367E0
1.556428190E-1,6.580262445E-3,9.574581146E0,-4.211367965E-1,9.583840756E0
1.580872980E-1,2.333002165E-2,9.581759453E0,-4.043870270E-1,9.590317376E0
1.605309960E-1,1.136590727E-2,9.584152222E0,-3.972085714E-1,9.592386441E0
1.629754760E-1,1.136590727E-2,9.560223579E0,-4.091726840E-1,9.568982514E0
1.654208400E-1,2.093719877E-2,9.576973915E0,-4.187439680E-1,9.586146997E0
1.678652670E-1,8.973085321E-3,9.572187424E0,-4.235295951E-1,9.581556758E0
1.703090170E-1,-5.982056609E-4,9.569794655E0,-3.900300860E-1,9.577739481E0
1.727534960E-1,6.580262445E-3,9.584152222E0,-4.043870270E-1,9.592681897E0
1.751988610E-1,6.580262445E-3,9.584152222E0,-4.091726840E-1,9.592884832E0
1.776432880E-1,1.794616925E-3,9.572187424E0,-4.115654826E-1,9.581031335E0
1.800869860E-1,-7.776673418E-3,9.579366684E0,-4.091726840E-1,9.588104548E0
1.825315690E-1,-1.016949583E-2,9.550652504E0,-4.091726840E-1,9.559418861E0
1.849768300E-1,2.333002165E-2,9.567401886E0,-3.852444589E-1,9.575183363E0
1.874213090E-1,1.136590727E-2,9.579366684E0,-4.019941986E-1,9.587804472E0
1.898650070E-1,1.375873014E-2,9.579366684E0,-3.876372576E-1,9.587216385E0
1.923094860E-1,1.136590727E-2,9.586544991E0,-4.067798555E-1,9.595178158E0
1.947548510E-1,1.375873014E-2,9.586544991E0,-4.259224236E-1,9.596011884E0
1.971993300E-1,-5.982056609E-4,9.572187424E0,-3.996013701E-1,9.580524708E0
1.996430280E-1,1.136590727E-2,9.574581146E0,-4.235295951E-1,9.583950680E0
2.020875070E-1,1.136590727E-2,9.572187424E0,-4.091726840E-1,9.580935421E0
2.045328710E-1,1.615155302E-2,9.581759453E0,-4.067798555E-1,9.590403794E0
2.069772980E-1,1.615155302E-2,9.574581146E0,-4.091726840E-1,9.583333829E0
2.094210480E-1,1.854437590E-2,9.584152222E0,-4.067798555E-1,9.592798734E0
2.118655280E-1,2.093719877E-2,9.576973915E0,-4.019941986E-1,9.585429937E0
2.143108920E-1,8.973085321E-3,9.572187424E0,-4.091726840E-1,9.580932881E0
2.167553190E-1,6.580262445E-3,9.555438042E0,-3.924229145E-1,9.563494927E0
2.191990170E-1,6.580262445E-3,9.555438042E0,-4.019941986E-1,9.563892450E0
2.216436010E-1,4.187439568E-3,9.557830811E0,-4.115654826E-1,9.566688742E0
2.240888610E-1,-1.256231871E-2,9.581759453E0,-4.163511395E-1,9.590809157E0
2.265333400E-1,1.375873014E-2,9.576973915E0,-4.091726840E-1,9.585720680E0
2.289770380E-1,4.187439568E-3,9.560223579E0,-4.211367965E-1,9.569495735E0
2.314216210E-1,4.187439568E-3,9.574581146E0,-4.091726840E-1,9.583321133E0
2.338668820E-1,1.615155302E-2,9.581759453E0,-4.067798555E-1,9.590403794E0
2.363113610E-1,2.333002165E-2,9.576973915E0,-3.924229145E-1,9.585038832E0
2.387550590E-1,4.187439568E-3,9.569794655E0,-4.067798555E-1,9.578437092E0
2.411995380E-1,2.811566554E-2,9.584152222E0,-4.067798555E-1,9.592822012E0
2.436449030E-1,-5.982056609E-4,9.584152222E0,-3.972085714E-1,9.592379726E0
2.460893300E-1,-5.982056609E-4,9.574581146E0,-4.067798555E-1,9.583218370E0
2.485330800E-1,-7.776673418E-3,9.576973915E0,-4.139583111E-1,9.585919431E0
2.509775590E-1,1.794616925E-3,9.567401886E0,-4.235295951E-1,9.576771867E0
2.534229230E-1,1.854437590E-2,9.567401886E0,-4.043870270E-1,9.575962177E0
2.558673510E-1,1.375873014E-2,9.579366684E0,-3.972085714E-1,9.587608149E0
2.583110480E-1,-5.982056609E-4,9.569794655E0,-4.163511395E-1,9.578847445E0
2.607556320E-1,2.333002165E-2,9.596116066E0,-4.163511395E-1,9.605172362E0
2.632009440E-1,-2.991028363E-3,9.586544991E0,-3.972085714E-1,9.594770891E0
2.656453710E-1,1.136590727E-2,9.581759453E0,-4.163511395E-1,9.590807665E0
2.680890690E-1,-2.991028363E-3,9.584152222E0,-4.091726840E-1,9.592883041E0
2.705336530E-1,1.136590727E-2,9.579366684E0,-3.924229145E-1,9.587407939E0
2.729789130E-1,6.580262445E-3,9.588937759E0,-4.163511395E-1,9.597974730E0
2.754233920E-1,1.794616925E-3,9.574581146E0,-4.283152521E-1,9.584156786E0
2.778670900E-1,-1.256231871E-2,9.591330528E0,-4.091726840E-1,9.600062573E0
2.803115690E-1,4.187439568E-3,9.588937759E0,-4.163511395E-1,9.597973388E0
2.827569340E-1,-5.982056609E-4,9.591330528E0,-4.163511395E-1,9.600363010E0
2.852014130E-1,1.854437590E-2,9.567401886E0,-3.924229145E-1,9.575464401E0
2.876451110E-1,1.375873014E-2,9.586544991E0,-3.828516304E-1,9.594196659E0
2.900895900E-1,-1.734796353E-2,9.569794655E0,-4.091726840E-1,9.578553804E0
2.925349550E-1,1.615155302E-2,9.567401886E0,-4.139583111E-1,9.576366806E0
2.949793820E-1,3.050848842E-2,9.579366684E0,-4.115654826E-1,9.588252342E0
2.974230800E-1,1.794616925E-3,9.567401886E0,-3.996013701E-1,9.575743487E0
2.998676630E-1,1.794616925E-3,9.576973915E0,-4.163511395E-1,9.586020074E0
3.023129760E-1,1.854437590E-2,9.574581146E0,-4.211367965E-1,9.583856438E0
3.047574030E-1,1.136590727E-2,9.588937759E0,-4.187439680E-1,9.598083301E0
3.072011010E-1,1.854437590E-2,9.584152222E0,-3.948157430E-1,9.592298847E0
3.096456840E-1,-5.383851007E-3,9.581759453E0,-4.019941986E-1,9.590189911E0
3.120909440E-1,1.136590727E-2,9.574581146E0,-4.283152521E-1,9.584163358E0
3.145354230E-1,-2.991028363E-3,9.572187424E0,-3.996013701E-1,9.580525157E0
3.169791210E-1,8.973085321E-3,9.562616348E0,-4.067798555E-1,9.571268557E0
3.194236010E-1,2.333002165E-2,9.574581146E0,-4.307080805E-1,9.584292247E0
3.218689650E-1,1.854437590E-2,9.574581146E0,-3.972085714E-1,9.582834793E0
3.243134440E-1,1.375873014E-2,9.574581146E0,-4.019941986E-1,9.583026284E0
3.267571420E-1,6.580262445E-3,9.584152222E0,-4.235295951E-1,9.593507931E0
3.292016210E-1,8.973085321E-3,9.562616348E0,-4.091726840E-1,9.571370551E0
3.316469860E-1,1.854437590E-2,9.581759453E0,-4.067798555E-1,9.590408123E0
3.340914130E-1,1.375873014E-2,9.588937759E0,-4.019941986E-1,9.597370264E0
3.365351110E-1,1.854437590E-2,9.572187424E0,-4.019941986E-1,9.580642740E0
3.389796940E-1,4.187439568E-3,9.567401886E0,-4.067798555E-1,9.576046482E0
3.414250070E-1,4.187439568E-3,9.550652504E0,-4.115654826E-1,9.559517087E0
3.438694340E-1,4.187439568E-3,9.581759453E0,-4.115654826E-1,9.590595284E0
3.463131320E-1,8.973085321E-3,9.581759453E0,-4.139583111E-1,9.590701549E0
3.487577150E-1,1.136590727E-2,9.565009117E0,-4.163511395E-1,9.574073160E0
3.512029760E-1,1.794616925E-3,9.572187424E0,-4.067798555E-1,9.580826955E0
3.536474550E-1,2.811566554E-2,9.574581146E0,-4.091726840E-1,9.583361462E0
3.560911530E-1,2.811566554E-2,9.572187424E0,-3.900300860E-1,9.580171503E0
3.585356320E-1,1.375873014E-2,9.596116066E0,-4.043870270E-1,9.604642717E0
3.609809960E-1,2.572284266E-2,9.576973915E0,-4.163511395E-1,9.586054418E0
3.634255800E-1,4.187439568E-3,9.565009117E0,-3.996013701E-1,9.573353550E0
3.658691730E-1,-7.776673418E-3,9.584152222E0,-4.019941986E-1,9.592582219E0
3.683136530E-1,1.794616925E-3,9.591330528E0,-4.043870270E-1,9.599851738E0
3.707590170E-1,-2.991028363E-3,9.560223579E0,-4.067798555E-1,9.568874212E0
3.732034440E-1,-2.991028363E-3,9.565009117E0,-4.187439680E-1,9.574171237E0
3.756471420E-1,-7.776673418E-3,9.569794655E0,-3.972085714E-1,9.578037631E0
3.780917260E-1,6.580262445E-3,9.579366684E0,-3.900300860E-1,9.587305817E0
3.805370380E-1,1.794616925E-3,9.588937759E0,-4.187439680E-1,9.598076739E0
3.829814650E-1,-5.383851007E-3,9.586544991E0,-4.211367965E-1,9.595792309E0
3.854251630E-1,8.973085321E-3,9.576973915E0,-4.163511395E-1,9.586024106E0
3.878697460E-1,2.333002165E-2,9.591330528E0,-4.331009090E-1,9.601132329E0
3.903150070E-1,-5.383851007E-3,9.565009117E0,-3.996013701E-1,9.573354148E0
3.927594860E-1,-7.776673418E-3,9.576973915E0,-4.043870270E-1,9.585510874E0
3.952031840E-1,-7.776673418E-3,9.574581146E0,-4.067798555E-1,9.583221507E0
3.976476630E-1,8.973085321E-3,9.574581146E0,-4.043870270E-1,9.583121282E0
4.000930280E-1,8.973085321E-3,9.581759453E0,-4.235295951E-1,9.591119437E0
4.025374550E-1,-5.383851007E-3,9.588937759E0,-4.067798555E-1,9.597563555E0
4.049812050E-1,-5.383851007E-3,9.576973915E0,-4.115654826E-1,9.585814754E0
4.074256840E-1,4.187439568E-3,9.588937759E0,-4.187439680E-1,9.598077485E0
4.098710480E-1,-1.495514158E-2,9.591330528E0,-3.948157430E-1,9.599464799E0
4.123154760E-1,4.187439568E-3,9.586544991E0,-4.019941986E-1,9.594970647E0
4.147591730E-1,4.187439568E-3,9.572187424E0,-4.163511395E-1,9.581238849E0
4.172037570E-1,6.580262445E-3,9.560223579E0,-4.043870270E-1,9.568774585E0
4.196490690E-1,-7.776673418E-3,9.584152222E0,-3.996013701E-1,9.592482241E0
4.220934960E-1,6.580262445E-3,9.588937759E0,-4.163511395E-1,9.597974730E0
4.245371940E-1,4.187439568E-3,9.586544991E0,-3.900300860E-1,9.594476841E0
4.269817780E-1,-5.383851007E-3,9.553045273E0,-4.043870270E-1,9.561601949E0
4.294270380E-1,1.854437590E-2,9.572187424E0,-4.139583111E-1,9.581152199E0
4.318715170E-1,8.973085321E-3,9.572187424E0,-3.924229145E-1,9.580232165E0
4.343152150E-1,-1.016949583E-2,9.557830811E0,-3.876372576E-1,9.565693695E0
4.367596940E-1,3.529413417E-2,9.572187424E0,-4.139583111E-1,9.581199259E0
4.392050590E-1,1.794616925E-3,9.581759453E0,-3.972085714E-1,9.589989160E0
4.416495380E-1,1.136590727E-2,9.562616348E0,-4.067798555E-1,9.571271099E0
4.440932360E-1,8.973085321E-3,9.562616348E0,-4.067798555E-1,9.571268557E0
4.465377150E-1,-7.776673418E-3,9.593723297E0,-4.283152521E-1,9.603282831E0
4.489830800E-1,1.136590727E-2,9.584152222E0,-4.187439680E-1,9.593302325E0
4.514275070E-1,8.973085321E-3,9.581759453E0,-4.019941986E-1,9.590192598E0
4.538712570E-1,1.794616925E-3,9.572187424E0,-4.115654826E-1,9.581031335E0
4.563157360E-1,1.375873014E-2,9.584152222E0,-3.948157430E-1,9.592290789E0
4.587611010E-1,1.854437590E-2,9.588937759E0,-4.019941986E-1,9.597378318E0
4.612055280E-1,1.136590727E-2,9.591330528E0,-4.163511395E-1,9.600369720E0
4.636492260E-1,8.973085321E-3,9.586544991E0,-3.948157430E-1,9.594675859E0
4.660938090E-1,-5.982056609E-4,9.569794655E0,-3.996013701E-1,9.578134022E0
4.685390690E-1,8.973085321E-3,9.562616348E0,-4.043870270E-1,9.571167160E0
4.709835480E-1,8.973085321E-3,9.574581146E0,-4.163511395E-1,9.583633597E0
4.734272460E-1,-5.982056609E-4,9.584152222E0,-4.067798555E-1,9.592780828E0
4.758717260E-1,6.580262445E-3,9.574581146E0,-4.139583111E-1,9.583527999E0
4.783170900E-1,4.187439568E-3,9.572187424E0,-4.187439680E-1,9.581343127E0
4.807615690E-1,4.187439568E-3,9.567401886E0,-4.139583111E-1,9.576354101E0
4.832052670E-1,1.615155302E-2,9.569794655E0,-4.019941986E-1,9.578247749E0
4.856497460E-1,3.050848842E-2,9.567401886E0,-3.996013701E-1,9.575791919E0
4.880951110E-1,2.572284266E-2,9.567401886E0,-4.235295951E-1,9.576806244E0
4.905395380E-1,6.580262445E-3,9.572187424E0,-3.996013701E-1,9.580526949E0
4.929832880E-1,6.580262445E-3,9.567401886E0,-4.067798555E-1,9.576047828E0
4.954277670E-1,2.093719877E-2,9.574581146E0,-4.187439680E-1,9.583756518E0
4.978731320E-1,8.973085321E-3,9.586544991E0,-4.139583111E-1,9.595482628E0
5.003175590E-1,2.093719877E-2,9.584152222E0,-4.043870270E-1,9.592702489E0
5.027612570E-1,6.580262445E-3,9.562616348E0,-4.163511395E-1,9.571678170E0
5.052058400E-1,6.580262445E-3,9.565009117E0,-4.163511395E-1,9.574068674E0
5.076511010E-1,6.580262445E-3,9.572187424E0,-4.139583111E-1,9.581136512E0
5.100955800E-1,8.973085321E-3,9.562616348E0,-4.139583111E-1,9.571576329E0
5.125392780E-1,-5.982056609E-4,9.574581146E0,-4.211367965E-1,9.583838515E0
5.149837570E-1,-5.982056609E-4,9.572187424E0,-4.283152521E-1,9.581765306E0
5.174291210E-1,3.529413417E-2,9.576973915E0,-4.019941986E-1,9.585472048E0
5.198736010E-1,2.333002165E-2,9.584152222E0,-3.876372576E-1,9.592016511E0
5.223172980E-1,4.187439568E-3,9.581759453E0,-3.828516304E-1,9.589405984E0
5.247617780E-1,-7.776673418E-3,9.591330528E0,-4.019941986E-1,9.599754222E0
5.272071420E-1,1.615155302E-2,9.569794655E0,-3.828516304E-1,9.577463442E0
5.296515690E-1,1.615155302E-2,9.569794655E0,-3.996013701E-1,9.578147622E0
5.320953190E-1,-5.982056609E-4,9.562616348E0,-3.996013701E-1,9.570961970E0
5.345397980E-1,8.973085321E-3,9.579366684E0,-3.804588020E-1,9.586923150E0
5.369851630E-1,1.794616925E-3,9.574581146E0,-4.307080805E-1,9.584264020E0
5.394295900E-1,1.794616925E-3,9.579366684E0,-4.163511395E-1,9.588410586E0
5.418732880E-1,1.854437590E-2,9.572187424E0,-4.067798555E-1,9.580844734E0
5.443178710E-1,-1.016949583E-2,9.584152222E0,-4.115654826E-1,9.592990325E0
5.467631840E-1,4.187439568E-3,9.593723297E0,-3.972085714E-1,9.601943495E0
5.492076110E-1,-2.991028363E-3,9.593723297E0,-4.187439680E-1,9.602858020E0
5.516513090E-1,-5.982056609E-4,9.574581146E0,-4.139583111E-1,9.583525759E0
5.540958920E-1,8.973085321E-3,9.574581146E0,-3.972085714E-1,9.582821051E0
5.565411530E-1,1.794616925E-3,9.574581146E0,-3.972085714E-1,9.582817018E0
5.589856320E-1,8.973085321E-3,9.584152222E0,-4.019941986E-1,9.592583263E0
5.614293300E-1,1.375873014E-2,9.572187424E0,-4.019941986E-1,9.580634672E0
5.638738090E-1,2.811566554E-2,9.579366684E0,-4.115654826E-1,9.588245027E0
5.663191730E-1,1.375873014E-2,9.581759453E0,-4.043870270E-1,9.590298868E0
5.687636010E-1,-5.982056609E-4,9.562616348E0,-4.187439680E-1,9.571780309E0
5.712073510E-1,-1.256231871E-2,9.576973915E0,-4.139583111E-1,9.585924508E0
5.736518300E-1,-5.982056609E-4,9.550652504E0,-3.996013701E-1,9.559008571E0
5.760971940E-1,-5.383851007E-3,9.572187424E0,-4.067798555E-1,9.580828300E0
5.785416210E-1,1.794616925E-3,9.596116066E0,-4.091726840E-1,9.604835712E0
5.809853190E-1,-5.982056609E-4,9.572187424E0,-4.067798555E-1,9.580826806E0
5.834299030E-1,4.187439568E-3,9.572187424E0,-4.283152521E-1,9.581766203E0
5.858752150E-1,-7.776673418E-3,9.576973915E0,-4.163511395E-1,9.586023061E0
5.883196420E-1,-5.982056609E-4,9.584152222E0,-3.996013701E-1,9.592479107E0
5.907633400E-1,1.794616925E-3,9.574581146E0,-4.091726840E-1,9.583320387E0
5.932079230E-1,1.794616925E-3,9.576973915E0,-3.996013701E-1,9.585307186E0
5.956531840E-1,1.615155302E-2,9.588937759E0,-4.067798555E-1,9.597575635E0
5.980976630E-1,1.136590727E-2,9.581759453E0,-4.091726840E-1,9.590498719E0
6.005413610E-1,1.375873014E-2,9.591330528E0,-4.211367965E-1,9.600581587E0
6.029858400E-1,4.187439568E-3,9.557830811E0,-4.091726840E-1,9.566586101E0
6.054312050E-1,1.794616925E-3,9.560223579E0,-4.211367965E-1,9.569494987E0
6.078756840E-1,8.973085321E-3,9.574581146E0,-4.259224236E-1,9.584054181E0
6.103193820E-1,1.375873014E-2,9.567401886E0,-4.187439680E-1,9.576571133E0
6.127638610E-1,2.811566554E-2,9.572187424E0,-3.996013701E-1,9.580565945E0
6.152092260E-1,-7.776673418E-3,9.581759453E0,-4.091726840E-1,9.590495137E0
6.176536530E-1,-2.991028363E-3,9.596116066E0,-4.067798555E-1,9.604734372E0
6.200973510E-1,1.615155302E-2,9.576973915E0,-4.043870270E-1,9.585521327E0
6.225419340E-1,-2.991028363E-3,9.572187424E0,-4.354937077E-1,9.582089323E0
6.249872460E-1,-5.982056609E-4,9.576973915E0,-3.996013701E-1,9.585307036E0
6.274316730E-1,1.615155302E-2,9.586544991E0,-4.115654826E-1,9.595389094E0
6.298753710E-1,4.187439568E-3,9.584152222E0,-4.067798555E-1,9.592781723E0
6.323199550E-1,1.375873014E-2,9.572187424E0,-3.948157430E-1,9.580336155E0
6.347652150E-1,2.093719877E-2,9.588937759E0,-4.211367965E-1,9.598204099E0
6.372096940E-1,1.794616925E-3,9.584152222E0,-4.115654826E-1,9.592985102E0
6.396533920E-1,4.187439568E-3,9.567401886E0,-4.163511395E-1,9.576457834E0
6.420978710E-1,1.375873014E-2,9.576973915E0,-4.043870270E-1,9.585517594E0
6.445432360E-1,1.854437590E-2,9.572187424E0,-3.924229145E-1,9.580245911E0
6.469877150E-1,1.136590727E-2,9.588937759E0,-4.139583111E-1,9.597875704E0
6.494314130E-1,1.794616925E-3,9.567401886E0,-4.043870270E-1,9.575944389E0
6.518758920E-1,1.615155302E-2,9.572187424E0,-4.067798555E-1,9.580840401E0
6.543212570E-1,-2.991028363E-3,9.596116066E0,-4.259224236E-1,9.605564138E0
6.567656840E-1,-5.982056609E-4,9.579366684E0,-4.211367965E-1,9.588619433E0
6.592094340E-1,8.973085321E-3,9.581759453E0,-3.972085714E-1,9.589993190E0
6.616539130E-1,2.333002165E-2,9.579366684E0,-3.948157430E-1,9.587527827E0
6.640992780E-1,1.854437590E-2,9.579366684E0,-4.043870270E-1,9.587916292E0
6.665437050E-1,-5.982056609E-4,9.576973915E0,-4.211367965E-1,9.586228973E0
6.689874030E-1,1.136590727E-2,9.567401886E0,-4.019941986E-1,9.575850216E0
6.714319860E-1,2.093719877E-2,9.574581146E0,-3.924229145E-1,9.582642550E0
6.738772460E-1,-5.383851007E-3,9.581759453E0,-3.924229145E-1,9.589793478E0
6.763217260E-1,2.093719877E-2,9.572187424E0,-3.948157430E-1,9.580349154E0
6.787654230E-1,1.136590727E-2,9.567401886E0,-4.067798555E-1,9.576052312E0
6.812099030E-1,4.187439568E-3,9.591330528E0,-3.996013701E-1,9.599652082E0
6.836552670E-1,1.615155302E-2,9.586544991E0,-4.163511395E-1,9.595595552E0
6.860997460E-1,-5.982056609E-4,9.581759453E0,-4.115654826E-1,9.590594388E0
6.885434440E-1,2.333002165E-2,9.560223579E0,-4.211367965E-1,9.569523258E0
6.909879230E-1,1.615155302E-2,9.565009117E0,-3.804588020E-1,9.572586337E0
6.934332880E-1,-5.982056609E-4,9.576973915E0,-4.043870270E-1,9.585507738E0
6.958777150E-1,-5.383851007E-3,9.572187424E0,-3.972085714E-1,9.580426698E0
6.983214650E-1,8.973085321E-3,9.574581146E0,-4.139583111E-1,9.583529941E0
7.007659440E-1,1.375873014E-2,9.581759453E0,-4.019941986E-1,9.590198270E0
7.032113090E-1,-2.991028363E-3,9.598508835E0,-4.139583111E-1,9.607431617E0
7.056557360E-1,-5.982056609E-4,9.574581146E0,-3.996013701E-1,9.582916348E0
7.080994340E-1,-2.991028363E-3,9.584152222E0,-4.187439680E-1,9.593296058E0
7.105440170E-1,1.136590727E-2,9.581759453E0,-4.067798555E-1,9.590396929E0
7.129893300E-1,8.973085321E-3,9.557830811E0,-3.972085714E-1,9.566085143E0
7.154337570E-1,-5.982056609E-4,9.543474197E0,-4.067798555E-1,9.552139549E0
7.178774550E-1,3.050848842E-2,9.572187424E0,-3.900300860E-1,9.580178825E0
7.203220380E-1,1.854437590E-2,9.576973915E0,-4.115654826E-1,9.585831180E0
7.227672980E-1,1.375873014E-2,9.598508835E0,-3.804588020E-1,9.606055905E0
7.252117780E-1,-2.991028363E-3,9.565009117E0,-4.091726840E-1,9.573757394E0
7.276554760E-1,6.580262445E-3,9.586544991E0,-4.139583111E-1,9.595480688E0
7.300999550E-1,6.580262445E-3,9.581759453E0,-3.852444589E-1,9.589503157E0
7.325453190E-1,-2.991028363E-3,9.579366684E0,-4.019941986E-1,9.587798201E0
7.349897980E-1,1.615155302E-2,9.574581146E0,-3.996013701E-1,9.582929941E0
7.374334960E-1,1.375873014E-2,9.557830811E0,-4.139583111E-1,9.566800959E0
7.398779760E-1,-5.383851007E-3,9.586544991E0,-3.996013701E-1,9.594871291E0
7.423233400E-1,-5.982056609E-4,9.567401886E0,-4.211367965E-1,9.576666195E0
7.447677670E-1,-5.982056609E-4,9.584152222E0,-4.115654826E-1,9.592984953E0
7.472114650E-1,-2.991028363E-3,9.574581146E0,-4.043870270E-1,9.583117548E0
7.496560480E-1,-5.383851007E-3,9.576973915E0,-4.019941986E-1,9.585408582E0
7.521013610E-1,6.580262445E-3,9.584152222E0,-4.259224236E-1,9.593613866E0
7.545457880E-1,-2.991028363E-3,9.569794655E0,-4.163511395E-1,9.578847893E0
7.569894860E-1,1.375873014E-2,9.569794655E0,-3.996013701E-1,9.578143886E0
7.594340690E-1,-1.016949583E-2,9.581759453E0,-4.187439680E-1,9.590910496E0
7.618793300E-1,-7.776673418E-3,9.562616348E0,-4.091726840E-1,9.571369504E0
7.643238090E-1,8.973085321E-3,9.579366684E0,-4.163511395E-1,9.588414616E0
7.667675070E-1,6.580262445E-3,9.569794655E0,-4.115654826E-1,9.578642867E0
7.692119860E-1,4.187439568E-3,9.574581146E0,-4.091726840E-1,9.583321133E0
7.716573510E-1,-7.776673418E-3,9.576973915E0,-4.067798555E-1,9.585612119E0
7.741018300E-1,1.375873014E-2,9.584152222E0,-4.139583111E-1,9.593097758E0
7.765455280E-1,-5.982056609E-4,9.569794655E0,-4.139583111E-1,9.578743737E0
7.789900070E-1,6.580262445E-3,9.586544991E0,-3.732803464E-1,9.593811879E0
7.814353710E-1,1.854437590E-2,9.569794655E0,-3.996013701E-1,9.578151956E0
7.838797980E-1,1.136590727E-2,9.567401886E0,-4.187439680E-1,9.576567994E0
7.863235480E-1,8.973085321E-3,9.562616348E0,-4.091726840E-1,9.571370551E0
7.887680280E-1,8.973085321E-3,9.581759453E0,-4.115654826E-1,9.590598567E0
7.912133920E-1,6.580262445E-3,9.576973915E0,-4.067798555E-1,9.585611223E0
7.936578190E-1,1.794616925E-3,9.579366684E0,-4.019941986E-1,9.587797903E0
7.961015170E-1,-5.982056609E-4,9.576973915E0,-4.139583111E-1,9.585916295E0
7.985461010E-1,1.615155302E-2,9.584152222E0,-4.019941986E-1,9.592592664E0
8.009914130E-1,1.794616925E-3,9.550652504E0,-3.804588020E-1,9.558227627E0
8.034358400E-1,6.580262445E-3,9.565009117E0,-3.972085714E-1,9.573255317E0
8.058795380E-1,1.136590727E-2,9.584152222E0,-4.115654826E-1,9.592991668E0
8.083241210E-1,-5.982056609E-4,9.584152222E0,-3.924229145E-1,9.592182750E0
8.107693820E-1,8.973085321E-3,9.591330528E0,-4.091726840E-1,9.600058547E0
8.132138610E-1,-2.991028363E-3,9.576973915E0,-3.972085714E-1,9.585208029E0
8.156575590E-1,6.580262445E-3,9.588937759E0,-4.043870270E-1,9.597463182E0
8.181020380E-1,8.973085321E-3,9.581759453E0,-3.972085714E-1,9.589993190E0
8.205474030E-1,6.580262445E-3,9.584152222E0,-4.211367965E-1,9.593402593E0
8.229918820E-1,-5.383851007E-3,9.579366684E0,-4.019941986E-1,9.587799246E0
8.254355800E-1,6.580262445E-3,9.584152222E0,-4.091726840E-1,9.592884832E0
8.278800590E-1,-1.016949583E-2,9.567401886E0,-4.187439680E-1,9.576566649E0
8.303254230E-1,1.615155302E-2,9.576973915E0,-3.780659735E-1,9.584446991E0
8.327698510E-1,-5.383851007E-3,9.572187424E0,-4.211367965E-1,9.581448599E0
8.352136010E-1,1.854437590E-2,9.567401886E0,-4.187439680E-1,9.576579204E0
8.376580800E-1,2.333002165E-2,9.579366684E0,-4.091726840E-1,9.588129778E0
8.401034440E-1,-5.383851007E-3,9.581759453E0,-4.187439680E-1,9.590906616E0
8.425478710E-1,-5.383851007E-3,9.584152222E0,-4.187439680E-1,9.593297103E0
8.449915690E-1,8.973085321E-3,9.572187424E0,-4.163511395E-1,9.581242136E0
8.474361530E-1,1.854437590E-2,9.581759453E0,-4.163511395E-1,9.590818859E0
8.498814130E-1,1.375873014E-2,9.588937759E0,-4.139583111E-1,9.597878835E0
8.523258920E-1,1.794616925E-3,9.565009117E0,-4.067798555E-1,9.573655127E0
8.547695900E-1,-1.256231871E-2,9.572187424E0,-4.091726840E-1,9.580936915E0
8.572141730E-1,-5.982056609E-4,9.584152222E0,-4.187439680E-1,9.593295611E0
8.596594340E-1,1.136590727E-2,9.576973915E0,-4.211367965E-1,9.586235693E0
8.621039130E-1,6.580262445E-3,9.584152222E0,-4.378865361E-1,9.594152476E0
8.645476110E-1,1.136590727E-2,9.584152222E0,-4.163511395E-1,9.593198177E0
8.669920900E-1,1.375873014E-2,9.569794655E0,-4.187439680E-1,9.578961611E0
8.694374550E-1,1.794616925E-3,9.576973915E0,-4.139583111E-1,9.585916444E0
8.718818820E-1,1.136590727E-2,9.591330528E0,-4.259224236E-1,9.600789572E0
8.743256320E-1,1.854437590E-2,9.567401886E0,-4.235295951E-1,9.576789653E0
8.767701110E-1,1.854437590E-2,9.581759453E0,-4.043870270E-1,9.590306928E0
8.792154760E-1,1.375873014E-2,9.579366684E0,-4.043870270E-1,9.587908230E0
8.816599030E-1,6.580262445E-3,9.581759453E0,-4.139583111E-1,9.590699609E0
8.841036010E-1,2.572284266E-2,9.588937759E0,-4.163511395E-1,9.598006944E0
8.865481840E-1,3.050848842E-2,9.562616348E0,-4.115654826E-1,9.571517557E0
8.889934440E-1,8.973085321E-3,9.565009117E0,-4.283152521E-1,9.574598367E0
8.914379230E-1,8.973085321E-3,9.579366684E0,-3.708875179E-1,9.586548082E0
8.938816210E-1,1.136590727E-2,9.574581146E0,-3.996013701E-1,9.582923070E0
8.963262050E-1,1.854437590E-2,9.574581146E0,-4.187439680E-1,9.583751590E0
8.987714650E-1,1.375873014E-2,9.586544991E0,-4.091726840E-1,9.595283031E0
9.012159440E-1,4.187439568E-3,9.586544991E0,-4.091726840E-1,9.595274080E0
9.036596420E-1,1.615155302E-2,9.569794655E0,-4.283152521E-1,9.579388528E0
9.061041210E-1,2.333002165E-2,9.560223579E0,-4.115654826E-1,9.569106820E0
9.085494860E-1,8.973085321E-3,9.572187424E0,-4.307080805E-1,9.581876749E0
9.109939650E-1,4.187439568E-3,9.569794655E0,-4.211367965E-1,9.579057546E0
9.134376630E-1,1.136590727E-2,9.574581146E0,-4.354937077E-1,9.584486845E0
9.158821420E-1,-1.016949583E-2,9.600901604E0,-4.283152521E-1,9.610456232E0
9.183275070E-1,2.093719877E-2,9.576973915E0,-4.115654826E-1,9.585836108E0
9.207719340E-1,6.580262445E-3,9.586544991E0,-4.115654826E-1,9.595377757E0
9.232156840E-1,1.375873014E-2,9.579366684E0,-4.067798555E-1,9.588009450E0
9.256601630E-1,6.580262445E-3,9.581759453E0,-4.139583111E-1,9.590699609E0
9.281055280E-1,1.794616925E-3,9.591330528E0,-4.091726840E-1,9.600054521E0
9.305499550E-1,-1.016949583E-2,9.567401886E0,-4.115654826E-1,9.576255448E0
9.329936530E-1,-5.383851007E-3,9.565009117E0,-3.996013701E-1,9.573354148E0
9.354382360E-1,-5.982056609E-4,9.584152222E0,-4.307080805E-1,9.593825286E0
9.378835480E-1,3.050848842E-2,9.567401886E0,-4.139583111E-1,9.576401782E0
9.403279760E-1,1.854437590E-2,9.581759453E0,-4.115654826E-1,9.590612298E0
9.427716730E-1,1.794616925E-3,9.565009117E0,-4.019941986E-1,9.573452980E0
9.452162570E-1,-7.776673418E-3,9.567401886E0,-4.043870270E-1,9.575947378E0
9.476615170E-1,8.973085321E-3,9.565009117E0,-4.115654826E-1,9.573863696E0
9.501059960E-1,1.136590727E-2,9.576973915E0,-4.235295951E-1,9.586341110E0
9.525496940E-1,1.136590727E-2,9.581759453E0,-4.019941986E-1,9.590195135E0
9.549941730E-1,-1.495514158E-2,9.584152222E0,-4.115654826E-1,9.592996592E0
9.574395380E-1,1.136590727E-2,9.574581146E0,-4.307080805E-1,9.584270591E0
9.598840170E-1,-1.016949583E-2,9.565009117E0,-4.043870270E-1,9.573558988E0
9.623277150E-1,2.811566554E-2,9.562616348E0,-4.019941986E-1,9.571103450E0
9.647721940E-1,3.050848842E-2,9.572187424E0,-4.019941986E-1,9.580673368E0
9.672175590E-1,1.375873014E-2,9.572187424E0,-4.163511395E-1,9.581247813E0
9.696619860E-1,8.973085321E-3,9.598508835E0,-4.259224236E-1,9.607958278E0
9.721057360E-1,-2.991028363E-3,9.557830811E0,-4.163511395E-1,9.566895370E0
9.745502150E-1,8.973085321E-3,9.586544991E0,-4.043870270E-1,9.595074478E0
9.769955800E-1,1.854437590E-2,9.557830811E0,-3.948157430E-1,9.565999852E0
9.794400070E-1,-5.982056609E-4,9.598508835E0,-4.235295951E-1,9.607848330E0
9.818837050E-1,8.973085321E-3,9.576973915E0,-4.139583111E-1,9.585920476E0
9.843282880E-1,-5.383851007E-3,9.579366684E0,-4.163511395E-1,9.588411929E0
9.867735480E-1,6.580262445E-3,9.576973915E0,-4.067798555E-1,9.585611223E0
9.892180280E-1,4.187439568E-3,9.567401886E0,-4.163511395E-1,9.576457834E0
9.916617260E-1,8.973085321E-3,9.591330528E0,-4.402793646E-1,9.601434671E0
9.941063090E-1,-5.383851007E-3,9.600901604E0,-3.972085714E-1,9.609116257E0
9.965515690E-1,-1.016949583E-2,9.565009117E0,-4.139583111E-1,9.573968055E0
9.989960480E-1,1.794616925E-3,9.588937759E0,-4.091726840E-1,9.597663927E0
1.001439746E0,1.854437590E-2,9.567401886E0,-4.043870270E-1,9.575962177E0
1.003884226E0,4.187439568E-3,9.591330528E0,-4.259224236E-1,9.600783757E0
1.006329590E0,-2.991028363E-3,9.593723297E0,-3.996013701E-1,9.602042330E0
1.008774069E0,1.794616925E-3,9.581759453E0,-4.043870270E-1,9.590289167E0
1.011217767E0,8.973085321E-3,9.569794655E0,-4.043870270E-1,9.578339059E0
1.013662246E0,1.615155302E-2,9.565009117E0,-4.211367965E-1,9.574289346E0
1.016107611E0,6.580262445E-3,9.572187424E0,-4.211367965E-1,9.581449346E0
1.018552038E0,2.333002165E-2,9.557830811E0,-3.948157430E-1,9.566010326E0
1.020995788E0,4.187439568E-3,9.567401886E0,-4.091726840E-1,9.576148426E0
1.023440267E0,1.854437590E-2,9.588937759E0,-4.163511395E-1,9.597990390E0
1.025885632E0,1.375873014E-2,9.574581146E0,-4.163511395E-1,9.583639272E0
1.028330059E0,8.973085321E-3,9.569794655E0,-4.235295951E-1,9.579166330E0
1.030773757E0,8.973085321E-3,9.586544991E0,-4.211367965E-1,9.595794994E0
1.033218340E0,8.973085321E-3,9.586544991E0,-4.019941986E-1,9.594973929E0
1.035663601E0,-5.982056609E-4,9.579366684E0,-3.996013701E-1,9.587697726E0
1.038108080E0,6.580262445E-3,9.560223579E0,-4.211367965E-1,9.569497081E0
1.040551778E0,2.811566554E-2,9.562616348E0,-4.091726840E-1,9.571407639E0
1.042996361E0,1.136590727E-2,9.591330528E0,-4.211367965E-1,9.600578456E0
1.045441621E0,4.187439568E-3,9.584152222E0,-4.091726840E-1,9.592883489E0
1.047886101E0,-5.982056609E-4,9.574581146E0,-4.139583111E-1,9.583525759E0
1.050329798E0,1.136590727E-2,9.574581146E0,-4.235295951E-1,9.583950680E0
1.052774278E0,1.794616925E-3,9.565009117E0,-4.139583111E-1,9.573962822E0
1.055219642E0,4.187439568E-3,9.574581146E0,-4.067798555E-1,9.583219267E0
1.057664121E0,8.973085321E-3,9.574581146E0,-4.139583111E-1,9.583529941E0
1.060107819E0,1.794616925E-3,9.593723297E0,-4.019941986E-1,9.602141910E0
1.062552298E0,8.973085321E-3,9.572187424E0,-4.378865361E-1,9.582202106E0
1.064997663E0,2.811566554E-2,9.557830811E0,-3.828516304E-1,9.565536873E0
1.067442090E0,1.375873014E-2,9.598508835E0,-4.163511395E-1,9.607544401E0
1.069885788E0,6.580262445E-3,9.584152222E0,-4.354937077E-1,9.594043562E0
1.072330371E0,1.794616925E-3,9.560223579E0,-4.067798555E-1,9.568873913E0
1.074775684E0,6.580262445E-3,9.560223579E0,-4.043870270E-1,9.568774585E0
1.077220111E0,6.580262445E-3,9.576973915E0,-4.067798555E-1,9.585611223E0
1.079663809E0,-7.776673418E-3,9.576973915E0,-4.043870270E-1,9.585510874E0
1.082108392E0,1.794616925E-3,9.579366684E0,-4.235295951E-1,9.588724973E0
1.084553653E0,1.615155302E-2,9.569794655E0,-4.331009090E-1,9.579603698E0
1.086998132E0,1.794616925E-3,9.579366684E0,-4.163511395E-1,9.588410586E0
1.089441830E0,3.050848842E-2,9.574581146E0,-4.163511395E-1,9.583677956E0
1.091886413E0,1.854437590E-2,9.562616348E0,-4.331009090E-1,9.572437083E0
1.094331673E0,1.615155302E-2,9.586544991E0,-3.972085714E-1,9.594784019E0
1.096776153E0,1.136590727E-2,9.584152222E0,-3.948157430E-1,9.592287655E0
1.099219851E0,-1.734796353E-2,9.569794655E0,-3.996013701E-1,9.578149714E0
1.101664330E0,2.093719877E-2,9.579366684E0,-4.115654826E-1,9.588226665E0
1.104109694E0,6.580262445E-3,9.591330528E0,-4.139583111E-1,9.600261772E0
1.106554173E0,1.136590727E-2,9.584152222E0,-3.948157430E-1,9.592287655E0
1.108997871E0,-2.991028363E-3,9.572187424E0,-4.091726840E-1,9.580929146E0
1.111442351E0,6.580262445E-3,9.581759453E0,-4.331009090E-1,9.591544918E0
1.113887715E0,1.615155302E-2,9.586544991E0,-4.235295951E-1,9.595909704E0
1.116332142E0,1.794616925E-3,9.576973915E0,-4.019941986E-1,9.585407238E0
1.118775892E0,1.136590727E-2,9.581759453E0,-4.235295951E-1,9.591121974E0
1.121220371E0,4.187439568E-3,9.584152222E0,-4.211367965E-1,9.593401250E0
1.123665736E0,4.187439568E-3,9.584152222E0,-4.187439680E-1,9.593296506E0
1.126110163E0,-5.383851007E-3,9.588937759E0,-4.354937077E-1,9.598823423E0
1.128553861E0,-5.383851007E-3,9.569794655E0,-4.187439680E-1,9.578953243E0
1.130998444E0,2.093719877E-2,9.586544991E0,-4.139583111E-1,9.595501274E0
1.133443705E0,2.572284266E-2,9.593723297E0,-4.259224236E-1,9.603207708E0
1.135888184E0,6.580262445E-3,9.572187424E0,-4.283152521E-1,9.581767547E0
1.138331882E0,6.580262445E-3,9.584152222E0,-4.259224236E-1,9.593613866E0
1.140776465E0,3.768695518E-2,9.576973915E0,-4.354937077E-1,9.586944479E0
1.143221726E0,1.854437590E-2,9.586544991E0,-4.259224236E-1,9.596019939E0
1.145666205E0,-5.982056609E-4,9.581759453E0,-3.996013701E-1,9.590088416E0
1.148109903E0,6.580262445E-3,9.584152222E0,-4.019941986E-1,9.592581323E0
1.150554486E0,1.794616925E-3,9.567401886E0,-4.115654826E-1,9.576250217E0
1.152999746E0,4.187439568E-3,9.579366684E0,-4.259224236E-1,9.588831707E0
1.155444226E0,-1.256231871E-2,9.581759453E0,-4.235295951E-1,9.591123466E0
1.157887923E0,-7.776673418E-3,9.557830811E0,-4.235295951E-1,9.567213157E0
1.160332403E0,4.187439568E-3,9.560223579E0,-4.139583111E-1,9.569182510E0
1.162777767E0,1.854437590E-2,9.574581146E0,-4.019941986E-1,9.583034350E0
1.165222194E0,1.794616925E-3,9.588937759E0,-4.115654826E-1,9.597766236E0
1.167665944E0,-5.982056609E-4,9.579366684E0,-4.354937077E-1,9.589260722E0
1.170110423E0,-5.383851007E-3,9.586544991E0,-4.163511395E-1,9.595583469E0
1.172555788E0,-5.982056609E-4,9.579366684E0,-4.163511395E-1,9.588410436E0
1.175000215E0,-1.016949583E-2,9.591330528E0,-4.091726840E-1,9.600059740E0
1.177443965E0,-2.991028363E-3,9.584152222E0,-4.259224236E-1,9.593612076E0
1.179888444E0,1.375873014E-2,9.579366684E0,-4.211367965E-1,9.588629285E0
1.182333809E0,1.136590727E-2,9.586544991E0,-4.235295951E-1,9.595902842E0
1.184778236E0,-2.991028363E-3,9.569794655E0,-4.187439680E-1,9.578952197E0
1.187221934E0,6.580262445E-3,9.584152222E0,-4.139583111E-1,9.593090148E0
1.189666517E0,-5.982056609E-4,9.574581146E0,-4.235295951E-1,9.583943959E0
1.192111778E0,1.375873014E-2,9.586544991E0,-4.163511395E-1,9.595591823E0
1.194556257E0,-2.991028363E-3,9.584152222E0,-4.091726840E-1,9.592883041E0
1.196999955E0,6.580262445E-3,9.562616348E0,-4.235295951E-1,9.571993107E0
1.199444434E0,4.187439568E-3,9.565009117E0,-3.876372576E-1,9.572861620E0
1.201889798E0,-2.991028363E-3,9.574581146E0,-4.067798555E-1,9.583218818E0
1.204334278E0,1.615155302E-2,9.572187424E0,-4.091726840E-1,9.580942294E0
1.206777976E0,1.375873014E-2,9.586544991E0,-4.067798555E-1,9.595181291E0
1.209222455E0,1.794616925E-3,9.574581146E0,-4.163511395E-1,9.583629564E0
1.211667819E0,1.375873014E-2,9.579366684E0,-4.283152521E-1,9.588947248E0
1.214112298E0,1.615155302E-2,9.574581146E0,-4.235295951E-1,9.583957550E0
1.216555996E0,4.187439568E-3,9.565009117E0,-4.139583111E-1,9.573963569E0
1.219000476E0,6.580262445E-3,9.572187424E0,-4.139583111E-1,9.581136512E0
1.221445840E0,1.854437590E-2,9.584152222E0,-4.067798555E-1,9.592798734E0
1.223890267E0,1.375873014E-2,9.572187424E0,-4.354937077E-1,9.582098734E0
1.226334017E0,1.136590727E-2,9.557830811E0,-4.211367965E-1,9.567111120E0
1.228778496E0,1.615155302E-2,9.579366684E0,-4.474578202E-1,9.589825100E0
1.231223861E0,3.050848842E-2,9.576973915E0,-4.283152521E-1,9.586595542E0
1.233668288E0,8.973085321E-3,9.600901604E0,-3.996013701E-1,9.609218146E0
1.236111986E0,4.187439568E-3,9.562616348E0,-3.972085714E-1,9.570863263E0
1.238556569E0,2.572284266E-2,9.581759453E0,-4.211367965E-1,9.591044368E0
1.241001882E0,1.615155302E-2,9.596116066E0,-4.259224236E-1,9.605577252E0
1.243446309E0,2.333002165E-2,9.557830811E0,-4.043870270E-1,9.566410140E0
1.245890007E0,6.580262445E-3,9.581759453E0,-4.043870270E-1,9.590291256E0
1.248334590E0,6.580262445E-3,9.569794655E0,-4.163511395E-1,9.578849686E0
1.250779851E0,1.375873014E-2,9.584152222E0,-4.259224236E-1,9.593621476E0
1.253224330E0,2.093719877E-2,9.576973915E0,-4.139583111E-1,9.585939141E0
1.255668028E0,2.093719877E-2,9.560223579E0,-4.115654826E-1,9.569101285E0
1.258112611E0,8.973085321E-3,9.593723297E0,-4.331009090E-1,9.603498509E0
1.260557871E0,1.615155302E-2,9.584152222E0,-4.211367965E-1,9.593413933E0
1.263002351E0,2.333002165E-2,9.591330528E0,-4.067798555E-1,9.599981013E0
1.265446048E0,-7.776673418E-3,9.572187424E0,-4.283152521E-1,9.581768444E0
1.267890528E0,-5.982056609E-4,9.579366684E0,-4.043870270E-1,9.587898377E0
1.270335892E0,1.854437590E-2,9.579366684E0,-4.139583111E-1,9.588324746E0
1.272780371E0,1.375873014E-2,9.569794655E0,-4.067798555E-1,9.578446058E0
1.275224069E0,-5.383851007E-3,9.572187424E0,-4.115654826E-1,9.581032680E0
1.277668548E0,2.333002165E-2,9.567401886E0,-4.091726840E-1,9.576175929E0
1.280113913E0,1.375873014E-2,9.588937759E0,-4.235295951E-1,9.598296410E0
1.282558340E0,1.136590727E-2,9.579366684E0,-4.307080805E-1,9.589051293E0
1.285002038E0,-5.383851007E-3,9.572187424E0,-3.996013701E-1,9.580526202E0
1.287446621E0,-5.383851007E-3,9.584152222E0,-4.187439680E-1,9.593297103E0
1.289891934E0,4.187439568E-3,9.572187424E0,-4.139583111E-1,9.581135167E0
1.292336361E0,2.093719877E-2,9.574581146E0,-4.067798555E-1,9.583241223E0
1.294780059E0,-5.383851007E-3,9.569794655E0,-4.115654826E-1,9.578642120E0
1.297224642E0,8.973085321E-3,9.574581146E0,-4.187439680E-1,9.583737849E0
1.299669955E0,1.136590727E-2,9.586544991E0,-3.996013701E-1,9.594876513E0
1.302114382E0,2.093719877E-2,9.588937759E0,-4.091726840E-1,9.597686597E0
1.304558080E0,1.615155302E-2,9.572187424E0,-4.354937077E-1,9.582102468E0
1.307002663E0,1.854437590E-2,9.588937759E0,-4.163511395E-1,9.597990390E0
1.309447923E0,6.580262445E-3,9.569794655E0,-4.043870270E-1,9.578337116E0
1.311892403E0,-1.016949583E-2,9.565009117E0,-4.067798555E-1,9.573660360E0
1.314336101E0,-1.256231871E-2,9.588937759E0,-4.235295951E-1,9.598294770E0
1.316780684E0,-5.982056609E-4,9.565009117E0,-4.091726840E-1,9.573756946E0
1.319225944E0,2.572284266E-2,9.576973915E0,-4.235295951E-1,9.586368883E0
1.321670423E0,1.794616925E-3,9.581759453E0,-4.211367965E-1,9.591010042E0
1.324114121E0,8.973085321E-3,9.596116066E0,-4.091726840E-1,9.604839736E0
1.326558601E0,1.615155302E-2,9.567401886E0,-4.354937077E-1,9.577321885E0
1.329003965E0,-2.991028363E-3,9.581759453E0,-4.115654826E-1,9.590594836E0
1.331448444E0,6.580262445E-3,9.581759453E0,-4.211367965E-1,9.591012132E0
1.333892142E0,8.973085321E-3,9.581759453E0,-3.948157430E-1,9.589894379E0
1.336336621E0,8.973085321E-3,9.596116066E0,-4.043870270E-1,9.604637054E0
1.338781986E0,-5.383851007E-3,9.586544991E0,-4.235295951E-1,9.595897621E0
1.341226413E0,-5.383851007E-3,9.576973915E0,-4.235295951E-1,9.586335884E0
1.343670163E0,8.973085321E-3,9.569794655E0,-4.019941986E-1,9.578238334E0
1.346114642E0,-1.495514158E-2,9.579366684E0,-4.115654826E-1,9.588215468E0
1.348560007E0,-1.016949583E-2,9.576973915E0,-4.307080805E-1,9.586659598E0
1.351004434E0,6.580262445E-3,9.588937759E0,-4.354937077E-1,9.598824169E0
1.353448132E0,-5.383851007E-3,9.579366684E0,-4.163511395E-1,9.588411929E0
1.355892715E0,6.580262445E-3,9.567401886E0,-4.115654826E-1,9.576252309E0
1.358338028E0,4.187439568E-3,9.576973915E0,-4.378865361E-1,9.586980313E0
1.360782455E0,4.187439568E-3,9.567401886E0,-4.378865361E-1,9.577418285E0
1.363227038E0,1.615155302E-2,9.560223579E0,-3.924229145E-1,9.568287804E0
1.365670684E0,-5.383851007E-3,9.565009117E0,-4.043870270E-1,9.573555101E0
1.368115996E0,6.580262445E-3,9.579366684E0,-4.139583111E-1,9.588309071E0
1.370560476E0,-2.991028363E-3,9.574581146E0,-4.139583111E-1,9.583526207E0
1.373004173E0,1.375873014E-2,9.572187424E0,-4.091726840E-1,9.580938559E0
1.375448757E0,2.093719877E-2,9.584152222E0,-4.235295951E-1,9.593528521E0
1.377894017E0,2.093719877E-2,9.569794655E0,-4.163511395E-1,9.578870308E0
1.380338496E0,4.187439568E-3,9.598508835E0,-3.948157430E-1,9.606626299E0
1.382782194E0,-5.383851007E-3,9.581759453E0,-4.283152521E-1,9.591329269E0
1.385226673E0,1.794616925E-3,9.572187424E0,-4.115654826E-1,9.581031335E0
1.387672038E0,1.854437590E-2,9.579366684E0,-4.139583111E-1,9.588324746E0
1.390116517E0,1.615155302E-2,9.572187424E0,-4.067798555E-1,9.580840401E0
1.392560215E0,2.093719877E-2,9.574581146E0,-4.163511395E-1,9.583652266E0
1.395004694E0,4.187439568E-3,9.569794655E0,-4.259224236E-1,9.579269136E0
1.397450059E0,-7.776673418E-3,9.579366684E0,-4.091726840E-1,9.588104548E0
1.399894486E0,1.854437590E-2,9.553045273E0,-4.163511395E-1,9.562131883E0
1.402338236E0,1.794616925E-3,9.574581146E0,-4.043870270E-1,9.583117249E0
1.404782715E0,2.572284266E-2,9.581759453E0,-4.163511395E-1,9.590835425E0
1.407228080E0,-1.974078640E-2,9.572187424E0,-4.019941986E-1,9.580645130E0
1.409672507E0,1.854437590E-2,9.588937759E0,-4.067798555E-1,9.597579961E0
1.412116205E0,-1.495514158E-2,9.581759453E0,-4.115654826E-1,9.590606030E0
1.414560788E0,1.136590727E-2,9.576973915E0,-4.139583111E-1,9.585923014E0
1.417006101E0,1.375873014E-2,9.569794655E0,-4.115654826E-1,9.578650489E0
1.419450528E0,1.136590727E-2,9.584152222E0,-4.163511395E-1,9.593198177E0
1.421894226E0,-7.776673418E-3,9.567401886E0,-4.115654826E-1,9.576253206E0
1.424338809E0,6.580262445E-3,9.565009117E0,-4.139583111E-1,9.573964915E0
1.426784121E0,8.973085321E-3,9.557830811E0,-4.115654826E-1,9.566692034E0
1.429228548E0,-1.256231871E-2,9.574581146E0,-3.924229145E-1,9.582627911E0
1.431672246E0,6.580262445E-3,9.569794655E0,-3.804588020E-1,9.577356730E0
1.434116830E0,-2.991028363E-3,9.586544991E0,-4.211367965E-1,9.595791265E0
1.436562090E0,2.333002165E-2,9.574581146E0,-4.139583111E-1,9.583554137E0
1.439006569E0,4.187439568E-3,9.581759453E0,-4.091726840E-1,9.590492898E0
1.441450267E0,-7.776673418E-3,9.565009117E0,-4.163511395E-1,9.574069571E0
1.443894851E0,6.580262445E-3,9.567401886E0,-3.996013701E-1,9.575745579E0
1.446340111E0,-2.991028363E-3,9.574581146E0,-3.876372576E-1,9.582425357E0
1.448784590E0,2.093719877E-2,9.579366684E0,-4.067798555E-1,9.588022439E0
1.451228288E0,-5.982056609E-4,9.576973915E0,-4.115654826E-1,9.585813261E0
1.453672767E0,1.794616925E-3,9.579366684E0,-4.115654826E-1,9.588203973E0
1.456118132E0,1.375873014E-2,9.581759453E0,-4.139583111E-1,9.590707221E0
1.458562611E0,8.973085321E-3,9.600901604E0,-4.187439680E-1,9.610033227E0
1.461006309E0,2.093719877E-2,9.586544991E0,-3.948157430E-1,9.594694508E0
1.463450788E0,-5.383851007E-3,9.584152222E0,-4.019941986E-1,9.592580577E0
1.465896153E0,1.615155302E-2,9.567401886E0,-4.115654826E-1,9.576263669E0
1.468340580E0,8.973085321E-3,9.574581146E0,-4.067798555E-1,9.583222553E0
1.470784330E0,-2.991028363E-3,9.586544991E0,-4.019941986E-1,9.594970200E0
1.473228809E0,-5.982056609E-4,9.574581146E0,-4.235295951E-1,9.583943959E0
1.475674173E0,8.973085321E-3,9.569794655E0,-4.211367965E-1,9.579060834E0
1.478118601E0,6.580262445E-3,9.574581146E0,-4.211367965E-1,9.583840756E0
1.480562351E0,-2.991028363E-3,9.576973915E0,-4.187439680E-1,9.586124599E0
1.483006830E0,-1.016949583E-2,9.572187424E0,-3.900300860E-1,9.580135644E0
1.485452194E0,1.794616925E-3,9.586544991E0,-4.091726840E-1,9.595273334E0
1.487896621E0,6.580262445E-3,9.579366684E0,-4.211367965E-1,9.588621672E0
1.490340319E0,1.794616925E-3,9.567401886E0,-4.115654826E-1,9.576250217E0
1.492784903E0,1.375873014E-2,9.593723297E0,-4.331009090E-1,9.603504173E0
1.495230215E0,-2.991028363E-3,9.584152222E0,-3.972085714E-1,9.592380174E0
1.497674642E0,1.375873014E-2,9.572187424E0,-4.187439680E-1,9.581352091E0
1.500118340E0,1.794616925E-3,9.596116066E0,-4.115654826E-1,9.604937945E0
1.502562923E0,1.375873014E-2,9.596116066E0,-3.948157430E-1,9.604244495E0
1.505008184E0,2.572284266E-2,9.565009117E0,-4.067798555E-1,9.573689515E0
1.507452663E0,-1.734796353E-2,9.562616348E0,-3.972085714E-1,9.570878070E0
1.509896361E0,4.187439568E-3,9.581759453E0,-4.067798555E-1,9.590391108E0
1.512340840E0,-5.982056609E-4,9.574581146E0,-4.067798555E-1,9.583218370E0
1.514786205E0,1.615155302E-2,9.576973915E0,-4.043870270E-1,9.585521327E0
1.517230684E0,2.811566554E-2,9.586544991E0,-4.019941986E-1,9.595010927E0
1.519674382E0,1.794616925E-3,9.579366684E0,-4.163511395E-1,9.588410586E0
1.522118861E0,6.580262445E-3,9.565009117E0,-4.067798555E-1,9.573657220E0
1.524564226E0,-2.991028363E-3,9.584152222E0,-4.259224236E-1,9.593612076E0
1.527008653E0,1.375873014E-2,9.569794655E0,-4.187439680E-1,9.578961611E0
1.529452403E0,6.580262445E-3,9.560223579E0,-4.115654826E-1,9.569080642E0
1.531896882E0,4.187439568E-3,9.560223579E0,-4.091726840E-1,9.568976680E0
1.534342246E0,4.187439568E-3,9.584152222E0,-4.211367965E-1,9.593401250E0
1.536786673E0,8.973085321E-3,9.576973915E0,-4.115654826E-1,9.585817442E0
1.539230423E0,1.854437590E-2,9.569794655E0,-4.211367965E-1,9.579074581E0
1.541674903E0,1.615155302E-2,9.550652504E0,-4.307080805E-1,9.560373088E0
1.544120267E0,1.615155302E-2,9.572187424E0,-4.067798555E-1,9.580840401E0
1.546564694E0,2.572284266E-2,9.586544991E0,-4.091726840E-1,9.595307645E0
1.549008392E0,1.794616925E-3,9.579366684E0,-3.948157430E-1,9.587499609E0
1.551452976E0,1.615155302E-2,9.586544991E0,-4.307080805E-1,9.596229217E0
1.553898288E0,2.093719877E-2,9.560223579E0,-4.115654826E-1,9.569101285E0
1.556342715E0,2.333002165E-2,9.579366684E0,-3.900300860E-1,9.587331945E0
1.558786413E0,4.187439568E-3,9.584152222E0,-4.067798555E-1,9.592781723E0
1.561230996E0,1.615155302E-2,9.565009117E0,-4.091726840E-1,9.573770551E0
1.563676309E0,-5.383851007E-3,9.569794655E0,-4.259224236E-1,9.579269734E0
1.566120736E0,2.572284266E-2,9.576973915E0,-4.498506486E-1,9.587567817E0
1.568564434E0,1.136590727E-2,9.588937759E0,-4.235295951E-1,9.598293278E0
1.571009017E0,1.615155302E-2,9.560223579E0,-4.115654826E-1,9.569092011E0
1.573454278E0,3.050848842E-2,9.584152222E0,-3.996013701E-1,9.592527604E0
1.575898757E0,2.093719877E-2,9.579366684E0,-4.091726840E-1,9.588124254E0
1.578342455E0,1.375873014E-2,9.581759453E0,-4.283152521E-1,9.591337627E0
1.580787038E0,4.187439568E-3,9.586544991E0,-4.115654826E-1,9.595376415E0
1.583232298E0,-1.016949583E-2,9.598508835E0,-4.091726840E-1,9.607231524E0
1.585676778E0,-2.991028363E-3,9.610472679E0,-4.067798555E-1,9.619078122E0
1.588120476E0,1.794616925E-3,9.574581146E0,-4.235295951E-1,9.583944108E0
1.590564955E0,6.580262445E-3,9.576973915E0,-4.067798555E-1,9.585611223E0
1.593010319E0,-7.776673418E-3,9.579366684E0,-4.091726840E-1,9.588104548E0
1.595454798E0,2.093719877E-2,9.584152222E0,-3.948157430E-1,9.592303772E0
1.597898496E0,8.973085321E-3,9.576973915E0,-4.115654826E-1,9.585817442E0
1.600342976E0,6.580262445E-3,9.567401886E0,-4.139583111E-1,9.576355446E0
1.602788340E0,1.794616925E-3,9.584152222E0,-3.948157430E-1,9.592281089E0
1.605232767E0,1.854437590E-2,9.586544991E0,-4.091726840E-1,9.595291087E0
1.607676517E0,-2.991028363E-3,9.560223579E0,-4.259224236E-1,9.569707088E0
1.610120996E0,1.375873014E-2,9.579366684E0,-4.187439680E-1,9.588524489E0
1.612566361E0,1.794616925E-3,9.565009117E0,-4.139583111E-1,9.573962822E0
1.615010788E0,1.136590727E-2,9.567401886E0,-4.211367965E-1,9.576672921E0
1.617454538E0,4.187439568E-3,9.581759453E0,-4.067798555E-1,9.590391108E0
1.619899017E0,-5.383851007E-3,9.603294373E0,-4.211367965E-1,9.612525578E0
1.622344382E0,8.973085321E-3,9.574581146E0,-4.139583111E-1,9.583529941E0
1.624788809E0,1.794616925E-3,9.579366684E0,-4.139583111E-1,9.588306981E0
1.627232507E0,4.187439568E-3,9.586544991E0,-4.067798555E-1,9.595172340E0
1.629677090E0,1.375873014E-2,9.591330528E0,-4.163511395E-1,9.600372851E0
1.632122403E0,2.093719877E-2,9.569794655E0,-4.259224236E-1,9.579291102E0
1.634566830E0,1.794616925E-3,9.596116066E0,-3.972085714E-1,9.604333471E0
1.637010528E0,1.794616925E-3,9.581759453E0,-4.019941986E-1,9.590188568E0
1.639455111E0,-2.991028363E-3,9.572187424E0,-4.307080805E-1,9.581873015E0
1.641900423E0,1.136590727E-2,9.581759453E0,-4.067798555E-1,9.590396929E0
1.644344851E0,1.794616925E-3,9.586544991E0,-4.211367965E-1,9.595790967E0
1.646788548E0,4.187439568E-3,9.569794655E0,-4.067798555E-1,9.578437092E0
1.649233132E0,1.136590727E-2,9.576973915E0,-4.211367965E-1,9.586235693E0
1.651678392E0,1.375873014E-2,9.588937759E0,-4.139583111E-1,9.597878835E0
1.654122871E0,2.093719877E-2,9.569794655E0,-4.187439680E-1,9.578974612E0
1.656566569E0,4.187439568E-3,9.557830811E0,-4.043870270E-1,9.566382608E0
1.659011153E0,1.794616925E-3,9.576973915E0,-4.115654826E-1,9.585813410E0
1.661456413E0,8.973085321E-3,9.579366684E0,-4.211367965E-1,9.588623613E0
1.663900892E0,1.794616925E-3,9.574581146E0,-3.900300860E-1,9.582522153E0
1.666344590E0,1.854437590E-2,9.572187424E0,-4.235295951E-1,9.581570502E0
1.668789069E0,-5.383851007E-3,9.579366684E0,-4.307080805E-1,9.589046068E0
1.671234434E0,2.811566554E-2,9.560223579E0,-4.115654826E-1,9.569119684E0
1.673678913E0,4.187439568E-3,9.572187424E0,-4.163511395E-1,9.581238849E0
1.676122611E0,2.093719877E-2,9.576973915E0,-4.235295951E-1,9.586357236E0
1.678567090E0,1.136590727E-2,9.586544991E0,-3.852444589E-1,9.594289308E0
1.681012455E0,4.187439568E-3,9.579366684E0,-4.043870270E-1,9.587899273E0
1.683456934E0,1.854437590E-2,9.579366684E0,-4.187439680E-1,9.588532550E0
1.685900632E0,-7.776673418E-3,9.579366684E0,-4.283152521E-1,9.588940531E0
1.688345111E0,1.615155302E-2,9.576973915E0,-4.019941986E-1,9.585420678E0
1.690790476E0,1.375873014E-2,9.584152222E0,-4.163511395E-1,9.593201310E0
1.693234903E0,1.854437590E-2,9.596116066E0,-4.139583111E-1,9.605058507E0
1.695678601E0,-5.383851007E-3,9.567401886E0,-4.307080805E-1,9.577093363E0
1.698123184E0,-2.991028363E-3,9.581759453E0,-4.067798555E-1,9.590390660E0
1.700568496E0,6.580262445E-3,9.569794655E0,-3.948157430E-1,9.577937800E0
1.703012923E0,-2.991028363E-3,9.569794655E0,-4.067798555E-1,9.578436643E0
1.705456621E0,1.136590727E-2,9.576973915E0,-4.019941986E-1,9.585413809E0
1.707901205E0,1.136590727E-2,9.565009117E0,-4.091726840E-1,9.573763674E0
1.710346517E0,1.136590727E-2,9.569794655E0,-3.948157430E-1,9.577942284E0
1.712790944E0,1.136590727E-2,9.584152222E0,-4.402793646E-1,9.594266460E0
1.715234642E0,-5.982056609E-4,9.567401886E0,-4.139583111E-1,9.576353204E0
1.717679226E0,2.093719877E-2,9.584152222E0,-4.187439680E-1,9.593318440E0
1.720124486E0,8.973085321E-3,9.572187424E0,-4.259224236E-1,9.581662826E0
1.722568965E0,4.187439568E-3,9.576973915E0,-4.019941986E-1,9.585407985E0
1.725012663E0,-5.982056609E-4,9.593723297E0,-3.876372576E-1,9.601551422E0
1.727457246E0,2.333002165E-2,9.581759453E0,-4.115654826E-1,9.590622746E0
1.729902507E0,1.136590727E-2,9.569794655E0,-4.139583111E-1,9.578750461E0
1.732346986E0,2.093719877E-2,9.576973915E0,-4.139583111E-1,9.585939141E0
1.734790684E0,1.375873014E-2,9.569794655E0,-4.019941986E-1,9.578244013E0
1.737235267E0,1.136590727E-2,9.579366684E0,-3.996013701E-1,9.587704444E0
1.739680528E0,1.136590727E-2,9.588937759E0,-4.283152521E-1,9.598505639E0
1.742125007E0,-7.776673418E-3,9.584152222E0,-4.067798555E-1,9.592783962E0
1.744568705E0,4.187439568E-3,9.567401886E0,-4.163511395E-1,9.576457834E0
1.747013184E0,2.333002165E-2,9.593723297E0,-4.139583111E-1,9.602678401E0
1.749458548E0,-5.982056609E-4,9.576973915E0,-4.163511395E-1,9.586019925E0
1.751903028E0,1.136590727E-2,9.572187424E0,-4.139583111E-1,9.581140994E0
1.754346726E0,-5.383851007E-3,9.586544991E0,-4.163511395E-1,9.595583469E0
1.756791205E0,8.973085321E-3,9.576973915E0,-4.091726840E-1,9.585715006E0
1.759236569E0,1.136590727E-2,9.586544991E0,-4.067798555E-1,9.595178158E0
1.761681048E0,1.375873014E-2,9.562616348E0,-4.043870270E-1,9.571172843E0
1.764124746E0,-2.991028363E-3,9.576973915E0,-4.163511395E-1,9.586020373E0
1.766569226E0,1.794616925E-3,9.572187424E0,-4.163511395E-1,9.581238102E0
1.769014590E0,1.615155302E-2,9.572187424E0,-3.996013701E-1,9.580538304E0
1.771459017E0,4.187439568E-3,9.579366684E0,-4.163511395E-1,9.588411332E0
1.773902767E0,6.580262445E-3,9.567401886E0,-4.067798555E-1,9.576047828E0
1.776347246E0,8.973085321E-3,9.572187424E0,-4.019941986E-1,9.580628994E0
1.778792611E0,1.136590727E-2,9.579366684E0,-4.043870270E-1,9.587905095E0
1.781237038E0,1.794616925E-3,9.579366684E0,-4.259224236E-1,9.588830961E0
1.783680788E0,1.375873014E-2,9.591330528E0,-4.187439680E-1,9.600476921E0
1.786125267E0,1.854437590E-2,9.560223579E0,-4.139583111E-1,9.569199562E0
1.788570632E0,1.136590727E-2,9.574581146E0,-4.019941986E-1,9.583023147E0
1.791015059E0,1.615155302E-2,9.569794655E0,-4.139583111E-1,9.578757335E0
1.793458757E0,4.187439568E-3,9.565009117E0,-4.163511395E-1,9.574067329E0
1.795903340E0,8.973085321E-3,9.588937759E0,-4.163511395E-1,9.597976669E0
1.798348653E0,1.136590727E-2,9.591330528E0,-3.996013701E-1,9.599657897E0
1.800793080E0,4.187439568E-3,9.584152222E0,-3.924229145E-1,9.592183645E0
1.803236778E0,-1.256231871E-2,9.574581146E0,-4.211367965E-1,9.583846730E0
1.805681361E0,-5.982056609E-4,9.581759453E0,-4.187439680E-1,9.590905123E0
1.808126621E0,1.794616925E-3,9.584152222E0,-4.139583111E-1,9.593088059E0
1.810571101E0,1.136590727E-2,9.579366684E0,-3.924229145E-1,9.587407939E0
1.813014798E0,1.615155302E-2,9.574581146E0,-4.115654826E-1,9.583436291E0
1.815459382E0,6.580262445E-3,9.586544991E0,-4.235295951E-1,9.595898367E0
1.817904642E0,1.136590727E-2,9.576973915E0,-4.091726840E-1,9.585717544E0
1.820349121E0,6.580262445E-3,9.574581146E0,-4.067798555E-1,9.583220611E0
1.822792819E0,-2.991028363E-3,9.562616348E0,-3.876372576E-1,9.570470365E0
1.825237403E0,1.794616925E-3,9.574581146E0,-4.115654826E-1,9.583422848E0
1.827682663E0,1.854437590E-2,9.593723297E0,-4.067798555E-1,9.602361191E0
1.830127142E0,-1.974078640E-2,9.586544991E0,-4.043870270E-1,9.595090590E0
1.832570840E0,1.136590727E-2,9.579366684E0,-4.043870270E-1,9.587905095E0
1.835015319E0,1.794616925E-3,9.576973915E0,-4.139583111E-1,9.585916444E0
1.837460684E0,1.794616925E-3,9.569794655E0,-4.091726840E-1,9.578538262E0
1.839905163E0,-2.991028363E-3,9.586544991E0,-4.019941986E-1,9.594970200E0
1.842348861E0,-5.982056609E-4,9.569794655E0,-3.972085714E-1,9.578034493E0
1.844793340E0,-5.982056609E-4,9.574581146E0,-4.139583111E-1,9.583525759E0
1.847238705E0,1.375873014E-2,9.572187424E0,-4.067798555E-1,9.580836666E0
1.849683132E0,-1.016949583E-2,9.569794655E0,-4.115654826E-1,9.578646006E0
1.852126882E0,4.187439568E-3,9.586544991E0,-4.115654826E-1,9.595376415E0
1.854571361E0,1.136590727E-2,9.588937759E0,-4.163511395E-1,9.597979204E0
1.857016726E0,1.136590727E-2,9.574581146E0,-4.019941986E-1,9.583023147E0
1.859461153E0,-7.776673418E-3,9.572187424E0,-4.067798555E-1,9.580829943E0
1.861904903E0,3.768695518E-2,9.567401886E0,-3.996013701E-1,9.575817480E0
1.864349382E0,2.093719877E-2,9.572187424E0,-4.187439680E-1,9.581365088E0
1.866794746E0,-1.256231871E-2,9.584152222E0,-4.115654826E-1,9.592993160E0
1.869239173E0,1.136590727E-2,9.562616348E0,-3.948157430E-1,9.570770088E0
1.871682871E0,-5.982056609E-4,9.579366684E0,-4.019941986E-1,9.587797753E0
1.874127455E0,2.811566554E-2,9.565009117E0,-4.187439680E-1,9.574212052E0
1.876572767E0,-5.982056609E-4,9.593723297E0,-4.211367965E-1,9.602962213E0
1.879017194E0,1.854437590E-2,9.560223579E0,-4.163511395E-1,9.569303373E0
1.881460892E0,-1.016949583E-2,9.586544991E0,-4.139583111E-1,9.595483821E0
1.883905476E0,6.580262445E-3,9.574581146E0,-4.331009090E-1,9.584373940E0
1.886350788E0,4.187439568E-3,9.572187424E0,-4.115654826E-1,9.581032082E0
1.888795215E0,-5.982056609E-4,9.565009117E0,-3.900300860E-1,9.572957915E0
1.891238913E0,1.136590727E-2,9.576973915E0,-3.900300860E-1,9.584919510E0
1.893683496E0,1.136590727E-2,9.586544991E0,-4.331009090E-1,9.596330050E0
1.896128757E0,-5.982056609E-4,9.576973915E0,-3.972085714E-1,9.585207581E0
1.898573236E0,2.572284266E-2,9.576973915E0,-4.402793646E-1,9.587123497E0
1.901016934E0,-5.982056609E-4,9.586544991E0,-4.043870270E-1,9.595070301E0
1.903461517E0,1.615155302E-2,9.584152222E0,-4.043870270E-1,9.592693237E0
1.905906778E0,-5.982056609E-4,9.588937759E0,-4.307080805E-1,9.598606001E0
1.908351257E0,1.375873014E-2,9.567401886E0,-4.091726840E-1,9.576157394E0
1.910794955E0,6.580262445E-3,9.569794655E0,-4.163511395E-1,9.578849686E0
1.913239538E0,-5.982056609E-4,9.569794655E0,-4.211367965E-1,9.579056650E0
1.915684798E0,1.794616925E-3,9.579366684E0,-4.187439680E-1,9.588514786E0
1.918129278E0,-5.982056609E-4,9.576973915E0,-3.876372576E-1,9.584815719E0
1.920572976E0,4.187439568E-3,9.567401886E0,-4.043870270E-1,9.575945136E0
1.923017455E0,1.375873014E-2,9.567401886E0,-4.019941986E-1,9.575853356E0
1.925462819E0,1.375873014E-2,9.581759453E0,-4.139583111E-1,9.590707221E0
1.927907298E0,-1.016949583E-2,9.574581146E0,-4.378865361E-1,9.584594523E0
1.930350996E0,1.854437590E-2,9.579366684E0,-3.972085714E-1,9.587616211E0
1.932795476E0,-1.016949583E-2,9.576973915E0,-4.235295951E-1,9.586339766E0
1.935240840E0,2.572284266E-2,9.574581146E0,-4.115654826E-1,9.583457202E0
1.937685267E0,-7.776673418E-3,9.579366684E0,-4.067798555E-1,9.588002732E0
1.940129017E0,1.794616925E-3,9.576973915E0,-4.091726840E-1,9.585710974E0
1.942573496E0,-5.383851007E-3,9.581759453E0,-4.067798555E-1,9.590391705E0
1.945018861E0,1.794616925E-3,9.593723297E0,-4.091726840E-1,9.602445116E0
1.947463288E0,1.375873014E-2,9.591330528E0,-3.972085714E-1,9.599561722E0
1.949907038E0,6.580262445E-3,9.576973915E0,-3.900300860E-1,9.584915030E0
1.952351517E0,1.136590727E-2,9.581759453E0,-3.996013701E-1,9.590095133E0
1.954796882E0,-1.016949583E-2,9.576973915E0,-4.163511395E-1,9.586025300E0
1.957241309E0,2.093719877E-2,9.569794655E0,-4.187439680E-1,9.578974612E0
1.959685059E0,6.580262445E-3,9.574581146E0,-3.972085714E-1,9.582819109E0
1.962129538E0,-1.734796353E-2,9.555438042E0,-3.948157430E-1,9.563606882E0
1.964574903E0,1.794616925E-3,9.565009117E0,-4.091726840E-1,9.573757095E0
1.967019330E0,1.794616925E-3,9.562616348E0,-3.876372576E-1,9.570470066E0
1.969463028E0,1.375873014E-2,9.584152222E0,-3.996013701E-1,9.592488956E0
1.971907611E0,1.375873014E-2,9.596116066E0,-4.043870270E-1,9.604642717E0
1.974352923E0,-2.991028363E-3,9.591330528E0,-4.283152521E-1,9.600889761E0
1.976797351E0,6.580262445E-3,9.584152222E0,-3.948157430E-1,9.592283179E0
1.979241048E0,1.375873014E-2,9.574581146E0,-4.378865361E-1,9.584599003E0
1.981685632E0,1.375873014E-2,9.574581146E0,-4.139583111E-1,9.583535616E0
1.984130892E0,6.580262445E-3,9.569794655E0,-4.139583111E-1,9.578745978E0
1.986575371E0,-5.982056609E-4,9.591330528E0,-4.115654826E-1,9.600156655E0
1.989019069E0,-1.016949583E-2,9.572187424E0,-4.211367965E-1,9.581452484E0
1.991463653E0,-2.991028363E-3,9.574581146E0,-3.708875179E-1,9.581762397E0
1.993908913E0,8.973085321E-3,9.567401886E0,-4.163511395E-1,9.576461123E0
1.996353392E0,2.093719877E-2,9.572187424E0,-4.115654826E-1,9.581054044E0
1.998797090E0,8.973085321E-3,9.574581146E0,-3.972085714E-1,9.582821051E0
2.001241673E0,-5.383851007E-3,9.591330528E0,-3.900300860E-1,9.599259021E0
2.003686934E0,1.136590727E-2,9.596116066E0,-4.043870270E-1,9.604639587E0
2.006131413E0,4.187439568E-3,9.572187424E0,-4.019941986E-1,9.580625707E0
2.008575111E0,-1.734796353E-2,9.581759453E0,-4.187439680E-1,9.590920794E0
2.011019590E0,-1.016949583E-2,9.581759453E0,-4.043870270E-1,9.590294391E0
2.013464955E0,1.375873014E-2,9.572187424E0,-4.019941986E-1,9.580634672E0
2.015909434E0,1.794616925E-3,9.588937759E0,-3.900300860E-1,9.596866887E0
2.018353132E0,-1.016949583E-2,9.560223579E0,-4.067798555E-1,9.568879148E0
2.020797611E0,1.615155302E-2,9.579366684E0,-4.187439680E-1,9.588528221E0
2.023242976E0,-1.734796353E-2,9.576973915E0,-4.426721931E-1,9.587214872E0
2.025687403E0,-7.776673418E-3,9.560223579E0,-4.019941986E-1,9.568674657E0
2.028131153E0,1.615155302E-2,9.576973915E0,-4.091726840E-1,9.585724413E0
2.030575632E0,1.794616925E-3,9.586544991E0,-4.091726840E-1,9.595273334E0
2.033020996E0,1.854437590E-2,9.584152222E0,-3.876372576E-1,9.592006065E0
2.035465423E0,1.615155302E-2,9.581759453E0,-4.019941986E-1,9.590202001E0
2.037909173E0,-5.982056609E-4,9.591330528E0,-3.852444589E-1,9.599064275E0
2.040353653E0,1.136590727E-2,9.574581146E0,-3.972085714E-1,9.582823590E0
2.042799017E0,1.375873014E-2,9.567401886E0,-4.043870270E-1,9.575954105E0
2.045243444E0,1.136590727E-2,9.576973915E0,-4.187439680E-1,9.586130870E0
2.047687194E0,-5.383851007E-3,9.576973915E0,-4.091726840E-1,9.585712318E0
2.050131673E0,2.811566554E-2,9.579366684E0,-3.948157430E-1,9.587540666E0
2.052577038E0,4.187439568E-3,9.596116066E0,-3.972085714E-1,9.604334216E0
2.055021465E0,-1.016949583E-2,9.586544991E0,-4.019941986E-1,9.594975123E0
2.057465163E0,-5.982056609E-4,9.579366684E0,-4.067798555E-1,9.587999597E0
2.059909746E0,-5.383851007E-3,9.588937759E0,-4.019941986E-1,9.597361912E0
2.062355059E0,2.333002165E-2,9.593723297E0,-4.067798555E-1,9.602371626E0
2.064799486E0,1.854437590E-2,9.569794655E0,-3.900300860E-1,9.577757415E0
2.067243184E0,1.136590727E-2,9.586544991E0,-4.115654826E-1,9.595382232E0
2.069687767E0,6.580262445E-3,9.565009117E0,-4.139583111E-1,9.573964915E0
2.072133080E0,2.333002165E-2,9.581759453E0,-4.019941986E-1,9.590216777E0
2.074577507E0,2.572284266E-2,9.565009117E0,-4.091726840E-1,9.573791483E0
2.077021205E0,-5.383851007E-3,9.581759453E0,-3.876372576E-1,9.589598836E0
2.079465788E0,8.973085321E-3,9.596116066E0,-4.019941986E-1,9.604536605E0
2.081911101E0,-5.982056609E-4,9.569794655E0,-3.948157430E-1,9.577935559E0
2.084355528E0,4.187439568E-3,9.567401886E0,-4.091726840E-1,9.576148426E0
2.086799226E0,1.854437590E-2,9.572187424E0,-4.115654826E-1,9.581049113E0
2.089243809E0,4.187439568E-3,9.584152222E0,-3.996013701E-1,9.592480002E0
2.091689069E0,-7.776673418E-3,9.584152222E0,-4.091726840E-1,9.592885727E0
2.094133548E0,-5.383851007E-3,9.584152222E0,-4.139583111E-1,9.593089402E0
2.096577246E0,1.375873014E-2,9.579366684E0,-4.211367965E-1,9.588629285E0
2.099021830E0,2.093719877E-2,9.586544991E0,-4.235295951E-1,9.595918952E0
2.101467090E0,-2.991028363E-3,9.596116066E0,-4.019941986E-1,9.604532880E0
2.103911569E0,-1.016949583E-2,9.567401886E0,-4.091726840E-1,9.576152910E0
2.106355267E0,1.136590727E-2,9.581759453E0,-4.091726840E-1,9.590498719E0
2.108799851E0,-5.982056609E-4,9.567401886E0,-4.019941986E-1,9.575843490E0
2.111245111E0,4.187439568E-3,9.565009117E0,-4.091726840E-1,9.573757843E0
2.113689590E0,-7.776673418E-3,9.579366684E0,-4.187439680E-1,9.588517771E0
2.116133288E0,6.580262445E-3,9.576973915E0,-4.067798555E-1,9.585611223E0
2.118577767E0,1.854437590E-2,9.584152222E0,-4.043870270E-1,9.592697565E0
2.121023132E0,6.580262445E-3,9.574581146E0,-4.163511395E-1,9.583631655E0
2.123467611E0,1.375873014E-2,9.581759453E0,-4.163511395E-1,9.590810799E0
2.125911309E0,-5.982056609E-4,9.584152222E0,-4.354937077E-1,9.594041324E0
2.128355788E0,1.794616925E-3,9.567401886E0,-4.139583111E-1,9.576353354E0
2.130801153E0,-5.982056609E-4,9.574581146E0,-3.852444589E-1,9.582328411E0
2.133245632E0,2.333002165E-2,9.598508835E0,-4.283152521E-1,9.608088785E0
2.135689330E0,-2.991028363E-3,9.576973915E0,-3.900300860E-1,9.584913238E0
2.138133809E0,1.136590727E-2,9.591330528E0,-3.972085714E-1,9.599558591E0
2.140579173E0,1.136590727E-2,9.574581146E0,-4.115654826E-1,9.583429420E0
2.143023601E0,-2.991028363E-3,9.569794655E0,-3.876372576E-1,9.577642785E0
2.145467351E0,4.187439568E-3,9.579366684E0,-4.187439680E-1,9.588515532E0
2.147911830E0,8.973085321E-3,9.579366684E0,-4.115654826E-1,9.588208004E0
2.150357194E0,-5.383851007E-3,9.576973915E0,-4.091726840E-1,9.585712318E0
2.152801621E0,1.136590727E-2,9.569794655E0,-4.091726840E-1,9.578544838E0
2.155245371E0,6.580262445E-3,9.581759453E0,-3.900300860E-1,9.589696605E0
2.157689851E0,1.136590727E-2,9.574581146E0,-4.043870270E-1,9.583123821E0
2.160135215E0,6.580262445E-3,9.560223579E0,-4.139583111E-1,9.569183856E0
2.162579642E0,8.973085321E-3,9.586544991E0,-4.115654826E-1,9.595379696E0
2.165023340E0,-2.991028363E-3,9.569794655E0,-3.900300860E-1,9.577739929E0
2.167467923E0,-5.982056609E-4,9.579366684E0,-4.019941986E-1,9.587797753E0
2.169913236E0,1.136590727E-2,9.562616348E0,-4.187439680E-1,9.571787039E0
2.172357663E0,8.973085321E-3,9.586544991E0,-3.996013701E-1,9.594873977E0
2.174801361E0,8.973085321E-3,9.567401886E0,-3.924229145E-1,9.575450648E0
2.177245944E0,-1.974078640E-2,9.576973915E0,-3.948157430E-1,9.585129031E0
2.179691257E0,8.973085321E-3,9.562616348E0,-3.852444589E-1,9.570377486E0
2.182135684E0,1.136590727E-2,9.579366684E0,-4.139583111E-1,9.588313550E0
2.184579382E0,2.093719877E-2,9.581759453E0,-4.115654826E-1,9.590617223E0
2.187023965E0,4.187439568E-3,9.567401886E0,-4.019941986E-1,9.575844387E0
2.189469226E0,-1.016949583E-2,9.572187424E0,-3.924229145E-1,9.580233360E0
2.191913705E0,1.136590727E-2,9.598508835E0,-4.067798555E-1,9.607131252E0
2.194357403E0,4.187439568E-3,9.574581146E0,-3.996013701E-1,9.582917245E0
2.196801986E0,1.854437590E-2,9.565009117E0,-3.948157430E-1,9.573172033E0
2.199247246E0,1.854437590E-2,9.586544991E0,-4.115654826E-1,9.595393421E0
2.201691726E0,2.811566554E-2,9.576973915E0,-4.211367965E-1,9.586270185E0
2.204135423E0,-7.776673418E-3,9.579366684E0,-4.067798555E-1,9.588002732E0
2.206580007E0,1.375873014E-2,9.567401886E0,-4.043870270E-1,9.575954105E0
2.209025267E0,1.854437590E-2,9.579366684E0,-4.187439680E-1,9.588532550E0
2.211469746E0,8.973085321E-3,9.574581146E0,-4.211367965E-1,9.583842697E0
2.213913444E0,1.375873014E-2,9.584152222E0,-4.067798555E-1,9.592790676E0
2.216358028E0,1.375873014E-2,9.588937759E0,-4.163511395E-1,9.597982336E0
2.218803288E0,-2.991028363E-3,9.574581146E0,-4.067798555E-1,9.583218818E0
2.221247767E0,1.136590727E-2,9.581759453E0,-3.996013701E-1,9.590095133E0
2.223691465E0,-5.982056609E-4,9.584152222E0,-4.043870270E-1,9.592679659E0
2.226135944E0,-5.383851007E-3,9.562616348E0,-4.115654826E-1,9.571470449E0
2.228581309E0,2.572284266E-2,9.565009117E0,-3.972085714E-1,9.573287613E0
2.231025788E0,1.136590727E-2,9.565009117E0,-3.996013701E-1,9.573359382E0
2.233469486E0,3.050848842E-2,9.584152222E0,-4.139583111E-1,9.593136404E0
2.235913965E0,1.375873014E-2,9.581759453E0,-3.972085714E-1,9.589998862E0
2.238359330E0,6.580262445E-3,9.576973915E0,-4.091726840E-1,9.585713065E0
2.240803809E0,4.187439568E-3,9.576973915E0,-4.091726840E-1,9.585711721E0
2.243247507E0,1.375873014E-2,9.584152222E0,-3.972085714E-1,9.592389575E0
2.245691986E0,-5.982056609E-4,9.591330528E0,-4.115654826E-1,9.600156655E0
2.248137351E0,2.093719877E-2,9.569794655E0,-4.091726840E-1,9.578560977E0
2.250581830E0,-5.982056609E-4,9.584152222E0,-4.019941986E-1,9.592579085E0
2.253025528E0,-1.016949583E-2,9.579366684E0,-4.259224236E-1,9.588836186E0
2.255470007E0,4.187439568E-3,9.576973915E0,-4.139583111E-1,9.585917191E0
2.257915371E0,1.615155302E-2,9.569794655E0,-4.211367965E-1,9.579070248E0
2.260359798E0,6.580262445E-3,9.567401886E0,-4.067798555E-1,9.576047828E0
2.262803548E0,2.093719877E-2,9.572187424E0,-4.283152521E-1,9.581788163E0
2.265248028E0,4.187439568E-3,9.586544991E0,-4.139583111E-1,9.595479346E0
2.267693392E0,1.375873014E-2,9.586544991E0,-4.043870270E-1,9.595080147E0
2.270137819E0,-5.982056609E-4,9.569794655E0,-4.043870270E-1,9.578334874E0
2.272581517E0,1.794616925E-3,9.574581146E0,-4.067798555E-1,9.583218520E0
2.275026101E0,2.811566554E-2,9.565009117E0,-4.187439680E-1,9.574212052E0
2.277471413E0,2.333002165E-2,9.600901604E0,-4.067798555E-1,9.609543472E0
2.279915840E0,1.136590727E-2,9.574581146E0,-4.259224236E-1,9.584056720E0
2.282359538E0,1.615155302E-2,9.574581146E0,-3.948157430E-1,9.582731577E0
2.284804121E0,1.794616925E-3,9.576973915E0,-4.259224236E-1,9.586440554E0
2.287249434E0,2.093719877E-2,9.584152222E0,-4.283152521E-1,9.593740987E0
2.289693861E0,2.572284266E-2,9.572187424E0,-4.187439680E-1,9.581376741E0
2.292137559E0,2.333002165E-2,9.579366684E0,-4.115654826E-1,9.588232189E0
2.294582142E0,1.615155302E-2,9.562616348E0,-3.996013701E-1,9.570975580E0
2.297027455E0,8.973085321E-3,9.572187424E0,-3.876372576E-1,9.580037329E0
2.299471882E0,8.973085321E-3,9.572187424E0,-4.235295951E-1,9.581556758E0
2.301915580E0,4.187439568E-3,9.584152222E0,-4.187439680E-1,9.593296506E0
2.304360163E0,8.973085321E-3,9.562616348E0,-4.067798555E-1,9.571268557E0
2.306805476E0,-5.982056609E-4,9.565009117E0,-4.139583111E-1,9.573962672E0
2.309249903E0,2.333002165E-2,9.541081429E0,-4.115654826E-1,9.549982474E0
2.311693601E0,8.973085321E-3,9.560223579E0,-4.211367965E-1,9.569499026E0
2.314138184E0,1.136590727E-2,9.588937759E0,-4.043870270E-1,9.597467656E0
2.316583444E0,1.615155302E-2,9.586544991E0,-4.139583111E-1,9.595492026E0
2.319027923E0,-5.383851007E-3,9.591330528E0,-4.067798555E-1,9.599954174E0
2.321471621E0,1.854437590E-2,9.576973915E0,-4.043870270E-1,9.585525658E0
2.323916205E0,-5.383851007E-3,9.586544991E0,-3.924229145E-1,9.594575008E0
2.326361465E0,6.580262445E-3,9.579366684E0,-4.163511395E-1,9.588412676E0
2.328805944E0,-5.982056609E-4,9.586544991E0,-4.331009090E-1,9.596323338E0
2.331249642E0,-5.383851007E-3,9.557830811E0,-3.924229145E-1,9.565884932E0
2.333694121E0,1.375873014E-2,9.565009117E0,-3.972085714E-1,9.573262942E0
2.336139486E0,6.580262445E-3,9.588937759E0,-4.043870270E-1,9.597463182E0
2.338583965E0,1.794616925E-3,9.586544991E0,-4.139583111E-1,9.595478600E0
2.341027663E0,8.973085321E-3,9.584152222E0,-3.924229145E-1,9.592186928E0
2.343472142E0,4.187439568E-3,9.586544991E0,-3.948157430E-1,9.594672577E0
2.345917507E0,1.136590727E-2,9.581759453E0,-4.211367965E-1,9.591016609E0
2.348361986E0,1.136590727E-2,9.591330528E0,-4.211367965E-1,9.600578456E0
2.350805684E0,-2.991028363E-3,9.581759453E0,-4.187439680E-1,9.590905571E0
2.353250163E0,3.050848842E-2,9.598508835E0,-4.139583111E-1,9.607479592E0
2.355695528E0,1.794616925E-3,9.565009117E0,-4.067798555E-1,9.573655127E0
2.358139955E0,-5.982056609E-4,9.581759453E0,-4.307080805E-1,9.591434930E0
2.360583705E0,1.854437590E-2,9.576973915E0,-4.139583111E-1,9.585934214E0
2.363028184E0,4.187439568E-3,9.581759453E0,-3.780659735E-1,9.589216111E0
2.365473548E0,1.854437590E-2,9.593723297E0,-3.876372576E-1,9.601569311E0
2.367918028E0,4.187439568E-3,9.588937759E0,-4.163511395E-1,9.597973388E0
2.370361726E0,1.794616925E-3,9.567401886E0,-4.091726840E-1,9.576147678E0
2.372806205E0,8.973085321E-3,9.581759453E0,-4.067798555E-1,9.590394391E0
2.375251569E0,1.136590727E-2,9.593723297E0,-4.115654826E-1,9.602553933E0
2.377695996E0,2.093719877E-2,9.567401886E0,-4.163511395E-1,9.576479807E0
2.380139746E0,-1.495514158E-2,9.560223579E0,-4.043870270E-1,9.568784009E0
2.382584226E0,2.811566554E-2,9.586544991E0,-3.876372576E-1,9.594420149E0
2.385029590E0,1.854437590E-2,9.574581146E0,-3.996013701E-1,9.582934273E0
2.387474017E0,-2.991028363E-3,9.598508835E0,-4.211367965E-1,9.607743596E0
2.389917767E0,1.136590727E-2,9.581759453E0,-3.948157430E-1,9.589896916E0
2.392362246E0,2.093719877E-2,9.593723297E0,-4.043870270E-1,9.602265042E0
2.394807611E0,1.854437590E-2,9.591330528E0,-4.115654826E-1,9.600174548E0
2.397252038E0,-2.991028363E-3,9.576973915E0,-3.948157430E-1,9.585109169E0
2.399695736E0,-5.982056609E-4,9.581759453E0,-4.019941986E-1,9.590188419E0
2.402140319E0,-5.982056609E-4,9.569794655E0,-3.996013701E-1,9.578134022E0
2.404585632E0,1.794616925E-3,9.572187424E0,-4.091726840E-1,9.580928847E0
2.407030059E0,1.794616925E-3,9.588937759E0,-3.996013701E-1,9.597260642E0
2.409473757E0,8.973085321E-3,9.572187424E0,-4.043870270E-1,9.580729693E0
2.411918340E0,4.187439568E-3,9.586544991E0,-4.139583111E-1,9.595479346E0
2.414363653E0,1.375873014E-2,9.579366684E0,-3.996013701E-1,9.587707579E0
2.416808080E0,1.375873014E-2,9.555438042E0,-4.283152521E-1,9.565042573E0
2.419251778E0,-2.991028363E-3,9.569794655E0,-3.804588020E-1,9.577354937E0
2.421696361E0,-7.776673418E-3,9.588937759E0,-4.115654826E-1,9.597769219E0
2.424141673E0,-2.991028363E-3,9.567401886E0,-4.067798555E-1,9.576046034E0
2.426586101E0,1.615155302E-2,9.574581146E0,-4.283152521E-1,9.584170228E0
2.429029798E0,-2.991028363E-3,9.576973915E0,-4.163511395E-1,9.586020373E0
2.431474382E0,8.973085321E-3,9.579366684E0,-4.211367965E-1,9.588623613E0
2.433919642E0,8.973085321E-3,9.581759453E0,-4.091726840E-1,9.590496182E0
2.436364121E0,-5.383851007E-3,9.591330528E0,-3.948157430E-1,9.599454659E0
2.438807819E0,4.187439568E-3,9.598508835E0,-4.163511395E-1,9.607535462E0
2.441252403E0,2.333002165E-2,9.591330528E0,-4.139583111E-1,9.600287864E0
2.443697663E0,1.136590727E-2,9.581759453E0,-4.019941986E-1,9.590195135E0
2.446142142E0,-7.776673418E-3,9.584152222E0,-4.091726840E-1,9.592885727E0
2.448585840E0,8.973085321E-3,9.572187424E0,-3.852444589E-1,9.579940808E0
2.451030423E0,1.375873014E-2,9.584152222E0,-4.187439680E-1,9.593305459E0
2.453475684E0,6.580262445E-3,9.596116066E0,-4.115654826E-1,9.604940031E0
2.455920163E0,3.290131316E-2,9.550652504E0,-4.283152521E-1,9.560308557E0
2.458363861E0,1.375873014E-2,9.593723297E0,-4.139583111E-1,9.602659917E0
2.460808340E0,8.973085321E-3,9.586544991E0,-4.115654826E-1,9.595379696E0
2.463253705E0,4.187439568E-3,9.579366684E0,-4.211367965E-1,9.588620328E0
2.465698184E0,8.973085321E-3,9.586544991E0,-4.043870270E-1,9.595074478E0
2.468141882E0,4.187439568E-3,9.576973915E0,-3.972085714E-1,9.585208477E0
2.470586361E0,8.973085321E-3,9.572187424E0,-4.187439680E-1,9.581346414E0
2.473031726E0,1.136590727E-2,9.560223579E0,-4.139583111E-1,9.569188344E0
2.475476205E0,2.572284266E-2,9.591330528E0,-4.163511395E-1,9.600397452E0
2.477919903E0,1.136590727E-2,9.593723297E0,-4.067798555E-1,9.602350011E0
2.480364382E0,-7.776673418E-3,9.586544991E0,-4.019941986E-1,9.594972885E0
2.482809746E0,6.580262445E-3,9.560223579E0,-4.043870270E-1,9.568774585E0
2.485254226E0,-2.991028363E-3,9.574581146E0,-3.972085714E-1,9.582817316E0
2.487697923E0,-7.776673418E-3,9.581759453E0,-4.115654826E-1,9.590597522E0
2.490142403E0,2.572284266E-2,9.576973915E0,-3.972085714E-1,9.585242078E0
2.492587767E0,1.375873014E-2,9.574581146E0,-3.996013701E-1,9.582926207E0
2.495032194E0,6.580262445E-3,9.581759453E0,-4.067798555E-1,9.590392451E0
2.497475944E0,-5.383851007E-3,9.569794655E0,-4.283152521E-1,9.579376424E0
2.499920423E0,1.794616925E-3,9.584152222E0,-4.163511395E-1,9.593191612E0
2.502365788E0,6.580262445E-3,9.581759453E0,-4.163511395E-1,9.590803188E0
2.504810215E0,4.187439568E-3,9.574581146E0,-3.876372576E-1,9.582425805E0
2.507253965E0,8.973085321E-3,9.576973915E0,-4.091726840E-1,9.585715006E0
2.509698444E0,1.615155302E-2,9.586544991E0,-4.091726840E-1,9.595286760E0
2.512143809E0,2.333002165E-2,9.584152222E0,-4.115654826E-1,9.593013304E0
2.514588236E0,1.375873014E-2,9.586544991E0,-4.019941986E-1,9.594979598E0
2.517031986E0,-5.982056609E-4,9.574581146E0,-3.924229145E-1,9.582619695E0
2.519476465E0,-2.452643216E-2,9.576973915E0,-4.283152521E-1,9.586578371E0
2.521921830E0,1.854437590E-2,9.576973915E0,-4.067798555E-1,9.585626903E0
2.524366257E0,-5.383851007E-3,9.588937759E0,-4.019941986E-1,9.597361912E0
2.526810007E0,1.794616925E-3,9.557830811E0,-4.067798555E-1,9.566483308E0
2.529254486E0,1.136590727E-2,9.569794655E0,-4.067798555E-1,9.578442920E0
2.531699851E0,1.375873014E-2,9.581759453E0,-3.828516304E-1,9.589414940E0
2.534144278E0,4.187439568E-3,9.584152222E0,-4.091726840E-1,9.592883489E0
2.536587976E0,-5.982056609E-4,9.567401886E0,-3.948157430E-1,9.575544824E0
2.539032559E0,6.580262445E-3,9.567401886E0,-4.163511395E-1,9.576459180E0
2.541477871E0,2.333002165E-2,9.565009117E0,-4.211367965E-1,9.574304147E0
2.543922298E0,6.580262445E-3,9.579366684E0,-4.187439680E-1,9.588516876E0
2.546365996E0,-5.383851007E-3,9.560223579E0,-3.900300860E-1,9.568177849E0
2.548810580E0,2.811566554E-2,9.581759453E0,-3.972085714E-1,9.590030206E0
2.551255892E0,2.333002165E-2,9.576973915E0,-4.211367965E-1,9.586257344E0
2.553700319E0,1.136590727E-2,9.588937759E0,-4.091726840E-1,9.597670489E0
2.556144017E0,8.973085321E-3,9.576973915E0,-4.115654826E-1,9.585817442E0
2.558588601E0,3.290131316E-2,9.574581146E0,-3.924229145E-1,9.582676159E0
2.561033913E0,1.854437590E-2,9.576973915E0,-4.091726840E-1,9.585728744E0
2.563478340E0,2.572284266E-2,9.565009117E0,-4.115654826E-1,9.573894047E0
2.565922038E0,3.290131316E-2,9.581759453E0,-4.043870270E-1,9.590345436E0
2.568366621E0,1.615155302E-2,9.553045273E0,-4.019941986E-1,9.561513175E0
2.570811882E0,4.187439568E-3,9.579366684E0,-4.067798555E-1,9.588000493E0
2.573256361E0,1.615155302E-2,9.586544991E0,-4.067798555E-1,9.595185021E0
2.575700059E0,6.580262445E-3,9.574581146E0,-4.187439680E-1,9.583735907E0
2.578144642E0,4.187439568E-3,9.567401886E0,-4.235295951E-1,9.576772614E0
2.580589903E0,-1.256231871E-2,9.569794655E0,-4.163511395E-1,9.578855663E0
2.583034382E0,1.375873014E-2,9.576973915E0,-3.780659735E-1,9.584443257E0
2.585478080E0,8.973085321E-3,9.574581146E0,-3.924229145E-1,9.582623878E0
2.587922663E0,1.375873014E-2,9.581759453E0,-3.924229145E-1,9.589801836E0
2.590367923E0,-1.016949583E-2,9.591330528E0,-3.852444589E-1,9.599069643E0
2.592812403E0,6.580262445E-3,9.584152222E0,-4.259224236E-1,9.593613866E0
2.595256101E0,8.973085321E-3,9.572187424E0,-4.043870270E-1,9.580729693E0
2.597700684E0,8.973085321E-3,9.569794655E0,-4.067798555E-1,9.578440379E0
2.600145944E0,1.136590727E-2,9.574581146E0,-4.235295951E-1,9.583950680E0
2.602590423E0,1.615155302E-2,9.574581146E0,-3.924229145E-1,9.582633289E0
2.605034121E0,1.136590727E-2,9.579366684E0,-3.924229145E-1,9.587407939E0
2.607478601E0,6.580262445E-3,9.560223579E0,-4.163511395E-1,9.569287667E0
2.609923965E0,2.333002165E-2,9.572187424E0,-3.948157430E-1,9.580354682E0
2.612368444E0,2.093719877E-2,9.591330528E0,-3.900300860E-1,9.599280345E0
2.614812142E0,-5.982056609E-4,9.581759453E0,-4.091726840E-1,9.590492003E0
2.617256621E0,-5.383851007E-3,9.567401886E0,-4.235295951E-1,9.576773212E0
2.619701986E0,1.136590727E-2,9.572187424E0,-4.091726840E-1,9.580935421E0
2.622146465E0,2.811566554E-2,9.581759453E0,-4.235295951E-1,9.591156449E0
2.624590163E0,1.615155302E-2,9.579366684E0,-3.852444589E-1,9.587123668E0
2.627034642E0,1.615155302E-2,9.574581146E0,-3.972085714E-1,9.582830461E0
2.629480007E0,4.187439568E-3,9.569794655E0,-4.019941986E-1,9.578235047E0
2.631924486E0,-1.974078640E-2,9.588937759E0,-4.019941986E-1,9.597380705E0
2.634368184E0,-1.016949583E-2,9.574581146E0,-4.259224236E-1,9.584055376E0
2.636812663E0,-7.776673418E-3,9.572187424E0,-4.163511395E-1,9.581241090E0
2.639258028E0,1.794616925E-3,9.576973915E0,-3.996013701E-1,9.585307186E0
2.641702455E0,4.187439568E-3,9.584152222E0,-4.043870270E-1,9.592680554E0
2.644146205E0,-5.982056609E-4,9.581759453E0,-3.972085714E-1,9.589989010E0
2.646590684E0,1.794616925E-3,9.572187424E0,-4.115654826E-1,9.581031335E0
2.649036048E0,1.375873014E-2,9.574581146E0,-3.972085714E-1,9.582826727E0
2.651480476E0,-7.776673418E-3,9.584152222E0,-4.091726840E-1,9.592885727E0
2.653924226E0,-1.495514158E-2,9.600901604E0,-3.996013701E-1,9.609225594E0
2.656368705E0,-5.982056609E-4,9.562616348E0,-4.043870270E-1,9.571162973E0
2.658814069E0,6.580262445E-3,9.579366684E0,-4.187439680E-1,9.588516876E0
2.661258496E0,2.572284266E-2,9.574581146E0,-4.043870270E-1,9.583151604E0
2.663702246E0,1.794616925E-3,9.576973915E0,-4.115654826E-1,9.585813410E0
2.666146726E0,-2.991028363E-3,9.581759453E0,-4.187439680E-1,9.590905571E0
2.668592090E0,1.854437590E-2,9.584152222E0,-4.187439680E-1,9.593313516E0
2.671036517E0,-2.991028363E-3,9.565009117E0,-4.331009090E-1,9.574809907E0
2.673480267E0,1.136590727E-2,9.569794655E0,-4.091726840E-1,9.578544838E0
2.675924746E0,2.093719877E-2,9.596116066E0,-3.876372576E-1,9.603965044E0
2.678370111E0,-2.991028363E-3,9.581759453E0,-4.115654826E-1,9.590594836E0
2.680814538E0,4.187439568E-3,9.586544991E0,-4.115654826E-1,9.595376415E0
2.683258236E0,1.375873014E-2,9.572187424E0,-4.187439680E-1,9.581352091E0
2.685702819E0,2.093719877E-2,9.579366684E0,-4.115654826E-1,9.588226665E0
2.688148132E0,2.811566554E-2,9.584152222E0,-4.067798555E-1,9.592822012E0
2.690592559E0,-5.982056609E-4,9.572187424E0,-4.187439680E-1,9.581342231E0
2.693036257E0,4.187439568E-3,9.569794655E0,-3.972085714E-1,9.578035389E0
2.695480840E0,1.136590727E-2,9.560223579E0,-4.091726840E-1,9.568982514E0
2.697926153E0,-5.982056609E-4,9.576973915E0,-3.924229145E-1,9.585010458E0
2.700370580E0,-2.991028363E-3,9.581759453E0,-4.019941986E-1,9.590188866E0
2.702814278E0,2.093719877E-2,9.574581146E0,-4.019941986E-1,9.583039279E0
2.705258861E0,8.973085321E-3,9.576973915E0,-4.043870270E-1,9.585511919E0
2.707704173E0,-5.982056609E-4,9.586544991E0,-3.972085714E-1,9.594770443E0
2.710148601E0,4.187439568E-3,9.576973915E0,-4.211367965E-1,9.586229869E0
2.712592298E0,6.580262445E-3,9.576973915E0,-3.948157430E-1,9.585110961E0
2.715036882E0,8.973085321E-3,9.562616348E0,-4.043870270E-1,9.571167160E0
2.717482142E0,6.580262445E-3,9.584152222E0,-4.019941986E-1,9.592581323E0
2.719926621E0,1.854437590E-2,9.591330528E0,-3.948157430E-1,9.599471062E0
2.722370319E0,8.973085321E-3,9.572187424E0,-3.924229145E-1,9.580232165E0
2.724814903E0,1.794616925E-3,9.581759453E0,-3.948157430E-1,9.589890349E0
2.727260163E0,4.187439568E-3,9.576973915E0,-4.115654826E-1,9.585814157E0
2.729704642E0,-2.991028363E-3,9.576973915E0,-4.139583111E-1,9.585916743E0
2.732148340E0,1.794616925E-3,9.572187424E0,-4.331009090E-1,9.581980573E0
2.734592923E0,1.854437590E-2,9.588937759E0,-4.163511395E-1,9.597990390E0
2.737038184E0,1.615155302E-2,9.586544991E0,-4.091726840E-1,9.595286760E0
2.739482663E0,1.375873014E-2,9.565009117E0,-3.996013701E-1,9.573362522E0
2.741926361E0,1.615155302E-2,9.572187424E0,-4.067798555E-1,9.580840401E0
2.744370840E0,1.375873014E-2,9.569794655E0,-3.996013701E-1,9.578143886E0
2.746816205E0,2.572284266E-2,9.574581146E0,-4.211367965E-1,9.583873016E0
2.749260684E0,2.093719877E-2,9.591330528E0,-3.948157430E-1,9.599475983E0
2.751704382E0,1.854437590E-2,9.586544991E0,-4.139583111E-1,9.595496352E0
2.754148861E0,1.375873014E-2,9.581759453E0,-4.211367965E-1,9.591019743E0
2.756594226E0,1.615155302E-2,9.584152222E0,-4.211367965E-1,9.593413933E0
2.759038705E0,6.580262445E-3,9.565009117E0,-4.091726840E-1,9.573759188E0
2.761482403E0,1.136590727E-2,9.584152222E0,-3.924229145E-1,9.592189465E0
2.763926882E0,-2.991028363E-3,9.565009117E0,-4.115654826E-1,9.573859958E0
2.766372246E0,1.794616925E-3,9.567401886E0,-4.019941986E-1,9.575843639E0
2.768816726E0,4.187439568E-3,9.591330528E0,-4.211367965E-1,9.600572641E0
2.771260423E0,1.136590727E-2,9.579366684E0,-4.091726840E-1,9.588108131E0
2.773704903E0,1.375873014E-2,9.565009117E0,-4.115654826E-1,9.573869378E0
2.776150267E0,-2.991028363E-3,9.584152222E0,-3.972085714E-1,9.592380174E0
2.778594746E0,2.093719877E-2,9.565009117E0,-4.163511395E-1,9.574089306E0
2.781038444E0,-5.982056609E-4,9.569794655E0,-3.900300860E-1,9.577739481E0
2.783482923E0,1.375873014E-2,9.579366684E0,-4.139583111E-1,9.588316685E0
2.785928288E0,4.187439568E-3,9.579366684E0,-4.139583111E-1,9.588307728E0
2.788372767E0,-5.982056609E-4,9.565009117E0,-3.948157430E-1,9.573154090E0
2.790816465E0,1.794616925E-3,9.565009117E0,-3.972085714E-1,9.573253223E0
2.793260944E0,2.572284266E-2,9.581759453E0,-4.163511395E-1,9.590835425E0
2.795706309E0,-7.776673418E-3,9.576973915E0,-4.067798555E-1,9.585612119E0
2.798150788E0,1.375873014E-2,9.572187424E0,-4.139583111E-1,9.581144131E0
2.800594486E0,-5.982056609E-4,9.579366684E0,-4.115654826E-1,9.588203824E0
2.803038965E0,1.136590727E-2,9.581759453E0,-4.043870270E-1,9.590295734E0
2.805484330E0,1.794616925E-3,9.572187424E0,-3.876372576E-1,9.580033295E0
2.807928757E0,8.973085321E-3,9.569794655E0,-3.900300860E-1,9.577743665E0
2.810372507E0,8.973085321E-3,9.579366684E0,-4.163511395E-1,9.588414616E0
2.812816986E0,1.794616925E-3,9.584152222E0,-4.163511395E-1,9.593191612E0
2.815262351E0,8.973085321E-3,9.572187424E0,-4.283152521E-1,9.581769489E0
2.817706778E0,4.187439568E-3,9.576973915E0,-4.163511395E-1,9.586020821E0
2.820150528E0,-5.383851007E-3,9.569794655E0,-4.163511395E-1,9.578848939E0
2.822595007E0,1.375873014E-2,9.569794655E0,-3.852444589E-1,9.577555655E0
2.825040371E0,1.854437590E-2,9.572187424E0,-4.115654826E-1,9.581049113E0
2.827484798E0,1.794616925E-3,9.576973915E0,-4.019941986E-1,9.585407238E0
2.829928496E0,4.187439568E-3,9.576973915E0,-4.259224236E-1,9.586441301E0
2.832373080E0,1.794616925E-3,9.567401886E0,-4.019941986E-1,9.575843639E0
2.834818392E0,1.794616925E-3,9.569794655E0,-4.235295951E-1,9.579162295E0
2.837262819E0,-5.383851007E-3,9.576973915E0,-3.924229145E-1,9.585011951E0
2.839706517E0,-1.734796353E-2,9.591330528E0,-4.043870270E-1,9.599867245E0
2.842151101E0,-5.982056609E-4,9.588937759E0,-4.235295951E-1,9.598286567E0
2.844596413E0,1.794616925E-3,9.572187424E0,-4.067798555E-1,9.580826955E0
2.847040840E0,2.811566554E-2,9.586544991E0,-4.067798555E-1,9.595212619E0
2.849484538E0,2.333002165E-2,9.581759453E0,-4.115654826E-1,9.590622746E0
2.851929121E0,-5.383851007E-3,9.593723297E0,-4.259224236E-1,9.603174767E0
2.854374434E0,-5.982056609E-4,9.567401886E0,-3.972085714E-1,9.575643783E0
2.856818861E0,1.615155302E-2,9.574581146E0,-3.900300860E-1,9.582535597E0
2.859262559E0,2.572284266E-2,9.567401886E0,-4.091726840E-1,9.576182057E0
2.861707142E0,-2.991028363E-3,9.579366684E0,-3.876372576E-1,9.587206979E0
2.864152455E0,4.187439568E-3,9.562616348E0,-4.067798555E-1,9.571265267E0
2.866596882E0,1.615155302E-2,9.576973915E0,-3.900300860E-1,9.584926380E0
2.869040580E0,6.580262445E-3,9.588937759E0,-4.187439680E-1,9.598078827E0
2.871485163E0,8.973085321E-3,9.584152222E0,-3.876372576E-1,9.591992336E0
2.873930476E0,4.187439568E-3,9.586544991E0,-4.235295951E-1,9.595897025E0
2.876374903E0,-2.991028363E-3,9.584152222E0,-3.972085714E-1,9.592380174E0
2.878818601E0,-5.982056609E-4,9.576973915E0,-3.876372576E-1,9.584815719E0
2.881263184E0,4.187439568E-3,9.581759453E0,-4.139583111E-1,9.590698266E0
2.883708444E0,4.187439568E-3,9.581759453E0,-3.996013701E-1,9.590089311E0
2.886152923E0,1.615155302E-2,9.581759453E0,-4.139583111E-1,9.590710952E0
2.888596621E0,1.375873014E-2,9.572187424E0,-3.972085714E-1,9.580435065E0
2.891041205E0,2.093719877E-2,9.574581146E0,-4.019941986E-1,9.583039279E0
2.893486465E0,1.375873014E-2,9.586544991E0,-4.187439680E-1,9.595695945E0
2.895930944E0,-5.982056609E-4,9.569794655E0,-4.043870270E-1,9.578334874E0
2.898374642E0,4.187439568E-3,9.574581146E0,-3.996013701E-1,9.582917245E0
2.900819226E0,-5.383851007E-3,9.562616348E0,-3.972085714E-1,9.570863862E0
2.903264486E0,8.973085321E-3,9.596116066E0,-3.828516304E-1,9.603754445E0
2.905708965E0,4.187439568E-3,9.572187424E0,-3.924229145E-1,9.580228878E0
2.908152663E0,1.615155302E-2,9.569794655E0,-4.163511395E-1,9.578861043E0
2.910597246E0,1.794616925E-3,9.562616348E0,-4.163511395E-1,9.571676077E0
2.913042507E0,1.794616925E-3,9.569794655E0,-4.091726840E-1,9.578538262E0
2.915486986E0,6.580262445E-3,9.569794655E0,-4.139583111E-1,9.578745978E0
2.917930684E0,1.794616925E-3,9.576973915E0,-4.067798555E-1,9.585609133E0
2.920375267E0,8.973085321E-3,9.576973915E0,-4.115654826E-1,9.585817442E0
2.922820528E0,-2.991028363E-3,9.560223579E0,-4.115654826E-1,9.569078847E0
2.925265007E0,-2.991028363E-3,9.574581146E0,-4.091726840E-1,9.583320685E0
2.927708705E0,8.973085321E-3,9.591330528E0,-4.354937077E-1,9.601216412E0
2.930153184E0,-1.734796353E-2,9.588937759E0,-3.900300860E-1,9.596882399E0
2.932598548E0,2.333002165E-2,9.565009117E0,-4.067798555E-1,9.573683385E0
2.935043028E0,2.572284266E-2,9.586544991E0,-4.115654826E-1,9.595409979E0
2.937486726E0,6.580262445E-3,9.581759453E0,-4.043870270E-1,9.590291256E0
2.939931205E0,6.580262445E-3,9.591330528E0,-4.115654826E-1,9.600158892E0
2.942376569E0,-2.991028363E-3,9.572187424E0,-4.043870270E-1,9.580725958E0
2.944821048E0,-1.016949583E-2,9.569794655E0,-4.259224236E-1,9.579273619E0
2.947264746E0,1.375873014E-2,9.576973915E0,-4.091726840E-1,9.585720680E0
2.949709226E0,-2.991028363E-3,9.596116066E0,-3.996013701E-1,9.604433026E0
2.952154590E0,1.615155302E-2,9.572187424E0,-4.115654826E-1,9.581044781E0
2.954599017E0,8.973085321E-3,9.579366684E0,-4.019941986E-1,9.587801934E0
2.957042767E0,1.854437590E-2,9.579366684E0,-4.067798555E-1,9.588017512E0
2.959487246E0,6.580262445E-3,9.579366684E0,-4.067798555E-1,9.588001836E0
2.961932611E0,1.854437590E-2,9.576973915E0,-3.972085714E-1,9.585225501E0
2.964377038E0,4.187439568E-3,9.562616348E0,-3.996013701E-1,9.570962868E0
2.966820788E0,-1.256231871E-2,9.569794655E0,-4.115654826E-1,9.578648845E0
2.969265267E0,2.572284266E-2,9.572187424E0,-4.115654826E-1,9.581065697E0
2.971710632E0,1.854437590E-2,9.565009117E0,-4.115654826E-1,9.573877451E0
2.974155059E0,-5.982056609E-4,9.572187424E0,-3.972085714E-1,9.580425204E0
2.976598809E0,-7.776673418E-3,9.572187424E0,-4.019941986E-1,9.580627948E0
2.979043288E0,1.375873014E-2,9.565009117E0,-4.043870270E-1,9.573563473E0
2.981488653E0,-5.982056609E-4,9.569794655E0,-4.067798555E-1,9.578436195E0
2.983933080E0,-2.991028363E-3,9.584152222E0,-3.972085714E-1,9.592380174E0
2.986376830E0,-2.991028363E-3,9.565009117E0,-4.019941986E-1,9.573453279E0
2.988821309E0,-2.452643216E-2,9.574581146E0,-4.091726840E-1,9.583351604E0
2.991266673E0,-1.016949583E-2,9.584152222E0,-4.019941986E-1,9.592584457E0
2.993711101E0,4.187439568E-3,9.596116066E0,-4.067798555E-1,9.604734819E0
2.996154851E0,4.187439568E-3,9.553045273E0,-3.876372576E-1,9.560907601E0
2.998599330E0,2.811566554E-2,9.572187424E0,-3.972085714E-1,9.580466440E0
3.001044694E0,-1.734796353E-2,9.572187424E0,-3.996013701E-1,9.580540396E0
3.003489121E0,6.580262445E-3,9.584152222E0,-4.067798555E-1,9.592783066E0
3.005932819E0,4.187439568E-3,9.567401886E0,-3.972085714E-1,9.575644680E0
3.008377403E0,1.794616925E-3,9.574581146E0,-3.876372576E-1,9.582425058E0
3.010822715E0,6.580262445E-3,9.581759453E0,-4.091726840E-1,9.590494242E0
3.013267142E0,6.580262445E-3,9.584152222E0,-4.139583111E-1,9.593090148E0
3.015710840E0,1.136590727E-2,9.574581146E0,-4.139583111E-1,9.583532480E0
3.018155423E0,1.375873014E-2,9.584152222E0,-4.067798555E-1,9.592790676E0
3.020600736E0,2.093719877E-2,9.591330528E0,-4.115654826E-1,9.600179468E0
3.023045163E0,1.615155302E-2,9.581759453E0,-4.139583111E-1,9.590710952E0
3.025488861E0,1.854437590E-2,9.581759453E0,-4.259224236E-1,9.591239128E0
3.027933444E0,4.187439568E-3,9.591330528E0,-4.139583111E-1,9.600260430E0
3.030378757E0,2.093719877E-2,9.565009117E0,-4.163511395E-1,9.574089306E0
3.032823184E0,8.973085321E-3,9.572187424E0,-4.115654826E-1,9.581035369E0
3.035266882E0,1.854437590E-2,9.567401886E0,-4.091726840E-1,9.576165466E0
3.037711465E0,1.375873014E-2,9.586544991E0,-4.043870270E-1,9.595080147E0
3.040156778E0,-2.991028363E-3,9.584152222E0,-3.948157430E-1,9.592281388E0
3.042601205E0,2.333002165E-2,9.576973915E0,-3.996013701E-1,9.585335410E0
3.045044903E0,6.580262445E-3,9.581759453E0,-4.067798555E-1,9.590392451E0
3.047489486E0,1.375873014E-2,9.591330528E0,-3.780659735E-1,9.598788699E0
3.049934798E0,6.580262445E-3,9.588937759E0,-3.996013701E-1,9.597262730E0
3.052379226E0,1.794616925E-3,9.569794655E0,-3.996013701E-1,9.578134172E0
3.054822923E0,4.187439568E-3,9.584152222E0,-3.972085714E-1,9.592380622E0
3.057267507E0,1.136590727E-2,9.576973915E0,-3.852444589E-1,9.584725966E0
3.059712819E0,8.973085321E-3,9.579366684E0,-4.139583111E-1,9.588311012E0
3.062157246E0,1.136590727E-2,9.574581146E0,-4.115654826E-1,9.583429420E0
3.064600944E0,1.136590727E-2,9.574581146E0,-4.019941986E-1,9.583023147E0
3.067045528E0,2.811566554E-2,9.579366684E0,-4.139583111E-1,9.588348035E0
3.069490788E0,1.136590727E-2,9.579366684E0,-3.804588020E-1,9.586925688E0
3.071935267E0,-1.016949583E-2,9.576973915E0,-4.067798555E-1,9.585614359E0
3.074378965E0,1.375873014E-2,9.579366684E0,-3.876372576E-1,9.587216385E0
3.076823548E0,1.375873014E-2,9.572187424E0,-4.067798555E-1,9.580836666E0
3.079268809E0,8.973085321E-3,9.588937759E0,-3.996013701E-1,9.597264669E0
3.081713288E0,6.580262445E-3,9.579366684E0,-4.043870270E-1,9.587900617E0
3.084156986E0,-5.383851007E-3,9.581759453E0,-4.139583111E-1,9.590698863E0
3.086601569E0,1.854437590E-2,9.574581146E0,-3.780659735E-1,9.582060420E0
3.089046830E0,-5.982056609E-4,9.584152222E0,-4.067798555E-1,9.592780828E0
3.091491309E0,1.615155302E-2,9.569794655E0,-4.211367965E-1,9.579070248E0
3.093935007E0,6.580262445E-3,9.598508835E0,-4.163511395E-1,9.607536803E0
3.096379590E0,1.794616925E-3,9.562616348E0,-4.043870270E-1,9.571163122E0
3.098824851E0,6.580262445E-3,9.586544991E0,-4.091726840E-1,9.595275423E0
3.101269330E0,4.187439568E-3,9.603294373E0,-4.115654826E-1,9.612110408E0
3.103713028E0,-7.776673418E-3,9.591330528E0,-4.187439680E-1,9.600470212E0
3.106157611E0,-2.991028363E-3,9.591330528E0,-4.283152521E-1,9.600889761E0
3.108602871E0,-1.016949583E-2,9.572187424E0,-4.115654826E-1,9.581036564E0
3.111047351E0,8.973085321E-3,9.567401886E0,-4.067798555E-1,9.576049771E0
3.113491048E0,-5.383851007E-3,9.572187424E0,-3.852444589E-1,9.579938118E0
3.115935528E0,1.615155302E-2,9.588937759E0,-4.067798555E-1,9.597575635E0
3.118380892E0,1.854437590E-2,9.572187424E0,-3.972085714E-1,9.580443133E0
3.120825371E0,1.136590727E-2,9.584152222E0,-3.996013701E-1,9.592485822E0
3.123269069E0,1.615155302E-2,9.574581146E0,-3.948157430E-1,9.582731577E0
3.125713548E0,8.973085321E-3,9.579366684E0,-4.043870270E-1,9.587902557E0
3.128158913E0,6.580262445E-3,9.581759453E0,-4.163511395E-1,9.590803188E0
3.130603392E0,-2.991028363E-3,9.576973915E0,-3.996013701E-1,9.585307484E0
3.133047090E0,8.973085321E-3,9.567401886E0,-4.163511395E-1,9.576461123E0
3.135491569E0,1.615155302E-2,9.588937759E0,-3.972085714E-1,9.597174734E0
3.137936934E0,4.187439568E-3,9.569794655E0,-3.948157430E-1,9.577936455E0
3.140381413E0,6.580262445E-3,9.574581146E0,-3.972085714E-1,9.582819109E0
3.142825111E0,4.187439568E-3,9.562616348E0,-4.139583111E-1,9.571573039E0
3.145269590E0,1.854437590E-2,9.576973915E0,-4.187439680E-1,9.586142069E0
3.147714955E0,3.768695518E-2,9.574581146E0,-3.972085714E-1,9.582890956E0
3.150159434E0,8.973085321E-3,9.588937759E0,-3.900300860E-1,9.596870914E0
3.152603132E0,1.375873014E-2,9.565009117E0,-4.211367965E-1,9.574285609E0
3.155047611E0,8.973085321E-3,9.588937759E0,-4.043870270E-1,9.597465120E0
3.157492976E0,8.973085321E-3,9.593723297E0,-4.163511395E-1,9.602757702E0
3.159937455E0,1.854437590E-2,9.588937759E0,-4.163511395E-1,9.597990390E0
3.162381153E0,1.136590727E-2,9.581759453E0,-3.924229145E-1,9.589798702E0
3.164825632E0,1.136590727E-2,9.579366684E0,-3.924229145E-1,9.587407939E0
3.167270996E0,4.187439568E-3,9.581759453E0,-4.067798555E-1,9.590391108E0
3.169715476E0,6.580262445E-3,9.567401886E0,-4.139583111E-1,9.576355446E0
3.172159173E0,4.187439568E-3,9.560223579E0,-3.948157430E-1,9.568373524E0
3.174603653E0,4.187439568E-3,9.560223579E0,-4.139583111E-1,9.569182510E0
3.177049017E0,1.615155302E-2,9.557830811E0,-4.115654826E-1,9.566701460E0
3.179493496E0,8.973085321E-3,9.562616348E0,-3.972085714E-1,9.570866554E0
3.181937194E0,2.333002165E-2,9.574581146E0,-4.019941986E-1,9.583044806E0
3.184381673E0,2.811566554E-2,9.586544991E0,-4.067798555E-1,9.595212619E0
3.186827038E0,-1.256231871E-2,9.588937759E0,-4.043870270E-1,9.597469147E0
3.189271465E0,6.580262445E-3,9.581759453E0,-4.115654826E-1,9.590596627E0
3.191715215E0,1.794616925E-3,9.567401886E0,-3.972085714E-1,9.575643932E0
3.194159694E0,8.973085321E-3,9.581759453E0,-4.115654826E-1,9.590598567E0
3.196605059E0,1.375873014E-2,9.581759453E0,-4.139583111E-1,9.590707221E0
3.199049486E0,4.187439568E-3,9.588937759E0,-4.115654826E-1,9.597766982E0
3.201493236E0,4.187439568E-3,9.593723297E0,-3.972085714E-1,9.601943495E0
3.203937715E0,-1.016949583E-2,9.569794655E0,-3.924229145E-1,9.577842601E0
3.206383080E0,-5.383851007E-3,9.574581146E0,-4.091726840E-1,9.583321731E0
3.208827507E0,8.973085321E-3,9.588937759E0,-4.043870270E-1,9.597465120E0
3.211271257E0,1.375873014E-2,9.557830811E0,-3.972085714E-1,9.566090829E0
3.213715736E0,1.136590727E-2,9.572187424E0,-4.067798555E-1,9.580833529E0
3.216161101E0,2.811566554E-2,9.584152222E0,-4.163511395E-1,9.593232644E0
3.218605528E0,1.375873014E-2,9.567401886E0,-4.163511395E-1,9.576466803E0
3.221049226E0,2.572284266E-2,9.576973915E0,-4.115654826E-1,9.585847755E0
3.223493809E0,6.580262445E-3,9.572187424E0,-4.091726840E-1,9.580930939E0
3.225939121E0,-2.991028363E-3,9.576973915E0,-4.163511395E-1,9.586020373E0
3.228383548E0,-2.991028363E-3,9.579366684E0,-4.163511395E-1,9.588410884E0
3.230827298E0,2.093719877E-2,9.565009117E0,-4.091726840E-1,9.573779821E0
3.233271778E0,2.333002165E-2,9.560223579E0,-3.972085714E-1,9.568500082E0
3.235717142E0,3.290131316E-2,9.567401886E0,-4.067798555E-1,9.576102088E0
3.238161569E0,1.375873014E-2,9.572187424E0,-4.283152521E-1,9.581775166E0
3.240605267E0,1.375873014E-2,9.581759453E0,-4.019941986E-1,9.590198270E0
3.243049851E0,1.375873014E-2,9.591330528E0,-4.139583111E-1,9.600269376E0
3.245495163E0,4.187439568E-3,9.579366684E0,-4.019941986E-1,9.587798649E0
3.247939590E0,1.375873014E-2,9.572187424E0,-4.115654826E-1,9.581041046E0
3.250383288E0,2.572284266E-2,9.593723297E0,-4.067798555E-1,9.602377738E0
3.252827871E0,1.615155302E-2,9.569794655E0,-4.067798555E-1,9.578449794E0
3.255273184E0,-5.383851007E-3,9.576973915E0,-4.043870270E-1,9.585509231E0
3.257717611E0,4.187439568E-3,9.576973915E0,-4.019941986E-1,9.585407985E0
3.260161309E0,1.136590727E-2,9.569794655E0,-4.115654826E-1,9.578647351E0
3.262605892E0,1.794616925E-3,9.584152222E0,-3.948157430E-1,9.592281089E0
3.265051205E0,1.794616925E-3,9.588937759E0,-3.972085714E-1,9.597161311E0
3.267495632E0,-1.495514158E-2,9.584152222E0,-3.996013701E-1,9.592490746E0
3.269939330E0,-5.982056609E-4,9.581759453E0,-4.091726840E-1,9.590492003E0
3.272383913E0,8.973085321E-3,9.572187424E0,-4.115654826E-1,9.581035369E0
3.274829226E0,1.794616925E-3,9.574581146E0,-4.019941986E-1,9.583016575E0
3.277273653E0,2.333002165E-2,9.581759453E0,-4.019941986E-1,9.590216777E0
3.279717351E0,1.136590727E-2,9.574581146E0,-3.996013701E-1,9.582923070E0
3.282161934E0,8.973085321E-3,9.584152222E0,-4.067798555E-1,9.592785006E0
3.284607246E0,-1.016949583E-2,9.574581146E0,-3.948157430E-1,9.582723361E0
3.287051673E0,6.580262445E-3,9.569794655E0,-4.259224236E-1,9.579270481E0
3.289495371E0,2.093719877E-2,9.581759453E0,-3.948157430E-1,9.589913037E0
3.291939955E0,8.973085321E-3,9.569794655E0,-4.115654826E-1,9.578644810E0
3.294385215E0,6.580262445E-3,9.574581146E0,-4.043870270E-1,9.583119340E0
3.296829694E0,4.187439568E-3,9.572187424E0,-3.972085714E-1,9.580426100E0
3.299273392E0,-5.982056609E-4,9.572187424E0,-4.019941986E-1,9.580624811E0
3.301717976E0,-2.991028363E-3,9.557830811E0,-3.996013701E-1,9.566181056E0
3.304163288E0,-5.383851007E-3,9.579366684E0,-4.091726840E-1,9.588102906E0
3.306607715E0,1.136590727E-2,9.576973915E0,-3.996013701E-1,9.585313756E0
3.309051413E0,2.093719877E-2,9.586544991E0,-4.043870270E-1,9.595093126E0
3.311495996E0,4.187439568E-3,9.581759453E0,-3.948157430E-1,9.589891095E0
3.313941257E0,8.973085321E-3,9.586544991E0,-4.115654826E-1,9.595379696E0
3.316385736E0,1.615155302E-2,9.569794655E0,-4.235295951E-1,9.579175744E0
3.318829434E0,-7.776673418E-3,9.588937759E0,-4.163511395E-1,9.597975625E0
3.321274017E0,2.572284266E-2,9.588937759E0,-4.019941986E-1,9.597394873E0
3.323719278E0,-5.383851007E-3,9.579366684E0,-3.972085714E-1,9.587599788E0
3.326163757E0,-5.982056609E-4,9.586544991E0,-3.876372576E-1,9.594378972E0
3.328607455E0,-1.256231871E-2,9.574581146E0,-3.900300860E-1,9.582530219E0
3.331052038E0,8.973085321E-3,9.579366684E0,-4.043870270E-1,9.587902557E0
3.333497298E0,8.973085321E-3,9.581759453E0,-4.115654826E-1,9.590598567E0
3.335941778E0,-5.982056609E-4,9.567401886E0,-3.828516304E-1,9.575058986E0
3.338385476E0,1.375873014E-2,9.560223579E0,-3.972085714E-1,9.568481533E0
3.340830059E0,4.187439568E-3,9.560223579E0,-3.996013701E-1,9.568572186E0
3.343275319E0,-2.991028363E-3,9.576973915E0,-4.139583111E-1,9.585916743E0
3.345719798E0,6.580262445E-3,9.586544991E0,-4.043870270E-1,9.595072539E0
3.348163496E0,1.136590727E-2,9.576973915E0,-3.876372576E-1,9.584822440E0
3.350608080E0,1.854437590E-2,9.579366684E0,-3.924229145E-1,9.587419137E0
3.353053340E0,1.136590727E-2,9.576973915E0,-3.948157430E-1,9.585115441E0
3.355497819E0,1.794616925E-3,9.586544991E0,-3.972085714E-1,9.594770593E0
3.357941517E0,6.580262445E-3,9.569794655E0,-4.115654826E-1,9.578642867E0
3.360386101E0,1.375873014E-2,9.581759453E0,-4.091726840E-1,9.590501853E0
3.362831361E0,1.136590727E-2,9.586544991E0,-4.043870270E-1,9.595077014E0
3.365275840E0,2.811566554E-2,9.586544991E0,-3.924229145E-1,9.594614692E0
3.367719538E0,1.136590727E-2,9.572187424E0,-4.163511395E-1,9.581244675E0
3.370164017E0,3.050848842E-2,9.593723297E0,-3.852444589E-1,9.601503568E0
3.372609382E0,1.615155302E-2,9.584152222E0,-4.043870270E-1,9.592693237E0
3.375053861E0,1.794616925E-3,9.576973915E0,-4.019941986E-1,9.585407238E0
3.377497559E0,1.615155302E-2,9.584152222E0,-4.307080805E-1,9.593838863E0
3.379942038E0,6.580262445E-3,9.565009117E0,-3.996013701E-1,9.573354896E0
3.382387403E0,-2.991028363E-3,9.569794655E0,-3.900300860E-1,9.577739929E0
3.384831882E0,2.093719877E-2,9.576973915E0,-4.187439680E-1,9.586146997E0
3.387275580E0,8.973085321E-3,9.574581146E0,-4.091726840E-1,9.583324419E0
3.389720059E0,8.973085321E-3,9.562616348E0,-3.972085714E-1,9.570866554E0
3.392165423E0,1.854437590E-2,9.569794655E0,-3.996013701E-1,9.578151956E0
3.394609903E0,6.580262445E-3,9.593723297E0,-4.043870270E-1,9.602244470E0
3.397053601E0,6.580262445E-3,9.572187424E0,-4.115654826E-1,9.581033427E0
3.399498080E0,1.375873014E-2,9.584152222E0,-3.852444589E-1,9.591901605E0
3.401943444E0,1.375873014E-2,9.593723297E0,-3.996013701E-1,9.602051721E0
3.404387923E0,6.580262445E-3,9.560223579E0,-4.091726840E-1,9.568978027E0
3.406831621E0,1.136590727E-2,9.560223579E0,-4.115654826E-1,9.569085130E0
3.409276101E0,1.136590727E-2,9.579366684E0,-3.900300860E-1,9.587310296E0
3.411721465E0,3.529413417E-2,9.579366684E0,-4.043870270E-1,9.587963319E0
3.414165944E0,6.580262445E-3,9.576973915E0,-3.996013701E-1,9.585309276E0
3.416609642E0,-5.383851007E-3,9.579366684E0,-3.996013701E-1,9.587699219E0
3.419054121E0,1.615155302E-2,9.574581146E0,-4.091726840E-1,9.583333829E0
3.421499486E0,8.973085321E-3,9.588937759E0,-4.067798555E-1,9.597566239E0
3.423943965E0,4.187439568E-3,9.579366684E0,-4.115654826E-1,9.588204720E0
3.426387663E0,4.187439568E-3,9.569794655E0,-3.948157430E-1,9.577936455E0
3.428832142E0,4.187439568E-3,9.565009117E0,-4.259224236E-1,9.574488334E0
3.431277507E0,1.375873014E-2,9.584152222E0,-3.972085714E-1,9.592389575E0
3.433721934E0,3.768695518E-2,9.581759453E0,-4.019941986E-1,9.590262450E0
3.436165684E0,6.580262445E-3,9.598508835E0,-4.187439680E-1,9.607640796E0
3.438610163E0,-7.776673418E-3,9.574581146E0,-4.067798555E-1,9.583221507E0
3.441055528E0,6.580262445E-3,9.574581146E0,-3.924229145E-1,9.582621936E0
3.443499955E0,-5.982056609E-4,9.584152222E0,-3.948157430E-1,9.592280940E0
3.445943705E0,8.973085321E-3,9.569794655E0,-4.211367965E-1,9.579060834E0
3.448388184E0,-5.383851007E-3,9.584152222E0,-4.139583111E-1,9.593089402E0
3.450833548E0,2.093719877E-2,9.586544991E0,-4.091726840E-1,9.595296009E0
3.453277976E0,1.615155302E-2,9.579366684E0,-4.115654826E-1,9.588217409E0
3.455721726E0,1.136590727E-2,9.572187424E0,-3.996013701E-1,9.580531432E0
3.458166205E0,-1.256231871E-2,9.581759453E0,-4.091726840E-1,9.590500212E0
3.460611569E0,8.973085321E-3,9.588937759E0,-4.043870270E-1,9.597465120E0
3.463055996E0,4.187439568E-3,9.581759453E0,-3.996013701E-1,9.590089311E0
3.465499746E0,-1.016949583E-2,9.572187424E0,-4.091726840E-1,9.580934077E0
3.467944226E0,1.375873014E-2,9.579366684E0,-4.187439680E-1,9.588524489E0
3.470389590E0,-5.982056609E-4,9.574581146E0,-4.139583111E-1,9.583525759E0
3.472834017E0,1.615155302E-2,9.565009117E0,-4.259224236E-1,9.574501042E0
3.475277767E0,1.854437590E-2,9.572187424E0,-4.163511395E-1,9.581255880E0
3.477722246E0,4.187439568E-3,9.586544991E0,-3.996013701E-1,9.594870695E0
3.480167611E0,6.580262445E-3,9.569794655E0,-4.091726840E-1,9.578540354E0
3.482612038E0,1.136590727E-2,9.576973915E0,-4.187439680E-1,9.586130870E0
3.485055788E0,1.615155302E-2,9.569794655E0,-3.996013701E-1,9.578147622E0
3.487500267E0,-1.016949583E-2,9.574581146E0,-3.972085714E-1,9.582822246E0
3.489945632E0,-2.991028363E-3,9.565009117E0,-4.043870270E-1,9.573554054E0
3.492390059E0,-2.991028363E-3,9.576973915E0,-4.019941986E-1,9.585407537E0
3.494833757E0,4.187439568E-3,9.560223579E0,-4.163511395E-1,9.569286321E0
3.497278340E0,4.187439568E-3,9.569794655E0,-4.091726840E-1,9.578539009E0
3.499723653E0,-5.982056609E-4,9.581759453E0,-3.948157430E-1,9.589890200E0
3.502168080E0,6.580262445E-3,9.579366684E0,-4.067798555E-1,9.588001836E0
3.504611830E0,-7.776673418E-3,9.576973915E0,-4.163511395E-1,9.586023061E0
3.507056309E0,1.854437590E-2,9.574581146E0,-3.996013701E-1,9.582934273E0
3.509501673E0,-5.383851007E-3,9.584152222E0,-4.139583111E-1,9.593089402E0
3.511946101E0,6.580262445E-3,9.572187424E0,-3.924229145E-1,9.580230223E0
3.514389798E0,1.136590727E-2,9.584152222E0,-4.043870270E-1,9.592686373E0
3.516834382E0,1.615155302E-2,9.567401886E0,-4.283152521E-1,9.576998156E0
3.519279694E0,4.187439568E-3,9.574581146E0,-4.139583111E-1,9.583526655E0
3.521724121E0,2.572284266E-2,9.574581146E0,-3.948157430E-1,9.582752489E0
3.524167819E0,1.136590727E-2,9.581759453E0,-3.900300860E-1,9.589701083E0
3.526612403E0,2.093719877E-2,9.588937759E0,-4.139583111E-1,9.597891810E0
3.529057715E0,1.136590727E-2,9.576973915E0,-4.163511395E-1,9.586026644E0
3.531502142E0,1.615155302E-2,9.574581146E0,-4.163511395E-1,9.583643006E0
3.533945840E0,-5.982056609E-4,9.567401886E0,-4.187439680E-1,9.576561268E0
3.536390423E0,-1.256231871E-2,9.569794655E0,-4.115654826E-1,9.578648845E0
3.538835736E0,6.580262445E-3,9.576973915E0,-4.139583111E-1,9.585918535E0
3.541280163E0,1.794616925E-3,9.584152222E0,-3.996013701E-1,9.592479256E0
3.543723861E0,1.854437590E-2,9.560223579E0,-3.900300860E-1,9.568194305E0
3.546168444E0,1.375873014E-2,9.584152222E0,-3.948157430E-1,9.592290789E0
3.548613757E0,2.572284266E-2,9.557830811E0,-4.283152521E-1,9.567457626E0
3.551058184E0,1.854437590E-2,9.565009117E0,-3.972085714E-1,9.573271016E0
3.553501882E0,-5.383851007E-3,9.565009117E0,-4.019941986E-1,9.573454326E0
3.555946465E0,1.854437590E-2,9.562616348E0,-4.139583111E-1,9.571590087E0
3.558391778E0,6.580262445E-3,9.574581146E0,-3.924229145E-1,9.582621936E0
3.560836205E0,1.136590727E-2,9.588937759E0,-3.804588020E-1,9.596489225E0
3.563279903E0,4.187439568E-3,9.576973915E0,-4.259224236E-1,9.586441301E0
3.565724486E0,-2.991028363E-3,9.574581146E0,-3.924229145E-1,9.582620144E0
3.568169798E0,4.187439568E-3,9.572187424E0,-3.900300860E-1,9.580131162E0
3.570614226E0,-1.016949583E-2,9.574581146E0,-3.924229145E-1,9.582625073E0
3.573057923E0,8.973085321E-3,9.579366684E0,-4.163511395E-1,9.588414616E0
3.575502507E0,-7.776673418E-3,9.591330528E0,-4.115654826E-1,9.600159786E0
3.577947819E0,6.580262445E-3,9.569794655E0,-3.972085714E-1,9.578036734E0
3.580392246E0,-5.383851007E-3,9.574581146E0,-4.091726840E-1,9.583321731E0
3.582835944E0,8.973085321E-3,9.586544991E0,-3.900300860E-1,9.594480123E0
3.585280528E0,2.811566554E-2,9.574581146E0,-4.163511395E-1,9.583670637E0
3.587725788E0,-5.982056609E-4,9.581759453E0,-4.139583111E-1,9.590697371E0
3.590170267E0,1.375873014E-2,9.576973915E0,-4.211367965E-1,9.586238828E0
3.592613965E0,4.187439568E-3,9.565009117E0,-4.163511395E-1,9.574067329E0
3.595058548E0,6.580262445E-3,9.586544991E0,-4.019941986E-1,9.594971990E0
3.597503809E0,-7.776673418E-3,9.567401886E0,-4.283152521E-1,9.576987693E0
3.599948288E0,1.615155302E-2,9.588937759E0,-4.211367965E-1,9.598194853E0
3.602391986E0,8.973085321E-3,9.581759453E0,-3.948157430E-1,9.589894379E0
3.604836569E0,4.187439568E-3,9.565009117E0,-4.067798555E-1,9.573655874E0
3.607281830E0,2.333002165E-2,9.557830811E0,-4.187439680E-1,9.567027783E0
3.609726309E0,1.375873014E-2,9.576973915E0,-4.187439680E-1,9.586134006E0
3.612170007E0,4.187439568E-3,9.588937759E0,-4.043870270E-1,9.597461839E0
3.614614590E0,1.794616925E-3,9.555438042E0,-4.378865361E-1,9.565466220E0
3.617059851E0,4.187439568E-3,9.569794655E0,-4.091726840E-1,9.578539009E0
3.619504330E0,1.136590727E-2,9.579366684E0,-4.067798555E-1,9.588006315E0
3.621948028E0,2.811566554E-2,9.572187424E0,-3.996013701E-1,9.580565945E0
3.624392611E0,4.187439568E-3,9.576973915E0,-4.235295951E-1,9.586335286E0
3.626837871E0,6.580262445E-3,9.579366684E0,-4.163511395E-1,9.588412676E0
3.629282351E0,-2.991028363E-3,9.593723297E0,-3.996013701E-1,9.602042330E0
3.631726048E0,-5.982056609E-4,9.572187424E0,-4.139583111E-1,9.581134271E0
3.634170632E0,-7.776673418E-3,9.579366684E0,-4.019941986E-1,9.587800889E0
3.636615892E0,1.615155302E-2,9.557830811E0,-3.924229145E-1,9.565897053E0
3.639060371E0,-2.991028363E-3,9.541081429E0,-3.996013701E-1,9.549446320E0
3.641504069E0,1.375873014E-2,9.584152222E0,-4.139583111E-1,9.593097758E0
3.643948653E0,4.187439568E-3,9.572187424E0,-4.043870270E-1,9.580726407E0
3.646393913E0,4.187439568E-3,9.565009117E0,-3.924229145E-1,9.573056601E0
3.648838392E0,4.187439568E-3,9.565009117E0,-4.163511395E-1,9.574067329E0
3.651282090E0,-2.991028363E-3,9.569794655E0,-4.163511395E-1,9.578847893E0
3.653726673E0,1.794616925E-3,9.574581146E0,-3.900300860E-1,9.582522153E0
3.656171934E0,-1.016949583E-2,9.588937759E0,-4.019941986E-1,9.597365790E0
3.658616413E0,-5.383851007E-3,9.586544991E0,-4.139583111E-1,9.595479942E0
3.661060111E0,1.136590727E-2,9.579366684E0,-4.426721931E-1,9.589596129E0
3.663504590E0,4.187439568E-3,9.581759453E0,-4.211367965E-1,9.591010789E0
3.665949955E0,1.375873014E-2,9.557830811E0,-4.211367965E-1,9.567114262E0
3.668394434E0,1.794616925E-3,9.581759453E0,-3.948157430E-1,9.589890349E0
3.670838132E0,1.136590727E-2,9.581759453E0,-3.972085714E-1,9.589995727E0
3.673282715E0,2.093719877E-2,9.567401886E0,-3.900300860E-1,9.575371569E0
3.675727976E0,-5.982056609E-4,9.576973915E0,-4.019941986E-1,9.585407089E0
3.678172455E0,6.580262445E-3,9.576973915E0,-4.043870270E-1,9.585509978E0
3.680616153E0,-2.991028363E-3,9.598508835E0,-4.139583111E-1,9.607431617E0
3.683060736E0,1.136590727E-2,9.565009117E0,-4.067798555E-1,9.573661705E0
3.685505996E0,-5.982056609E-4,9.569794655E0,-3.948157430E-1,9.577935559E0
3.687950476E0,-5.982056609E-4,9.572187424E0,-4.187439680E-1,9.581342231E0
3.690394173E0,2.093719877E-2,9.572187424E0,-4.067798555E-1,9.580849664E0
3.692838757E0,1.375873014E-2,9.574581146E0,-4.115654826E-1,9.583432557E0
3.695284017E0,6.580262445E-3,9.576973915E0,-4.091726840E-1,9.585713065E0
3.697728496E0,4.187439568E-3,9.567401886E0,-4.067798555E-1,9.576046482E0
3.700172194E0,6.580262445E-3,9.581759453E0,-4.115654826E-1,9.590596627E0
3.702616673E0,-1.495514158E-2,9.565009117E0,-4.235295951E-1,9.574392951E0
3.705062038E0,4.187439568E-3,9.584152222E0,-4.139583111E-1,9.593088805E0
3.707506517E0,2.811566554E-2,9.581759453E0,-4.091726840E-1,9.590533196E0
3.709950215E0,6.580262445E-3,9.598508835E0,-3.972085714E-1,9.606726279E0
3.712394694E0,1.854437590E-2,9.586544991E0,-4.115654826E-1,9.595393421E0
3.714840059E0,4.187439568E-3,9.567401886E0,-4.163511395E-1,9.576457834E0
3.717284538E0,-7.776673418E-3,9.574581146E0,-3.900300860E-1,9.582525141E0
3.719728236E0,6.580262445E-3,9.581759453E0,-4.115654826E-1,9.590596627E0
3.722172715E0,4.187439568E-3,9.593723297E0,-3.996013701E-1,9.602042777E0
3.724618080E0,2.572284266E-2,9.574581146E0,-3.948157430E-1,9.582752489E0
3.727062559E0,-5.982056609E-4,9.579366684E0,-4.067798555E-1,9.587999597E0
3.729506257E0,-5.383851007E-3,9.586544991E0,-4.139583111E-1,9.595479942E0
3.731950736E0,1.136590727E-2,9.591330528E0,-4.235295951E-1,9.600683715E0
3.734396101E0,3.529413417E-2,9.581759453E0,-4.067798555E-1,9.590455137E0
3.736840580E0,-2.991028363E-3,9.591330528E0,-4.091726840E-1,9.600054819E0
3.739284278E0,-7.776673418E-3,9.574581146E0,-3.996013701E-1,9.582919485E0
3.741728757E0,1.375873014E-2,9.562616348E0,-4.067798555E-1,9.571274240E0
3.744174121E0,-5.982056609E-4,9.565009117E0,-4.067798555E-1,9.573654977E0
3.746618601E0,6.580262445E-3,9.565009117E0,-4.019941986E-1,9.573455074E0
3.749062298E0,-5.982056609E-4,9.586544991E0,-4.163511395E-1,9.595581977E0
3.751506778E0,1.794616925E-3,9.581759453E0,-4.187439680E-1,9.590905272E0
3.753952142E0,1.794616925E-3,9.576973915E0,-4.187439680E-1,9.586124300E0
3.756396621E0,2.093719877E-2,9.572187424E0,-4.043870270E-1,9.580748369E0
3.758840319E0,8.973085321E-3,9.574581146E0,-4.115654826E-1,9.583426881E0
3.761284798E0,2.093719877E-2,9.550652504E0,-4.307080805E-1,9.560382370E0
3.763730163E0,6.580262445E-3,9.584152222E0,-4.331009090E-1,9.593935246E0
3.766174642E0,-2.991028363E-3,9.586544991E0,-4.163511395E-1,9.595582425E0
3.768618340E0,-2.691925503E-2,9.576973915E0,-4.091726840E-1,9.585748604E0
3.771062819E0,-1.256231871E-2,9.591330528E0,-3.924229145E-1,9.599363253E0
3.773508184E0,1.854437590E-2,9.565009117E0,-4.139583111E-1,9.573980614E0
3.775952663E0,6.580262445E-3,9.569794655E0,-3.996013701E-1,9.578136264E0
3.778396361E0,4.187439568E-3,9.572187424E0,-3.900300860E-1,9.580131162E0
3.780840840E0,-2.452643216E-2,9.586544991E0,-4.163511395E-1,9.595613304E0
3.783286205E0,-1.016949583E-2,9.581759453E0,-4.163511395E-1,9.590806322E0
3.785730684E0,-5.982056609E-4,9.569794655E0,-4.043870270E-1,9.578334874E0
3.788174382E0,-1.016949583E-2,9.574581146E0,-4.115654826E-1,9.583428076E0
3.790618861E0,1.375873014E-2,9.576973915E0,-4.187439680E-1,9.586134006E0
3.793064226E0,1.615155302E-2,9.569794655E0,-4.163511395E-1,9.578861043E0
3.795508705E0,3.050848842E-2,9.560223579E0,-4.019941986E-1,9.568720133E0
3.797952403E0,-5.982056609E-4,9.553045273E0,-4.139583111E-1,9.562010031E0
3.800396882E0,2.572284266E-2,9.579366684E0,-4.115654826E-1,9.588238309E0
3.802842246E0,-5.383851007E-3,9.579366684E0,-4.115654826E-1,9.588205317E0
3.805286726E0,1.375873014E-2,9.555438042E0,-4.115654826E-1,9.564307169E0
3.807730423E0,-5.982056609E-4,9.565009117E0,-3.804588020E-1,9.572572730E0
3.810174903E0,4.187439568E-3,9.567401886E0,-4.211367965E-1,9.576667092E0
3.812620267E0,8.973085321E-3,9.586544991E0,-4.235295951E-1,9.595900306E0
3.815064694E0,1.136590727E-2,9.579366684E0,-4.019941986E-1,9.587804472E0
3.817508444E0,4.187439568E-3,9.591330528E0,-3.900300860E-1,9.599258425E0
3.819952923E0,1.375873014E-2,9.593723297E0,-3.996013701E-1,9.602051721E0
3.822398288E0,-5.982056609E-4,9.579366684E0,-4.139583111E-1,9.588306832E0
3.824842715E0,1.794616925E-3,9.572187424E0,-3.972085714E-1,9.580425353E0
3.827286465E0,6.580262445E-3,9.579366684E0,-4.019941986E-1,9.587799993E0
3.829730944E0,4.187439568E-3,9.584152222E0,-4.163511395E-1,9.593192358E0
3.832176309E0,6.580262445E-3,9.586544991E0,-4.211367965E-1,9.595793055E0
3.834620736E0,-5.982056609E-4,9.574581146E0,-3.900300860E-1,9.582522004E0
3.837064486E0,2.093719877E-2,9.569794655E0,-4.163511395E-1,9.578870308E0
3.839508965E0,1.136590727E-2,9.598508835E0,-3.972085714E-1,9.606730749E0
3.841954330E0,-1.016949583E-2,9.572187424E0,-4.067798555E-1,9.580832184E0
3.844398757E0,1.375873014E-2,9.581759453E0,-4.115654826E-1,9.590604239E0
3.846842507E0,-2.991028363E-3,9.579366684E0,-4.091726840E-1,9.588101861E0
3.849286986E0,-5.383851007E-3,9.555438042E0,-4.139583111E-1,9.564402053E0
3.851732351E0,-1.734796353E-2,9.565009117E0,-4.187439680E-1,9.574186486E0
3.854176830E0,8.973085321E-3,9.596116066E0,-3.972085714E-1,9.604337495E0
3.856620528E0,4.187439568E-3,9.572187424E0,-4.067798555E-1,9.580827702E0
3.859065007E0,-1.495514158E-2,9.562616348E0,-4.187439680E-1,9.571791974E0
3.861510371E0,1.615155302E-2,9.572187424E0,-3.924229145E-1,9.580241578E0
3.863954798E0,-2.991028363E-3,9.596116066E0,-4.091726840E-1,9.604836010E0
3.866398548E0,1.794616925E-3,9.572187424E0,-4.139583111E-1,9.581134420E0
3.868843028E0,2.093719877E-2,9.569794655E0,-4.115654826E-1,9.578663490E0
3.871288392E0,-5.383851007E-3,9.579366684E0,-4.091726840E-1,9.588102906E0
3.873732819E0,1.136590727E-2,9.576973915E0,-4.091726840E-1,9.585717544E0
3.876176569E0,6.580262445E-3,9.579366684E0,-4.019941986E-1,9.587799993E0
3.878621048E0,2.093719877E-2,9.598508835E0,-4.115654826E-1,9.607351163E0
3.881066413E0,-7.776673418E-3,9.588937759E0,-3.900300860E-1,9.596869870E0
3.883510840E0,1.615155302E-2,9.584152222E0,-4.019941986E-1,9.592592664E0
3.885954590E0,-7.776673418E-3,9.586544991E0,-4.043870270E-1,9.595073434E0
3.888399069E0,1.854437590E-2,9.555438042E0,-4.043870270E-1,9.564009041E0
3.890844434E0,8.973085321E-3,9.572187424E0,-4.067798555E-1,9.580830989E0
3.893288861E0,-5.383851007E-3,9.584152222E0,-3.948157430E-1,9.592282433E0
3.895732611E0,-5.383851007E-3,9.569794655E0,-3.996013701E-1,9.578135517E0
3.898177090E0,1.615155302E-2,9.588937759E0,-4.139583111E-1,9.597882564E0
3.900622455E0,-5.982056609E-4,9.572187424E0,-4.091726840E-1,9.580928698E0
3.903066882E0,1.375873014E-2,9.586544991E0,-3.948157430E-1,9.594681528E0
3.905510632E0,4.187439568E-3,9.572187424E0,-3.948157430E-1,9.580327191E0
3.907955111E0,2.333002165E-2,9.579366684E0,-3.900300860E-1,9.587331945E0
3.910400476E0,1.615155302E-2,9.579366684E0,-4.211367965E-1,9.588633017E0
3.912844903E0,1.615155302E-2,9.569794655E0,-4.115654826E-1,9.578654225E0
3.915288653E0,1.794616925E-3,9.581759453E0,-4.139583111E-1,9.590697520E0
3.917733132E0,4.187439568E-3,9.565009117E0,-3.948157430E-1,9.573154988E0
3.920178496E0,1.136590727E-2,9.579366684E0,-4.067798555E-1,9.588006315E0
3.922622923E0,3.768695518E-2,9.574581146E0,-4.115654826E-1,9.583496782E0
3.925066673E0,1.375873014E-2,9.584152222E0,-3.996013701E-1,9.592488956E0
3.927511153E0,6.580262445E-3,9.576973915E0,-3.996013701E-1,9.585309276E0
3.929956517E0,1.615155302E-2,9.591330528E0,-4.307080805E-1,9.601009927E0
3.932400944E0,-5.982056609E-4,9.593723297E0,-4.091726840E-1,9.602444967E0
3.934844694E0,-7.776673418E-3,9.576973915E0,-4.235295951E-1,9.586337526E0
3.937289173E0,2.333002165E-2,9.584152222E0,-4.211367965E-1,9.593428704E0
3.939734538E0,4.187439568E-3,9.574581146E0,-3.948157430E-1,9.582718880E0
3.942178965E0,2.572284266E-2,9.581759453E0,-4.067798555E-1,9.590424690E0
3.944622715E0,-5.383851007E-3,9.576973915E0,-4.139583111E-1,9.585917788E0
3.947067194E0,1.375873014E-2,9.576973915E0,-3.996013701E-1,9.585316892E0
3.949512559E0,-2.991028363E-3,9.579366684E0,-4.091726840E-1,9.588101861E0
3.951956986E0,4.187439568E-3,9.572187424E0,-3.948157430E-1,9.580327191E0
3.954400736E0,-2.991028363E-3,9.581759453E0,-3.996013701E-1,9.590088864E0
3.956845215E0,2.093719877E-2,9.579366684E0,-4.019941986E-1,9.587820595E0
3.959290580E0,-5.383851007E-3,9.586544991E0,-4.163511395E-1,9.595583469E0
3.961735007E0,4.187439568E-3,9.574581146E0,-3.924229145E-1,9.582620592E0
3.964178757E0,6.580262445E-3,9.593723297E0,-4.187439680E-1,9.602859809E0
3.966623236E0,1.854437590E-2,9.581759453E0,-4.139583111E-1,9.590715280E0
3.969068601E0,-5.982056609E-4,9.576973915E0,-4.139583111E-1,9.585916295E0
3.971513028E0,1.615155302E-2,9.574581146E0,-4.259224236E-1,9.584063591E0
3.973956726E0,1.854437590E-2,9.586544991E0,-3.996013701E-1,9.594887702E0
3.976401309E0,1.615155302E-2,9.584152222E0,-4.091726840E-1,9.592896172E0
3.978846621E0,8.973085321E-3,9.586544991E0,-3.900300860E-1,9.594480123E0
3.981291048E0,-7.776673418E-3,9.581759453E0,-4.211367965E-1,9.591013027E0
3.983734798E0,2.093719877E-2,9.581759453E0,-3.972085714E-1,9.590011847E0
3.986179278E0,2.333002165E-2,9.581759453E0,-4.163511395E-1,9.590829306E0
3.988624642E0,-7.776673418E-3,9.569794655E0,-4.091726840E-1,9.578541251E0
3.991069069E0,1.854437590E-2,9.565009117E0,-4.043870270E-1,9.573571547E0
3.993512819E0,1.375873014E-2,9.565009117E0,-3.876372576E-1,9.572870591E0
3.995957298E0,1.136590727E-2,9.584152222E0,-3.924229145E-1,9.592189465E0
3.998402663E0,8.973085321E-3,9.560223579E0,-3.996013701E-1,9.568575477E0
4.000847090E0,1.615155302E-2,9.591330528E0,-4.211367965E-1,9.600585314E0
4.003290840E0,2.333002165E-2,9.574581146E0,-4.307080805E-1,9.584292247E0
4.005735319E0,-1.256231871E-2,9.567401886E0,-4.067798555E-1,9.576053807E0
4.008180684E0,-5.383851007E-3,9.584152222E0,-3.828516304E-1,9.591797442E0
