"Time (s)","Acceleration x (m/s^2)","Acceleration y (m/s^2)","Acceleration z (m/s^2)","Absolute acceleration (m/s^2)"
2.168231200E-2,-9.877572060E0,-5.503492057E-2,1.127617657E-1,9.878368987E0
2.410564500E-2,-9.896714211E0,-5.503492057E-2,1.127617657E-1,9.897509597E0
2.652929100E-2,-9.906285286E0,-6.221338734E-2,1.199402362E-1,9.907206687E0
2.895246800E-2,-9.891928673E0,-6.939185411E-2,1.223330572E-1,9.892928458E0
3.137658300E-2,-9.918250084E0,-6.699903309E-2,1.319043487E-1,9.919353424E0
3.380069800E-2,-9.920642853E0,-4.546362907E-2,1.271187067E-1,9.921561405E0
3.622439500E-2,-9.891928673E0,-6.221338734E-2,1.103689447E-1,9.892739998E0
3.864819800E-2,-9.925428391E0,-6.699903309E-2,1.271187067E-1,9.926468494E0
4.107163500E-2,-9.908679008E0,-7.178468257E-2,1.199402362E-1,9.909664898E0
4.349548900E-2,-9.906285286E0,-6.221338734E-2,1.199402362E-1,9.907206687E0
4.591918700E-2,-9.906285286E0,-5.982056633E-2,1.390828192E-1,9.907442187E0
4.834252000E-2,-9.887143135E0,-7.657032460E-2,1.223330572E-1,9.888196386E0
5.076736400E-2,-9.894321442E0,-7.178468257E-2,1.390828192E-1,9.895559300E0
5.319090600E-2,-9.899106979E0,-6.699903309E-2,1.151545867E-1,9.900003456E0
5.561382300E-2,-9.927821159E0,-5.503492057E-2,1.151545867E-1,9.928641518E0
5.803694800E-2,-9.906285286E0,-5.982056633E-2,1.295115203E-1,9.907312446E0
6.046111400E-2,-9.896714211E0,-5.264209956E-2,1.414756328E-1,9.897865361E0
6.288533300E-2,-9.891928673E0,-6.699903309E-2,1.462612897E-1,9.893236786E0
6.530835400E-2,-9.908679008E0,-7.178468257E-2,1.342971772E-1,9.909849064E0
6.773179100E-2,-9.896714211E0,-6.939185411E-2,1.462612897E-1,9.898038177E0
7.015548900E-2,-9.918250084E0,-5.503492057E-2,1.366899908E-1,9.919344622E0
7.257913500E-2,-9.920642853E0,-4.785645381E-2,1.223330572E-1,9.921512497E0
7.500356200E-2,-9.903892517E0,-5.982056633E-2,1.390828192E-1,9.905049698E0
7.742772900E-2,-9.915857315E0,-7.178468257E-2,1.295115203E-1,9.916962870E0
7.985163500E-2,-9.896714211E0,-7.178468257E-2,1.414756328E-1,9.897985682E0
8.227528100E-2,-9.903892517E0,-6.460621208E-2,1.534397453E-1,9.905291753E0
8.469882300E-2,-9.889535904E0,-7.657032460E-2,1.223330572E-1,9.890588900E0
8.712194800E-2,-9.899106979E0,-7.657032460E-2,1.414756328E-1,9.900413999E0
8.954559300E-2,-9.896714211E0,-6.699903309E-2,1.390828192E-1,9.897918219E0
9.196851000E-2,-9.879964828E0,-5.982056633E-2,1.390828192E-1,9.881124812E0
9.439173900E-2,-9.903892517E0,-8.135596663E-2,1.438684613E-1,9.905271522E0
9.681502000E-2,-9.887143135E0,-7.417750359E-2,1.366899908E-1,9.888366186E0
9.923856200E-2,-9.891928673E0,-8.853443712E-2,1.366899908E-1,9.893269195E0
1.016621040E-1,-9.894321442E0,-5.742774159E-2,1.342971772E-1,9.895399460E0
1.040858020E-1,-9.918250084E0,-6.460621208E-2,1.319043487E-1,9.919337551E0
1.065090830E-1,-9.899106979E0,-8.374879509E-2,1.414756328E-1,9.900472120E0
1.089325200E-1,-9.920642853E0,-6.460621208E-2,1.319043487E-1,9.921730057E0
1.113562180E-1,-9.903892517E0,-5.742774159E-2,1.175474152E-1,9.904756551E0
1.137795000E-1,-9.906285286E0,-6.939185411E-2,1.342971772E-1,9.907438576E0
1.162028330E-1,-9.918250084E0,-7.417750359E-2,1.366899908E-1,9.919469299E0
1.186265830E-1,-9.913464546E0,-7.657032460E-2,1.127617657E-1,9.914401522E0
1.210499680E-1,-9.906285286E0,-9.092725813E-2,1.247258782E-1,9.907487698E0
1.234731980E-1,-9.911071777E0,-6.939185411E-2,1.223330572E-1,9.912069632E0
1.258964790E-1,-9.915857315E0,-6.939185411E-2,1.295115203E-1,9.916945838E0
1.283202290E-1,-9.901499748E0,-7.657032460E-2,1.295115203E-1,9.902642754E0
1.307438230E-1,-9.896714211E0,-6.699903309E-2,1.127617657E-1,9.897583354E0
1.331674160E-1,-9.896714211E0,-5.742774159E-2,1.103689447E-1,9.897496219E0
1.355905930E-1,-9.896714211E0,-7.178468257E-2,1.390828192E-1,9.897951770E0
1.380133540E-1,-9.906285286E0,-5.503492057E-2,1.486541033E-1,9.907553434E0
1.404370000E-1,-9.918250084E0,-7.178468257E-2,1.295115203E-1,9.919355372E0
1.428606980E-1,-9.903892517E0,-6.939185411E-2,1.342971772E-1,9.905046085E0
1.452844480E-1,-9.899106979E0,-6.460621208E-2,1.247258782E-1,9.900103509E0
1.477086140E-1,-9.911071777E0,-8.374879509E-2,1.223330572E-1,9.912180538E0
1.501320000E-1,-9.887143135E0,-6.460621208E-2,1.438684613E-1,9.888400855E0
1.525559580E-1,-9.903892517E0,-8.135596663E-2,1.223330572E-1,9.904982138E0
1.549796040E-1,-9.911071777E0,-7.178468257E-2,1.342971772E-1,9.912241550E0
1.574030930E-1,-9.920642853E0,-5.982056633E-2,1.582254022E-1,9.922084881E0
1.598273120E-1,-9.915857315E0,-8.374879509E-2,1.271187067E-1,9.917025729E0
1.622509580E-1,-9.901499748E0,-7.657032460E-2,1.486541033E-1,9.902911608E0
1.646747600E-1,-9.896714211E0,-7.417750359E-2,1.462612897E-1,9.898072885E0
1.670986660E-1,-9.915857315E0,-7.178468257E-2,1.654038578E-1,9.917496547E0
1.695222080E-1,-9.887143135E0,-7.657032460E-2,1.366899908E-1,9.888384425E0
1.719455930E-1,-9.903892517E0,-6.460621208E-2,1.342971772E-1,9.905013715E0
1.743693950E-1,-9.901499748E0,-9.810572863E-2,1.414756328E-1,9.902996383E0
1.767929890E-1,-9.908679008E0,-5.024927482E-2,1.462612897E-1,9.909885824E0
1.792166870E-1,-9.906285286E0,-4.546362907E-2,1.510469317E-1,9.907541082E0
1.816399160E-1,-9.894321442E0,-6.939185411E-2,1.606182158E-1,9.895868341E0
1.840637700E-1,-9.908679008E0,-7.657032460E-2,1.438684613E-1,9.910019215E0
1.864872080E-1,-9.906285286E0,-6.939185411E-2,1.295115203E-1,9.907374861E0
1.889109580E-1,-9.903892517E0,-5.742774159E-2,1.462612897E-1,9.905138934E0
1.913347080E-1,-9.899106979E0,-6.939185411E-2,1.319043487E-1,9.900228936E0
1.937586140E-1,-9.913464546E0,-6.460621208E-2,1.319043487E-1,9.914552538E0
1.961820000E-1,-9.891928673E0,-7.657032460E-2,1.438684613E-1,9.893271148E0
1.986054890E-1,-9.875179291E0,-6.221338734E-2,1.175474152E-1,9.876074824E0
2.010287180E-1,-9.903892517E0,-7.657032460E-2,1.223330572E-1,9.904943987E0
2.034529890E-1,-9.911071777E0,-7.178468257E-2,1.319043487E-1,9.912209419E0
2.058770000E-1,-9.925428391E0,-7.417750359E-2,1.319043487E-1,9.926581979E0
2.083006980E-1,-9.930213928E0,-7.657032460E-2,1.342971772E-1,9.931417190E0
2.107243430E-1,-9.901499748E0,-7.178468257E-2,1.271187067E-1,9.902575901E0
2.131483540E-1,-9.908679008E0,-6.939185411E-2,1.247258782E-1,9.909706931E0
2.155718430E-1,-9.896714211E0,-9.092725813E-2,1.319043487E-1,9.898010845E0
2.179950730E-1,-9.906285286E0,-7.178468257E-2,1.271187067E-1,9.907360919E0
2.204181450E-1,-9.915857315E0,-7.417750359E-2,1.414756328E-1,9.917143941E0
2.228417910E-1,-9.906285286E0,-5.503492057E-2,1.151545867E-1,9.907107428E0
2.252653850E-1,-9.899106979E0,-5.503492057E-2,1.175474152E-1,9.899957840E0
2.276879370E-1,-9.911071777E0,-5.982056633E-2,1.247258782E-1,9.912037067E0
2.301111660E-1,-9.920642853E0,-5.264209956E-2,1.151545867E-1,9.921450820E0
2.325344480E-1,-9.908679008E0,-6.699903309E-2,1.390828192E-1,9.909881563E0
2.349572600E-1,-9.920642853E0,-8.135596663E-2,1.151545867E-1,9.921644722E0
2.373803330E-1,-9.918250084E0,-5.742774159E-2,1.271187067E-1,9.919230910E0
2.398035100E-1,-9.923035622E0,-5.742774159E-2,1.223330572E-1,9.923955828E0
2.422270520E-1,-9.913464546E0,-6.939185411E-2,1.319043487E-1,9.914584878E0
2.446510100E-1,-9.903892517E0,-7.178468257E-2,1.390828192E-1,9.905129179E0
2.470753850E-1,-9.908679008E0,-8.374879509E-2,1.175474152E-1,9.909730115E0
2.494989790E-1,-9.918250084E0,-7.896314561E-2,1.366899908E-1,9.919506241E0
2.519225730E-1,-9.896714211E0,-8.853443712E-2,1.199402362E-1,9.897836944E0
2.543464790E-1,-9.913464546E0,-6.939185411E-2,1.414756328E-1,9.914716834E0
2.567700730E-1,-9.923035622E0,-5.503492057E-2,1.414756328E-1,9.924196700E0
2.591936140E-1,-9.906285286E0,-6.939185411E-2,1.295115203E-1,9.907374861E0
2.616175200E-1,-9.894321442E0,-8.135596663E-2,1.366899908E-1,9.895600019E0
2.640414270E-1,-9.906285286E0,-7.896314561E-2,1.510469317E-1,9.907751436E0
2.664654890E-1,-9.911071777E0,-6.939185411E-2,1.414756328E-1,9.912324367E0
2.688895520E-1,-9.930213928E0,-4.307080805E-2,1.247258782E-1,9.931090590E0
2.713131450E-1,-9.906285286E0,-6.939185411E-2,1.223330572E-1,9.907283622E0
2.737368950E-1,-9.906285286E0,-5.742774159E-2,1.247258782E-1,9.907236883E0
2.761603330E-1,-9.901499748E0,-7.896314561E-2,1.366899908E-1,9.902758030E0
2.785838230E-1,-9.918250084E0,-5.982056633E-2,1.486541033E-1,9.919544408E0
2.810075200E-1,-9.930213928E0,-6.460621208E-2,1.295115203E-1,9.931268593E0
2.834311140E-1,-9.937392235E0,-6.699903309E-2,1.582254022E-1,9.938877632E0
2.858541870E-1,-9.899106979E0,-7.657032460E-2,1.462612897E-1,9.900483542E0
2.882777290E-1,-9.901499748E0,-8.614161611E-2,1.175474152E-1,9.902572142E0
2.907010100E-1,-9.913464546E0,-8.135596663E-2,1.295115203E-1,9.914644287E0
2.931239790E-1,-9.908679008E0,-7.896314561E-2,1.342971772E-1,9.909903663E0
2.955478330E-1,-9.918250084E0,-6.699903309E-2,1.438684613E-1,9.919519733E0
2.979715310E-1,-9.889535904E0,-9.092725813E-2,1.462612897E-1,9.891035362E0
3.003944480E-1,-9.911071777E0,-4.067798331E-2,1.534397453E-1,9.912342923E0
3.028181980E-1,-9.870393753E0,-6.221338734E-2,1.366899908E-1,9.871536228E0
3.052417390E-1,-9.879964828E0,-6.221338734E-2,1.295115203E-1,9.881009501E0
3.076649680E-1,-9.903892517E0,-5.982056633E-2,1.534397453E-1,9.905261695E0
3.100892390E-1,-9.879964828E0,-5.742774159E-2,1.366899908E-1,9.881077224E0
3.125126250E-1,-9.903892517E0,-6.939185411E-2,1.366899908E-1,9.905078817E0
3.149366350E-1,-9.875179291E0,-7.896314561E-2,1.319043487E-1,9.876375852E0
3.173601250E-1,-9.899106979E0,-8.374879509E-2,1.390828192E-1,9.900438217E0
3.197833020E-1,-9.896714211E0,-5.503492057E-2,1.223330572E-1,9.897623269E0
3.222065830E-1,-9.920642853E0,-7.657032460E-2,1.199402362E-1,9.921663333E0
3.246305930E-1,-9.903892517E0,-7.417750359E-2,1.103689447E-1,9.904785237E0
3.270544480E-1,-9.932606697E0,-7.178468257E-2,1.271187067E-1,9.933679480E0
3.294781450E-1,-9.891928673E0,-7.417750359E-2,1.199402362E-1,9.892933884E0
3.319015830E-1,-9.896714211E0,-7.657032460E-2,1.223330572E-1,9.897766443E0
3.343252810E-1,-9.925428391E0,-7.896314561E-2,1.390828192E-1,9.926716876E0
3.367486660E-1,-9.906285286E0,-6.939185411E-2,1.247258782E-1,9.907313457E0
3.391723640E-1,-9.879964828E0,-5.982056633E-2,1.199402362E-1,9.880873907E0
3.415965310E-1,-9.884750366E0,-6.699903309E-2,1.414756328E-1,9.885989785E0
3.440200200E-1,-9.906285286E0,-7.417750359E-2,1.366899908E-1,9.907505974E0
3.464432500E-1,-9.911071777E0,-5.982056633E-2,1.414756328E-1,9.912261984E0
3.488665310E-1,-9.923035622E0,-6.221338734E-2,1.390828192E-1,9.924205282E0
3.512902290E-1,-9.913464546E0,-7.178468257E-2,1.342971772E-1,9.914634037E0
3.537137180E-1,-9.913464546E0,-5.503492057E-2,1.462612897E-1,9.914696189E0
3.561376770E-1,-9.908679008E0,-7.657032460E-2,1.295115203E-1,9.909821186E0
3.585615310E-1,-9.911071777E0,-7.896314561E-2,1.414756328E-1,9.912395992E0
3.609852290E-1,-9.887143135E0,-6.460621208E-2,1.366899908E-1,9.888299019E0
3.634095000E-1,-9.911071777E0,-5.982056633E-2,1.175474152E-1,9.911949338E0
3.658330930E-1,-9.908679008E0,-7.657032460E-2,1.414756328E-1,9.909984766E0
3.682567390E-1,-9.906285286E0,-7.657032460E-2,1.342971772E-1,9.907491454E0
3.706800200E-1,-9.903892517E0,-7.896314561E-2,1.295115203E-1,9.905054033E0
3.731032500E-1,-9.906285286E0,-7.178468257E-2,1.342971772E-1,9.907455624E0
3.755262180E-1,-9.896714211E0,-7.178468257E-2,1.366899908E-1,9.897918436E0
3.779498120E-1,-9.906285286E0,-7.417750359E-2,1.319043487E-1,9.907441104E0
3.803733020E-1,-9.915857315E0,-7.657032460E-2,1.366899908E-1,9.917095011E0
3.827965310E-1,-9.915857315E0,-8.853443712E-2,1.390828192E-1,9.917227872E0
3.852202290E-1,-9.901499748E0,-5.742774159E-2,1.223330572E-1,9.902421956E0
3.876442910E-1,-9.937392235E0,-7.657032460E-2,1.319043487E-1,9.938562582E0
3.900675730E-1,-9.899106979E0,-7.178468257E-2,1.199402362E-1,9.900093822E0
3.924910100E-1,-9.908679008E0,-7.657032460E-2,1.175474152E-1,9.909672048E0
3.949147080E-1,-9.913464546E0,-7.657032460E-2,1.271187067E-1,9.914575205E0
3.973390310E-1,-9.915857315E0,-6.699903309E-2,1.342971772E-1,9.916993037E0
3.997626250E-1,-9.896714211E0,-7.417750359E-2,1.342971772E-1,9.897903323E0
4.021856450E-1,-9.894321442E0,-5.503492057E-2,1.295115203E-1,9.895322070E0
4.046091870E-1,-9.925428391E0,-9.332008660E-2,1.342971772E-1,9.926775564E0
4.070327290E-1,-9.911071777E0,-7.896314561E-2,1.366899908E-1,9.912328844E0
4.094565310E-1,-9.894321442E0,-6.221338734E-2,1.366899908E-1,9.895461154E0
4.118804890E-1,-9.903892517E0,-5.264209956E-2,1.295115203E-1,9.904879172E0
4.143038230E-1,-9.889535904E0,-4.785645381E-2,1.151545867E-1,9.890322099E0
4.167272080E-1,-9.908679008E0,-5.742774159E-2,1.175474152E-1,9.909542625E0
4.191505930E-1,-9.906285286E0,-8.135596663E-2,1.151545867E-1,9.907288607E0
4.215742910E-1,-9.930213928E0,-7.417750359E-2,1.390828192E-1,9.931464897E0
4.239977290E-1,-9.927821159E0,-6.460621208E-2,1.271187067E-1,9.928845154E0
4.264208540E-1,-9.906285286E0,-7.657032460E-2,1.295115203E-1,9.907427740E0
4.288445000E-1,-9.901499748E0,-6.221338734E-2,1.295115203E-1,9.902542149E0
4.312677810E-1,-9.889535904E0,-5.503492057E-2,1.175474152E-1,9.890387588E0
4.336909060E-1,-9.901499748E0,-7.896314561E-2,1.558325738E-1,9.903040757E0
4.361146560E-1,-9.901499748E0,-4.546362907E-2,1.534397453E-1,9.902792937E0
4.385381450E-1,-9.896714211E0,-5.503492057E-2,1.342971772E-1,9.897778374E0
4.409615830E-1,-9.911071777E0,-8.374879509E-2,1.127617657E-1,9.912067032E0
4.433854890E-1,-9.911071777E0,-6.939185411E-2,1.295115203E-1,9.912160826E0
4.458090830E-1,-9.911071777E0,-6.699903309E-2,1.366899908E-1,9.912240756E0
4.482329370E-1,-9.911071777E0,-6.221338734E-2,1.390828192E-1,9.912242850E0
4.506563750E-1,-9.908679008E0,-5.742774159E-2,1.366899908E-1,9.909788181E0
4.530790830E-1,-9.884750366E0,-5.742774159E-2,1.247258782E-1,9.885704036E0
4.555022080E-1,-9.923035622E0,-5.982056633E-2,1.414756328E-1,9.924224393E0
4.579248120E-1,-9.942177773E0,-9.571290761E-2,1.462612897E-1,9.943714205E0
4.603483540E-1,-9.918250084E0,-7.178468257E-2,1.223330572E-1,9.919264244E0
4.627717910E-1,-9.918250084E0,-8.614161611E-2,1.390828192E-1,9.919599243E0
4.651959580E-1,-9.908679008E0,-6.221338734E-2,1.677966863E-1,9.910294947E0
4.676200200E-1,-9.937392235E0,-7.417750359E-2,1.247258782E-1,9.938451754E0
4.700432500E-1,-9.903892517E0,-6.939185411E-2,1.510469317E-1,9.905287345E0
4.724666350E-1,-9.911071777E0,-7.417750359E-2,1.295115203E-1,9.912195484E0
4.748898640E-1,-9.925428391E0,-5.503492057E-2,1.175474152E-1,9.926276995E0
4.773136140E-1,-9.915857315E0,-7.178468257E-2,1.390828192E-1,9.917092485E0
4.797376250E-1,-9.884750366E0,-8.614161611E-2,1.319043487E-1,9.886005712E0
4.821613230E-1,-9.896714211E0,-7.417750359E-2,1.247258782E-1,9.897778085E0
4.845841350E-1,-9.894321442E0,-6.939185411E-2,1.295115203E-1,9.895412334E0
4.870080930E-1,-9.903892517E0,-5.982056633E-2,1.342971772E-1,9.904983656E0
4.894319480E-1,-9.879964828E0,-7.417750359E-2,1.271187067E-1,9.881061000E0
4.918555410E-1,-9.875179291E0,-5.503492057E-2,1.151545867E-1,9.876004022E0
4.942795520E-1,-9.896714211E0,-7.657032460E-2,1.319043487E-1,9.897889368E0
4.967031450E-1,-9.887143135E0,-8.374879509E-2,1.271187067E-1,9.888314942E0
4.991266350E-1,-9.915857315E0,-3.828516230E-2,1.342971772E-1,9.916840615E0
5.015500200E-1,-9.918250084E0,-7.417750359E-2,1.438684613E-1,9.919570815E0
5.039740310E-1,-9.925428391E0,-8.614161611E-2,1.582254022E-1,9.927063231E0
5.063976770E-1,-9.899106979E0,-8.374879509E-2,1.390828192E-1,9.900438217E0
5.088213750E-1,-9.915857315E0,-7.178468257E-2,1.271187067E-1,9.916931910E0
5.112453330E-1,-9.906285286E0,-7.178468257E-2,1.438684613E-1,9.907589987E0
5.136686660E-1,-9.918250084E0,-7.896314561E-2,1.295115203E-1,9.919409919E0
5.160923640E-1,-9.915857315E0,-5.742774159E-2,1.199402362E-1,9.916748958E0
5.185161140E-1,-9.899106979E0,-7.417750359E-2,1.223330572E-1,9.900140740E0
5.209393430E-1,-9.918250084E0,-6.460621208E-2,1.055833027E-1,9.919022458E0
5.233630930E-1,-9.908679008E0,-6.221338734E-2,1.151545867E-1,9.909543419E0
5.257867390E-1,-9.899106979E0,-5.264209956E-2,1.390828192E-1,9.900223947E0
5.282109060E-1,-9.927821159E0,-5.982056633E-2,1.199402362E-1,9.928725856E0
5.306350200E-1,-9.906285286E0,-8.614161611E-2,1.510469317E-1,9.907811248E0
5.330590310E-1,-9.899106979E0,-6.939185411E-2,1.438684613E-1,9.900395565E0
5.354828330E-1,-9.908679008E0,-6.221338734E-2,1.247258782E-1,9.909659265E0
5.379066350E-1,-9.920642853E0,-7.657032460E-2,1.319043487E-1,9.921815176E0
5.403295520E-1,-9.906285286E0,-8.374879509E-2,1.414756328E-1,9.907649438E0
5.427531980E-1,-9.891928673E0,-8.135596663E-2,1.295115203E-1,9.893110982E0
5.451769480E-1,-9.884750366E0,-5.982056633E-2,1.319043487E-1,9.885811401E0
5.476003850E-1,-9.896714211E0,-7.896314561E-2,1.319043487E-1,9.897908168E0
5.500236140E-1,-9.903892517E0,-8.853443712E-2,1.366899908E-1,9.905231420E0
5.524470520E-1,-9.906285286E0,-7.178468257E-2,1.462612897E-1,9.907625022E0
5.548701250E-1,-9.884750366E0,-7.896314561E-2,1.462612897E-1,9.886147751E0
5.572936660E-1,-9.911071777E0,-6.699903309E-2,1.534397453E-1,9.912485884E0
5.597171560E-1,-9.925428391E0,-8.135596663E-2,1.390828192E-1,9.926736199E0
5.621408020E-1,-9.891928673E0,-8.853443712E-2,1.342971772E-1,9.893236424E0
5.645649160E-1,-9.906285286E0,-7.896314561E-2,1.366899908E-1,9.907542960E0
5.669881450E-1,-9.896714211E0,-6.939185411E-2,1.390828192E-1,9.897934705E0
5.694120000E-1,-9.899106979E0,-6.939185411E-2,1.390828192E-1,9.900327179E0
5.718352290E-1,-9.899106979E0,-5.742774159E-2,1.295115203E-1,9.900120715E0
5.742593950E-1,-9.903892517E0,-7.657032460E-2,1.295115203E-1,9.905035247E0
5.766837700E-1,-9.903892517E0,-7.896314561E-2,1.271187067E-1,9.905023036E0
5.791077810E-1,-9.896714211E0,-7.896314561E-2,1.390828192E-1,9.898006434E0
5.815313750E-1,-9.915857315E0,-5.982056633E-2,1.199402362E-1,9.916763104E0
5.839549160E-1,-9.896714211E0,-6.221338734E-2,1.175474152E-1,9.897607795E0
5.863792910E-1,-9.906285286E0,-4.307080805E-2,1.486541033E-1,9.907494199E0
5.888027290E-1,-9.911071777E0,-7.417750359E-2,1.199402362E-1,9.912075047E0
5.912258540E-1,-9.913464546E0,-6.460621208E-2,1.127617657E-1,9.914316340E0
5.936498120E-1,-9.903892517E0,-7.178468257E-2,1.223330572E-1,9.904908147E0
5.960737180E-1,-9.913464546E0,-7.657032460E-2,1.247258782E-1,9.914544814E0
5.984979890E-1,-9.913464546E0,-5.024927482E-2,1.271187067E-1,9.914406864E0
6.009218430E-1,-9.920642853E0,-5.503492057E-2,1.271187067E-1,9.921609880E0
6.033449160E-1,-9.918250084E0,-5.742774159E-2,1.414756328E-1,9.919425287E0
6.057693950E-1,-9.908679008E0,-5.503492057E-2,1.151545867E-1,9.909500952E0
6.081927290E-1,-9.913464546E0,-6.221338734E-2,1.534397453E-1,9.914847128E0
6.106159580E-1,-9.884750366E0,-5.742774159E-2,1.414756328E-1,9.885929552E0
6.130400730E-1,-9.896714211E0,-6.699903309E-2,1.079761237E-1,9.897529989E0
6.154638230E-1,-9.896714211E0,-4.546362907E-2,1.223330572E-1,9.897574677E0
6.178869480E-1,-9.913464546E0,-5.982056633E-2,1.342971772E-1,9.914554631E0
6.203107500E-1,-9.894321442E0,-7.896314561E-2,1.319043487E-1,9.895515688E0
6.227343950E-1,-9.889535904E0,-5.982056633E-2,1.390828192E-1,9.890694765E0
6.251585620E-1,-9.932606697E0,-6.699903309E-2,1.606182158E-1,9.934131209E0
6.275824160E-1,-9.903892517E0,-5.503492057E-2,1.342971772E-1,9.904955909E0
6.300058540E-1,-9.901499748E0,-5.024927482E-2,1.271187067E-1,9.902443205E0
6.324301250E-1,-9.915857315E0,-5.503492057E-2,1.342971772E-1,9.916919424E0
6.348535100E-1,-9.899106979E0,-6.460621208E-2,1.175474152E-1,9.900015674E0
6.372769480E-1,-9.884750366E0,-6.221338734E-2,1.510469317E-1,9.886100115E0
6.397000200E-1,-9.899106979E0,-5.503492057E-2,1.247258782E-1,9.900045675E0
6.421231450E-1,-9.908679008E0,-5.264209956E-2,1.247258782E-1,9.909603798E0
6.445463750E-1,-9.901499748E0,-5.503492057E-2,1.342971772E-1,9.902563397E0
6.469694480E-1,-9.899106979E0,-7.178468257E-2,1.319043487E-1,9.900245996E0
6.493922600E-1,-9.901499748E0,-5.742774159E-2,1.295115203E-1,9.902513239E0
6.518152810E-1,-9.913464546E0,-5.982056633E-2,1.366899908E-1,9.914587332E0
6.542388750E-1,-9.915857315E0,-7.417750359E-2,1.199402362E-1,9.916860101E0
6.566629370E-1,-9.884750366E0,-7.178468257E-2,1.199402362E-1,9.885738642E0
6.590864270E-1,-9.915857315E0,-5.503492057E-2,1.462612897E-1,9.917088660E0
6.615102290E-1,-9.889535904E0,-7.178468257E-2,1.175474152E-1,9.890494974E0
6.639341870E-1,-9.896714211E0,-5.503492057E-2,1.438684613E-1,9.897912868E0
6.663577810E-1,-9.884750366E0,-7.417750359E-2,1.247258782E-1,9.885815528E0
6.687808540E-1,-9.918250084E0,-6.699903309E-2,1.390828192E-1,9.919451478E0
6.712047600E-1,-9.923035622E0,-6.939185411E-2,1.414756328E-1,9.924286701E0
6.736286140E-1,-9.887143135E0,-6.939185411E-2,1.295115203E-1,9.888234819E0
6.760522080E-1,-9.923035622E0,-5.264209956E-2,1.319043487E-1,9.924051889E0
6.784760620E-1,-9.934999466E0,-5.024927482E-2,1.271187067E-1,9.935939741E0
6.809004370E-1,-9.894321442E0,-6.221338734E-2,1.319043487E-1,9.895396205E0
6.833236140E-1,-9.894321442E0,-5.024927482E-2,1.247258782E-1,9.895235132E0
6.857465830E-1,-9.891928673E0,-7.178468257E-2,1.390828192E-1,9.893166831E0
6.881687180E-1,-9.899106979E0,-7.178468257E-2,1.390828192E-1,9.900344239E0
6.905922600E-1,-9.913464546E0,-6.699903309E-2,1.510469317E-1,9.914841570E0
6.930164270E-1,-9.932606697E0,-5.264209956E-2,1.247258782E-1,9.933529259E0
6.954396040E-1,-9.908679008E0,-5.024927482E-2,1.223330572E-1,9.909561547E0
6.978630410E-1,-9.887143135E0,-5.264209956E-2,1.223330572E-1,9.888040045E0
7.002863230E-1,-9.899106979E0,-7.178468257E-2,1.271187067E-1,9.900183392E0
7.027087700E-1,-9.918250084E0,-7.417750359E-2,1.510469317E-1,9.919677525E0
7.051315310E-1,-9.894321442E0,-7.178468257E-2,1.342971772E-1,9.895493195E0
7.075543430E-1,-9.903892517E0,-5.742774159E-2,1.558325738E-1,9.905284889E0
7.099775200E-1,-9.901499748E0,-5.982056633E-2,1.390828192E-1,9.902657209E0
7.124009580E-1,-9.889535904E0,-7.178468257E-2,1.319043487E-1,9.890676023E0
7.148252810E-1,-9.911071777E0,-9.092725813E-2,1.223330572E-1,9.912243788E0
7.172487700E-1,-9.906285286E0,-7.417750359E-2,1.271187067E-1,9.907378545E0
7.196722080E-1,-9.923035622E0,-8.614161611E-2,1.271187067E-1,9.924223672E0
7.220958020E-1,-9.903892517E0,-6.939185411E-2,1.223330572E-1,9.904891095E0
7.245192910E-1,-9.908679008E0,-6.460621208E-2,1.271187067E-1,9.909704982E0
7.269429370E-1,-9.882357597E0,-5.982056633E-2,1.390828192E-1,9.883517300E0
7.293666350E-1,-9.915857315E0,-6.939185411E-2,1.534397453E-1,9.917287193E0
7.317903330E-1,-9.903892517E0,-5.503492057E-2,1.438684613E-1,9.905090306E0
7.342137180E-1,-9.899106979E0,-6.699903309E-2,1.175474152E-1,9.900031578E0
7.366377810E-1,-9.908679008E0,-7.657032460E-2,1.271187067E-1,9.909790203E0
7.390617910E-1,-9.911071777E0,-7.896314561E-2,1.271187067E-1,9.912201477E0
7.414860100E-1,-9.906285286E0,-7.657032460E-2,1.462612897E-1,9.907660851E0
7.439105410E-1,-9.899106979E0,-5.024927482E-2,1.271187067E-1,9.900050664E0
7.463343950E-1,-9.896714211E0,-7.896314561E-2,1.366899908E-1,9.897973100E0
7.487584580E-1,-9.906285286E0,-7.178468257E-2,1.534397453E-1,9.907733594E0
7.511822600E-1,-9.899106979E0,-5.503492057E-2,1.366899908E-1,9.900203634E0
7.536062180E-1,-9.911071777E0,-7.178468257E-2,1.247258782E-1,9.912116493E0
7.560296560E-1,-9.894321442E0,-6.460621208E-2,1.271187067E-1,9.895348903E0
7.584531450E-1,-9.908679008E0,-7.896314561E-2,1.319043487E-1,9.909871524E0
7.608772600E-1,-9.903892517E0,-5.742774159E-2,1.534397453E-1,9.905247533E0
7.633013750E-1,-9.925428391E0,-6.939185411E-2,1.247258782E-1,9.926454579E0
7.657251250E-1,-9.903892517E0,-5.742774159E-2,1.319043487E-1,9.904937339E0
7.681484580E-1,-9.911071777E0,-6.939185411E-2,1.319043487E-1,9.912192379E0
7.705720000E-1,-9.901499748E0,-6.699903309E-2,1.175474152E-1,9.902424124E0
7.729956450E-1,-9.920642853E0,-7.178468257E-2,1.247258782E-1,9.921686560E0
7.754187180E-1,-9.903892517E0,-7.178468257E-2,1.271187067E-1,9.904968410E0
7.778423120E-1,-9.901499748E0,-6.699903309E-2,1.342971772E-1,9.902637117E0
7.802650730E-1,-9.894321442E0,-8.853443712E-2,1.414756328E-1,9.895728901E0
7.826885620E-1,-9.891928673E0,-7.657032460E-2,1.295115203E-1,9.893072784E0
7.851115830E-1,-9.882357597E0,-4.785645381E-2,1.223330572E-1,9.883230610E0
7.875348120E-1,-9.882357597E0,-5.982056633E-2,1.366899908E-1,9.883483917E0
7.899580930E-1,-9.882357597E0,-6.460621208E-2,1.414756328E-1,9.883581385E0
7.923813230E-1,-9.913464546E0,-7.178468257E-2,1.175474152E-1,9.914421302E0
7.948042910E-1,-9.911071777E0,-5.264209956E-2,1.342971772E-1,9.912121403E0
7.972274160E-1,-9.911071777E0,-5.024927482E-2,1.366899908E-1,9.912141692E0
7.996504890E-1,-9.889535904E0,-8.614161611E-2,1.247258782E-1,9.890697514E0
8.020735620E-1,-9.899106979E0,-7.178468257E-2,1.247258782E-1,9.900152957E0
8.044968950E-1,-9.920642853E0,-5.503492057E-2,1.366899908E-1,9.921737127E0
8.069205930E-1,-9.889535904E0,-4.307080805E-2,1.271187067E-1,9.890446636E0
8.093434580E-1,-9.896714211E0,-6.939185411E-2,1.319043487E-1,9.897836438E0
8.117665310E-1,-9.891928673E0,-7.178468257E-2,1.342971772E-1,9.893100709E0
8.141901250E-1,-9.901499748E0,-8.374879509E-2,1.295115203E-1,9.902700862E0
8.166137180E-1,-9.915857315E0,-5.742774159E-2,1.366899908E-1,9.916965685E0
8.190373640E-1,-9.877572060E0,-7.178468257E-2,1.319043487E-1,9.878713560E0
8.214607500E-1,-9.911071777E0,-5.742774159E-2,1.462612897E-1,9.912317291E0
8.238838230E-1,-9.887143135E0,-5.982056633E-2,1.319043487E-1,9.888203913E0
8.263071040E-1,-9.899106979E0,-6.221338734E-2,1.342971772E-1,9.900213393E0
8.287297600E-1,-9.906285286E0,-7.178468257E-2,1.342971772E-1,9.907455624E0
8.311533540E-1,-9.913464546E0,-7.178468257E-2,1.319043487E-1,9.914601914E0
8.335765830E-1,-9.896714211E0,-7.417750359E-2,1.366899908E-1,9.897936079E0
8.359999680E-1,-9.899106979E0,-7.417750359E-2,1.223330572E-1,9.900140740E0
8.384234060E-1,-9.906285286E0,-6.460621208E-2,1.438684613E-1,9.907540576E0
8.408465310E-1,-9.903892517E0,-5.982056633E-2,1.342971772E-1,9.904983656E0
8.432705410E-1,-9.884750366E0,-6.699903309E-2,1.079761237E-1,9.885567132E0
8.456934580E-1,-9.903892517E0,-6.221338734E-2,1.079761237E-1,9.904676488E0
8.481163750E-1,-9.911071777E0,-7.417750359E-2,1.103689447E-1,9.911963851E0
8.505394480E-1,-9.901499748E0,-7.178468257E-2,1.366899908E-1,9.902703391E0
8.529629890E-1,-9.923035622E0,-7.417750359E-2,1.462612897E-1,9.924390692E0
8.553854890E-1,-9.932606697E0,-6.699903309E-2,1.366899908E-1,9.933773141E0
8.578087180E-1,-9.906285286E0,-7.896314561E-2,1.366899908E-1,9.907542960E0
8.602322080E-1,-9.920642853E0,-6.460621208E-2,1.175474152E-1,9.921549575E0
8.626549160E-1,-9.915857315E0,-6.221338734E-2,1.271187067E-1,9.916867245E0
8.650779370E-1,-9.927821159E0,-7.657032460E-2,1.175474152E-1,9.928812285E0
8.675005930E-1,-9.896714211E0,-6.460621208E-2,1.414756328E-1,9.897936223E0
8.699234060E-1,-9.911071777E0,-8.853443712E-2,1.366899908E-1,9.912409711E0
8.723470520E-1,-9.920642853E0,-9.571290761E-2,1.438684613E-1,9.922147636E0
8.747700730E-1,-9.896714211E0,-6.939185411E-2,1.366899908E-1,9.897901371E0
8.771935100E-1,-9.882357597E0,-8.853443712E-2,1.223330572E-1,9.883511289E0
8.796170520E-1,-9.903892517E0,-7.657032460E-2,1.295115203E-1,9.905035247E0
8.820404890E-1,-9.908679008E0,-5.503492057E-2,1.295115203E-1,9.909678187E0
8.844641350E-1,-9.911071777E0,-6.221338734E-2,1.414756328E-1,9.912276713E0
8.868875730E-1,-9.901499748E0,-6.221338734E-2,1.295115203E-1,9.902542149E0
8.893104370E-1,-9.901499748E0,-5.982056633E-2,1.199402362E-1,9.902406850E0
8.917335100E-1,-9.920642853E0,-6.460621208E-2,1.295115203E-1,9.921698534E0
8.941571560E-1,-9.913464546E0,-7.657032460E-2,1.414756328E-1,9.914769673E0
8.965802290E-1,-9.891928673E0,-8.614161611E-2,1.319043487E-1,9.893183108E0
8.990033540E-1,-9.889535904E0,-5.982056633E-2,1.486541033E-1,9.890833986E0
9.014262700E-1,-9.925428391E0,-8.135596663E-2,1.534397453E-1,9.926947732E0
9.038494480E-1,-9.923035622E0,-5.503492057E-2,1.175474152E-1,9.923884430E0
9.062723120E-1,-9.906285286E0,-7.417750359E-2,1.223330572E-1,9.907318297E0
9.086954370E-1,-9.908679008E0,-6.699903309E-2,1.151545867E-1,9.909574620E0
9.111190830E-1,-9.915857315E0,-6.221338734E-2,1.486541033E-1,9.917166674E0
9.135423640E-1,-9.901499748E0,-6.221338734E-2,1.295115203E-1,9.902542149E0
9.159657500E-1,-9.894321442E0,-5.264209956E-2,1.319043487E-1,9.895340658E0
9.183889790E-1,-9.889535904E0,-5.742774159E-2,1.199402362E-1,9.890429920E0
9.208125730E-1,-9.925428391E0,-7.178468257E-2,1.366899908E-1,9.926629132E0
9.232359580E-1,-9.899106979E0,-7.896314561E-2,1.247258782E-1,9.900207610E0
9.256590830E-1,-9.891928673E0,-7.417750359E-2,1.295115203E-1,9.893054554E0
9.280830410E-1,-9.918250084E0,-8.135596663E-2,1.271187067E-1,9.919398303E0
9.305059580E-1,-9.887143135E0,-7.417750359E-2,1.342971772E-1,9.888333399E0
9.329288750E-1,-9.903892517E0,-7.178468257E-2,1.534397453E-1,9.905341175E0
9.353528330E-1,-9.908679008E0,-5.024927482E-2,1.295115203E-1,9.909652765E0
9.377764270E-1,-9.908679008E0,-7.178468257E-2,1.271187067E-1,9.909754381E0
9.401997080E-1,-9.903892517E0,-6.699903309E-2,1.247258782E-1,9.904904462E0
9.426227290E-1,-9.882357597E0,-6.939185411E-2,1.271187067E-1,9.883418744E0
9.450474160E-1,-9.903892517E0,-7.178468257E-2,1.175474152E-1,9.904850197E0
9.474710620E-1,-9.901499748E0,-7.657032460E-2,1.319043487E-1,9.902674338E0
9.498939790E-1,-9.913464546E0,-8.135596663E-2,1.271187067E-1,9.914613319E0
9.523178330E-1,-9.925428391E0,-7.417750359E-2,1.319043487E-1,9.926581979E0
9.547417910E-1,-9.887143135E0,-6.699903309E-2,9.601201117E-2,9.887836293E0
9.571657500E-1,-9.911071777E0,-8.374879509E-2,1.414756328E-1,9.912435270E0
9.595888230E-1,-9.918250084E0,-7.657032460E-2,1.438684613E-1,9.919588997E0
9.620122080E-1,-9.896714211E0,-5.982056633E-2,1.414756328E-1,9.897906143E0
9.644355930E-1,-9.901499748E0,-7.178468257E-2,1.414756328E-1,9.902770605E0
9.668590310E-1,-9.903892517E0,-7.896314561E-2,1.390828192E-1,9.905183804E0
9.692822080E-1,-9.908679008E0,-7.657032460E-2,1.414756328E-1,9.909984766E0
9.717052810E-1,-9.913464546E0,-6.460621208E-2,1.366899908E-1,9.914617362E0
9.741291870E-1,-9.870393753E0,-7.178468257E-2,1.342971772E-1,9.871568346E0
9.765531980E-1,-9.901499748E0,-5.742774159E-2,1.390828192E-1,9.902643043E0
9.789779890E-1,-9.896714211E0,-8.614161611E-2,1.319043487E-1,9.897968039E0
9.814018950E-1,-9.896714211E0,-6.460621208E-2,1.151545867E-1,9.897594996E0
9.838261140E-1,-9.899106979E0,-5.742774159E-2,1.534397453E-1,9.900462650E0
9.862495520E-1,-9.903892517E0,-6.939185411E-2,1.462612897E-1,9.905215524E0
9.886736140E-1,-9.911071777E0,-5.024927482E-2,1.295115203E-1,9.912045298E0
9.910967910E-1,-9.887143135E0,-6.460621208E-2,1.319043487E-1,9.888234023E0
9.935203330E-1,-9.913464546E0,-7.896314561E-2,1.414756328E-1,9.914788442E0
9.959439270E-1,-9.915857315E0,-9.092725813E-2,1.271187067E-1,9.917088949E0
9.983674160E-1,-9.908679008E0,-5.742774159E-2,1.199402362E-1,9.909571297E0
1.000791166E0,-9.906285286E0,-4.785645381E-2,1.486541033E-1,9.907516159E0
1.003215177E0,-9.896714211E0,-5.264209956E-2,1.223330572E-1,9.897610254E0
1.005639500E0,-9.901499748E0,-7.178468257E-2,1.127617657E-1,9.902402008E0
1.008063614E0,-9.913464546E0,-6.699903309E-2,9.601201117E-2,9.914155863E0
1.010487052E0,-9.908679008E0,-4.307080805E-2,1.271187067E-1,9.909587981E0
1.012910698E0,-9.903892517E0,-5.742774159E-2,1.127617657E-1,9.904700912E0
1.015334239E0,-9.896714211E0,-5.742774159E-2,1.534397453E-1,9.898070209E0
1.017757573E0,-9.899106979E0,-5.503492057E-2,1.342971772E-1,9.900170886E0
1.020181218E0,-9.891928673E0,-7.657032460E-2,1.199402362E-1,9.892952115E0
1.022604708E0,-9.908679008E0,-6.939185411E-2,1.342971772E-1,9.909832019E0
1.025027781E0,-9.906285286E0,-7.417750359E-2,1.223330572E-1,9.907318297E0
1.027451218E0,-9.923035622E0,-7.417750359E-2,1.414756328E-1,9.924321317E0
1.029874604E0,-9.908679008E0,-7.178468257E-2,1.438684613E-1,9.909983394E0
1.032298145E0,-9.891928673E0,-7.896314561E-2,1.223330572E-1,9.893000224E0
1.034721270E0,-9.908679008E0,-5.024927482E-2,1.103689447E-1,9.909421072E0
1.037144031E0,-9.920642853E0,-6.699903309E-2,1.175474152E-1,9.921565445E0
1.039567729E0,-9.906285286E0,-9.092725813E-2,1.558325738E-1,9.907928125E0
1.041990750E0,-9.923035622E0,-7.417750359E-2,1.390828192E-1,9.924287495E0
1.044414239E0,-9.927821159E0,-7.417750359E-2,1.271187067E-1,9.928912047E0
1.046838093E0,-9.911071777E0,-5.742774159E-2,1.223330572E-1,9.911993094E0
1.049261583E0,-9.889535904E0,-8.614161611E-2,1.342971772E-1,9.890822843E0
1.051684500E0,-9.884750366E0,-7.178468257E-2,1.366899908E-1,9.885956049E0
1.054107573E0,-9.894321442E0,-8.135596663E-2,1.342971772E-1,9.895567256E0
1.056530593E0,-9.887143135E0,-7.657032460E-2,1.295115203E-1,9.888287800E0
1.058953354E0,-9.913464546E0,-6.221338734E-2,1.319043487E-1,9.914537234E0
1.061376739E0,-9.920642853E0,-6.221338734E-2,1.151545867E-1,9.921506221E0
1.063799604E0,-9.934999466E0,-6.460621208E-2,1.342971772E-1,9.936117153E0
1.066222364E0,-9.913464546E0,-5.982056633E-2,1.366899908E-1,9.914587332E0
1.068645958E0,-9.894321442E0,-5.742774159E-2,1.247258782E-1,9.895274189E0
1.071069656E0,-9.906285286E0,-7.178468257E-2,1.295115203E-1,9.907391909E0
1.073493562E0,-9.882357597E0,-6.939185411E-2,1.390828192E-1,9.883579865E0
1.075916791E0,-9.899106979E0,-6.699903309E-2,1.366899908E-1,9.900277371E0
1.078340385E0,-9.891928673E0,-7.657032460E-2,1.319043487E-1,9.893104398E0
1.080764343E0,-9.872786522E0,-6.939185411E-2,1.295115203E-1,9.873879793E0
1.083187989E0,-9.906285286E0,-6.699903309E-2,1.199402362E-1,9.907237894E0
1.085611531E0,-9.899106979E0,-9.571290761E-2,1.295115203E-1,9.900416819E0
1.088034812E0,-9.889535904E0,-8.135596663E-2,1.151545867E-1,9.890540924E0
1.090458666E0,-9.896714211E0,-6.699903309E-2,1.342971772E-1,9.897852129E0
1.092882520E0,-9.923035622E0,-5.742774159E-2,1.342971772E-1,9.924110521E0
1.095305645E0,-9.918250084E0,-5.503492057E-2,1.462612897E-1,9.919481132E0
1.097728927E0,-9.920642853E0,-6.699903309E-2,1.247258782E-1,9.921653089E0
1.100151895E0,-9.915857315E0,-6.939185411E-2,1.390828192E-1,9.917075454E0
1.102574916E0,-9.925428391E0,-7.178468257E-2,1.223330572E-1,9.926441817E0
1.104999135E0,-9.908679008E0,-6.221338734E-2,1.342971772E-1,9.909784353E0
1.107421895E0,-9.884750366E0,-6.699903309E-2,1.366899908E-1,9.885922457E0
1.109845645E0,-9.884750366E0,-6.221338734E-2,1.414756328E-1,9.885958510E0
1.112269083E0,-9.911071777E0,-5.742774159E-2,1.151545867E-1,9.911907097E0
1.114692364E0,-9.889535904E0,-7.417750359E-2,1.414756328E-1,9.890825954E0
1.117116166E0,-9.877572060E0,-5.982056633E-2,1.390828192E-1,9.878732324E0
1.119539187E0,-9.896714211E0,-6.939185411E-2,1.438684613E-1,9.898003108E0
1.121962625E0,-9.896714211E0,-5.982056633E-2,1.319043487E-1,9.897773963E0
1.124386479E0,-9.911071777E0,-5.742774159E-2,1.319043487E-1,9.912115843E0
1.126809343E0,-9.887143135E0,-7.178468257E-2,1.223330572E-1,9.888160486E0
1.129232729E0,-9.925428391E0,-6.460621208E-2,1.271187067E-1,9.926452632E0
1.131656583E0,-9.882357597E0,-7.657032460E-2,1.271187067E-1,9.883471751E0
1.134080489E0,-9.923035622E0,-7.178468257E-2,1.462612897E-1,9.924373096E0
1.136503562E0,-9.901499748E0,-6.939185411E-2,1.486541033E-1,9.902858705E0
1.138927781E0,-9.891928673E0,-8.374879509E-2,1.486541033E-1,9.893400061E0
1.141351166E0,-9.932606697E0,-7.178468257E-2,1.462612897E-1,9.933942883E0
1.143775229E0,-9.901499748E0,-8.374879509E-2,1.271187067E-1,9.902669857E0
1.146199604E0,-9.891928673E0,-5.982056633E-2,1.342971772E-1,9.893021131E0
1.148622937E0,-9.894321442E0,-6.939185411E-2,1.031904742E-1,9.895102844E0
1.151046739E0,-9.891928673E0,-6.699903309E-2,1.199402362E-1,9.892882664E0
1.153470281E0,-9.894321442E0,-6.939185411E-2,1.271187067E-1,9.895381306E0
1.155893510E0,-9.887143135E0,-4.307080805E-2,1.342971772E-1,9.888148977E0
1.158316948E0,-9.887143135E0,-6.221338734E-2,1.319043487E-1,9.888218679E0
1.160739812E0,-9.906285286E0,-6.221338734E-2,1.438684613E-1,9.907525261E0
1.163163354E0,-9.908679008E0,-7.657032460E-2,1.247258782E-1,9.909759798E0
1.165586323E0,-9.889535904E0,-9.092725813E-2,1.390828192E-1,9.890931816E0
1.168009968E0,-9.920642853E0,-6.939185411E-2,1.295115203E-1,9.921730851E0
1.170433458E0,-9.911071777E0,-5.503492057E-2,1.366899908E-1,9.912167108E0
1.172856843E0,-9.923035622E0,-7.417750359E-2,1.390828192E-1,9.924287495E0
1.175279916E0,-9.923035622E0,-6.460621208E-2,1.319043487E-1,9.924122564E0
1.177703198E0,-9.903892517E0,-5.264209956E-2,1.175474152E-1,9.904729960E0
1.180126323E0,-9.906285286E0,-5.982056633E-2,1.438684613E-1,9.907510525E0
1.182549864E0,-9.899106979E0,-7.417750359E-2,1.247258782E-1,9.900170596E0
1.184972781E0,-9.915857315E0,-7.417750359E-2,1.390828192E-1,9.917110094E0
1.187396114E0,-9.915857315E0,-7.896314561E-2,1.414756328E-1,9.917180891E0
1.189819552E0,-9.923035622E0,-7.896314561E-2,1.079761237E-1,9.923937221E0
1.192243145E0,-9.899106979E0,-4.785645381E-2,1.438684613E-1,9.900268045E0
1.194666375E0,-9.911071777E0,-7.178468257E-2,1.295115203E-1,9.912177866E0
1.197089395E0,-9.903892517E0,-7.417750359E-2,1.247258782E-1,9.904955620E0
1.199513041E0,-9.901499748E0,-7.896314561E-2,1.295115203E-1,9.902661545E0
1.201935645E0,-9.906285286E0,-6.221338734E-2,1.319043487E-1,9.907358751E0
1.204359135E0,-9.906285286E0,-6.221338734E-2,1.295115203E-1,9.907327183E0
1.206782208E0,-9.920642853E0,-6.460621208E-2,1.366899908E-1,9.921794834E0
1.209205593E0,-9.915857315E0,-6.460621208E-2,1.295115203E-1,9.916913506E0
1.211628145E0,-9.918250084E0,-6.221338734E-2,1.462612897E-1,9.919523557E0
1.214051114E0,-9.889535904E0,-6.699903309E-2,1.295115203E-1,9.890610825E0
1.216474187E0,-9.879964828E0,-7.417750359E-2,1.055833027E-1,9.880807414E0
1.218897208E0,-9.891928673E0,-5.982056633E-2,1.127617657E-1,9.892752225E0
1.221320073E0,-9.915857315E0,-7.178468257E-2,1.366899908E-1,9.917059216E0
1.223743406E0,-9.884750366E0,-8.614161611E-2,1.295115203E-1,9.885974075E0
1.226167208E0,-9.896714211E0,-8.135596663E-2,1.342971772E-1,9.897959724E0
1.228589968E0,-9.896714211E0,-5.264209956E-2,1.295115203E-1,9.897701581E0
1.231013614E0,-9.896714211E0,-6.460621208E-2,1.295115203E-1,9.897772444E0
1.233436895E0,-9.906285286E0,-6.699903309E-2,1.390828192E-1,9.907488131E0
1.235859656E0,-9.906285286E0,-5.982056633E-2,1.342971772E-1,9.907376161E0
1.238282468E0,-9.913464546E0,-5.024927482E-2,1.486541033E-1,9.914706367E0
1.240705281E0,-9.896714211E0,-6.460621208E-2,1.486541033E-1,9.898041431E0
1.243127625E0,-9.903892517E0,-7.896314561E-2,1.342971772E-1,9.905117763E0
1.245549916E0,-9.925428391E0,-6.939185411E-2,1.103689447E-1,9.926284565E0
1.247972937E0,-9.884750366E0,-8.614161611E-2,1.247258782E-1,9.885912539E0
1.250396687E0,-9.882357597E0,-6.460621208E-2,1.390828192E-1,9.883547424E0
1.252820229E0,-9.903892517E0,-8.374879509E-2,1.295115203E-1,9.905093341E0
1.255243666E0,-9.918250084E0,-8.614161611E-2,1.414756328E-1,9.919633081E0
1.257667104E0,-9.906285286E0,-7.178468257E-2,1.534397453E-1,9.907733594E0
1.260090177E0,-9.934999466E0,-6.699903309E-2,1.366899908E-1,9.936165629E0
1.262513823E0,-9.925428391E0,-7.896314561E-2,1.342971772E-1,9.926650978E0
1.264937260E0,-9.918250084E0,-6.939185411E-2,1.390828192E-1,9.919467929E0
1.267360593E0,-9.911071777E0,-7.896314561E-2,1.199402362E-1,9.912112016E0
1.269784031E0,-9.901499748E0,-6.699903309E-2,1.199402362E-1,9.902452817E0
1.272207625E0,-9.923035622E0,-7.896314561E-2,1.247258782E-1,9.924133598E0
1.274631270E0,-9.884750366E0,-5.982056633E-2,1.390828192E-1,9.885909788E0
1.277054552E0,-9.891928673E0,-7.417750359E-2,1.199402362E-1,9.892933884E0
1.279478093E0,-9.911071777E0,-6.699903309E-2,1.199402362E-1,9.912023926E0
1.281900802E0,-9.884750366E0,-6.221338734E-2,1.295115203E-1,9.885794533E0
1.284323979E0,-9.906285286E0,-7.896314561E-2,1.510469317E-1,9.907751436E0
1.286747104E0,-9.889535904E0,-7.657032460E-2,1.319043487E-1,9.890711914E0
1.289170125E0,-9.877572060E0,-6.460621208E-2,1.390828192E-1,9.878762462E0
1.291592520E0,-9.911071777E0,-6.460621208E-2,1.103689447E-1,9.911896844E0
1.294015229E0,-9.889535904E0,-5.503492057E-2,1.079761237E-1,9.890278463E0
1.296438406E0,-9.937392235E0,-5.024927482E-2,1.223330572E-1,9.938272224E0
1.298860958E0,-9.920642853E0,-4.307080805E-2,1.414756328E-1,9.921745061E0
1.301283979E0,-9.918250084E0,-5.503492057E-2,1.342971772E-1,9.919311937E0
1.303707416E0,-9.894321442E0,-6.939185411E-2,1.151545867E-1,9.895234843E0
1.306130854E0,-9.901499748E0,-8.135596663E-2,1.271187067E-1,9.902649909E0
1.308553770E0,-9.934999466E0,-6.460621208E-2,1.271187067E-1,9.936022721E0
1.310977364E0,-9.899106979E0,-6.221338734E-2,1.247258782E-1,9.900088183E0
1.313400333E0,-9.887143135E0,-5.264209956E-2,1.199402362E-1,9.888010731E0
1.315823250E0,-9.887143135E0,-6.939185411E-2,1.223330572E-1,9.888143404E0
1.318245854E0,-9.913464546E0,-6.699903309E-2,1.175474152E-1,9.914387806E0
1.320669135E0,-9.911071777E0,-7.657032460E-2,1.319043487E-1,9.912245232E0
1.323091479E0,-9.918250084E0,-6.221338734E-2,1.462612897E-1,9.919523557E0
1.325514708E0,-9.913464546E0,-6.221338734E-2,1.295115203E-1,9.914505689E0
1.327937781E0,-9.918250084E0,-6.460621208E-2,1.103689447E-1,9.919074553E0
1.330360698E0,-9.911071777E0,-5.264209956E-2,1.342971772E-1,9.912121403E0
1.332783510E0,-9.906285286E0,-7.178468257E-2,1.342971772E-1,9.907455624E0
1.335206948E0,-9.918250084E0,-5.982056633E-2,1.199402362E-1,9.919155654E0
1.337630177E0,-9.920642853E0,-6.939185411E-2,1.295115203E-1,9.921730851E0
1.340053614E0,-9.891928673E0,-6.460621208E-2,1.462612897E-1,9.893220871E0
1.342476635E0,-9.908679008E0,-5.024927482E-2,1.319043487E-1,9.909684326E0
1.344900281E0,-9.901499748E0,-5.982056633E-2,1.223330572E-1,9.902436122E0
1.347323614E0,-9.899106979E0,-6.221338734E-2,1.151545867E-1,9.899972226E0
1.349746166E0,-9.918250084E0,-5.982056633E-2,1.079761237E-1,9.919018201E0
1.352169343E0,-9.923035622E0,-5.264209956E-2,1.199402362E-1,9.923900080E0
1.354592833E0,-9.903892517E0,-9.092725813E-2,1.271187067E-1,9.905125639E0
1.357016114E0,-9.901499748E0,-6.460621208E-2,1.199402362E-1,9.902436917E0
1.359438770E0,-9.891928673E0,-4.785645381E-2,1.223330572E-1,9.892800841E0
1.361862364E0,-9.882357597E0,-7.178468257E-2,1.390828192E-1,9.883596954E0
1.364285802E0,-9.906285286E0,-5.982056633E-2,1.342971772E-1,9.907376161E0
1.366708458E0,-9.920642853E0,-6.699903309E-2,1.271187067E-1,9.921683458E0
1.369131531E0,-9.891928673E0,-5.024927482E-2,1.486541033E-1,9.893173197E0
1.371554291E0,-9.920642853E0,-5.264209956E-2,1.534397453E-1,9.921969036E0
1.373977520E0,-9.901499748E0,-6.939185411E-2,1.390828192E-1,9.902719653E0
1.376400958E0,-9.920642853E0,-7.896314561E-2,1.223330572E-1,9.921711302E0
1.378823927E0,-9.906285286E0,-6.221338734E-2,1.319043487E-1,9.907358751E0
1.381246687E0,-9.918250084E0,-5.503492057E-2,1.247258782E-1,9.919186968E0
1.383669708E0,-9.882357597E0,-7.178468257E-2,1.247258782E-1,9.883405348E0
1.386092677E0,-9.903892517E0,-6.221338734E-2,1.295115203E-1,9.904934666E0
1.388516270E0,-9.913464546E0,-7.657032460E-2,1.247258782E-1,9.914544814E0
1.390939291E0,-9.911071777E0,-6.460621208E-2,1.295115203E-1,9.912128478E0
1.393362416E0,-9.899106979E0,-7.896314561E-2,1.366899908E-1,9.900365565E0
1.395785906E0,-9.884750366E0,-6.460621208E-2,1.319043487E-1,9.885841518E0
1.398209448E0,-9.903892517E0,-6.939185411E-2,1.390828192E-1,9.905112127E0
1.400632781E0,-9.899106979E0,-5.264209956E-2,1.438684613E-1,9.900292335E0
1.403056218E0,-9.925428391E0,-6.221338734E-2,1.366899908E-1,9.926564531E0
1.405479395E0,-9.915857315E0,-6.460621208E-2,1.319043487E-1,9.916945044E0
1.407902468E0,-9.908679008E0,-8.853443712E-2,1.366899908E-1,9.910017265E0
1.410325437E0,-9.913464546E0,-8.135596663E-2,1.366899908E-1,9.914740655E0
1.412748354E0,-9.903892517E0,-6.939185411E-2,1.366899908E-1,9.905078817E0
1.415171948E0,-9.896714211E0,-7.178468257E-2,1.366899908E-1,9.897918436E0
1.417595750E0,-9.920642853E0,-8.135596663E-2,1.247258782E-1,9.921760426E0
1.420019812E0,-9.911071777E0,-7.178468257E-2,1.271187067E-1,9.912146891E0
1.422443718E0,-9.894321442E0,-6.699903309E-2,1.342971772E-1,9.895459635E0
1.424867468E0,-9.913464546E0,-6.939185411E-2,1.247258782E-1,9.914491973E0
1.427291270E0,-9.899106979E0,-5.024927482E-2,1.175474152E-1,9.899932392E0
1.429714916E0,-9.908679008E0,-6.939185411E-2,1.342971772E-1,9.909832019E0
1.432138354E0,-9.887143135E0,-6.699903309E-2,1.438684613E-1,9.888416778E0
1.434562052E0,-9.889535904E0,-5.982056633E-2,1.390828192E-1,9.890694765E0
1.436986010E0,-9.906285286E0,-4.785645381E-2,1.438684613E-1,9.907445510E0
1.439409604E0,-9.891928673E0,-5.503492057E-2,1.390828192E-1,9.893059473E0
1.441833406E0,-9.911071777E0,-5.982056633E-2,1.342971772E-1,9.912162126E0
1.444256895E0,-9.903892517E0,-7.178468257E-2,1.271187067E-1,9.904968410E0
1.446680750E0,-9.899106979E0,-5.982056633E-2,1.271187067E-1,9.900103871E0
1.449105333E0,-9.894321442E0,-6.939185411E-2,1.438684613E-1,9.895610651E0
1.451528875E0,-9.903892517E0,-7.178468257E-2,1.319043487E-1,9.905030984E0
1.453952625E0,-9.925428391E0,-6.221338734E-2,1.175474152E-1,9.926319390E0
1.456376687E0,-9.915857315E0,-6.460621208E-2,1.438684613E-1,9.917111393E0
1.458800229E0,-9.927821159E0,-6.460621208E-2,1.295115203E-1,9.928876078E0
1.461223510E0,-9.896714211E0,-6.460621208E-2,1.199402362E-1,9.897651832E0
1.463647677E0,-9.920642853E0,-7.657032460E-2,1.390828192E-1,9.921913206E0
1.466071843E0,-9.894321442E0,-7.896314561E-2,1.247258782E-1,9.895422604E0
1.468495281E0,-9.879964828E0,-6.699903309E-2,1.390828192E-1,9.881170878E0
1.470918145E0,-9.889535904E0,-6.221338734E-2,1.510469317E-1,9.890885000E0
1.473341635E0,-9.901499748E0,-5.742774159E-2,1.390828192E-1,9.902643043E0
1.475765593E0,-9.894321442E0,-5.264209956E-2,1.223330572E-1,9.895217701E0
1.478189604E0,-9.915857315E0,-6.699903309E-2,1.462612897E-1,9.917162272E0
1.480612781E0,-9.899106979E0,-6.221338734E-2,1.247258782E-1,9.900088183E0
1.483036375E0,-9.891928673E0,-5.503492057E-2,1.247258782E-1,9.892868050E0
1.485459187E0,-9.930213928E0,-5.024927482E-2,1.199402362E-1,9.931065366E0
1.487881843E0,-9.908679008E0,-5.503492057E-2,1.055833027E-1,9.909394349E0
1.490305125E0,-9.906285286E0,-6.699903309E-2,1.438684613E-1,9.907556468E0
1.492728250E0,-9.906285286E0,-6.939185411E-2,1.223330572E-1,9.907283622E0
1.495152208E0,-9.899106979E0,-8.853443712E-2,1.175474152E-1,9.900200742E0
1.497575593E0,-9.903892517E0,-7.178468257E-2,1.295115203E-1,9.904999408E0
1.499998979E0,-9.901499748E0,-7.896314561E-2,1.199402362E-1,9.902540992E0
1.502422104E0,-9.908679008E0,-6.460621208E-2,1.319043487E-1,9.909767526E0
1.504845437E0,-9.913464546E0,-7.657032460E-2,1.366899908E-1,9.914702541E0
1.507269135E0,-9.884750366E0,-7.657032460E-2,1.319043487E-1,9.885926946E0
1.509692573E0,-9.932606697E0,-5.264209956E-2,1.247258782E-1,9.933529259E0
1.512116010E0,-9.913464546E0,-7.657032460E-2,1.247258782E-1,9.914544814E0
1.514539552E0,-9.884750366E0,-3.589234129E-2,1.319043487E-1,9.885695566E0
1.516962885E0,-9.915857315E0,-5.503492057E-2,1.414756328E-1,9.917019234E0
1.519387104E0,-9.908679008E0,-5.024927482E-2,1.319043487E-1,9.909684326E0
1.521810698E0,-9.949356079E0,-5.024927482E-2,1.438684613E-1,9.950523077E0
1.524234760E0,-9.899106979E0,-5.503492057E-2,1.558325738E-1,9.900486434E0
1.526658458E0,-9.908679008E0,-8.374879509E-2,1.271187067E-1,9.909848269E0
1.529081531E0,-9.899106979E0,-7.417750359E-2,1.295115203E-1,9.900232044E0
1.531505333E0,-9.879964828E0,-6.699903309E-2,1.223330572E-1,9.880949310E0
1.533929083E0,-9.918250084E0,-5.503492057E-2,1.127617657E-1,9.919043744E0
1.536352937E0,-9.899106979E0,-8.614161611E-2,1.438684613E-1,9.900527132E0
1.538776479E0,-9.920642853E0,-6.939185411E-2,1.295115203E-1,9.921730851E0
1.541200385E0,-9.901499748E0,-5.503492057E-2,1.151545867E-1,9.902322288E0
1.543623510E0,-9.896714211E0,-7.657032460E-2,1.247258782E-1,9.897796306E0
1.546047312E0,-9.908679008E0,-6.699903309E-2,1.342971772E-1,9.909815553E0
1.548470750E0,-9.925428391E0,-9.332008660E-2,1.247258782E-1,9.926650690E0
1.550893875E0,-9.889535904E0,-9.332008660E-2,1.366899908E-1,9.890920745E0
1.553317468E0,-9.889535904E0,-6.221338734E-2,1.175474152E-1,9.890430137E0
1.555740802E0,-9.906285286E0,-8.135596663E-2,1.366899908E-1,9.907562319E0
1.558163979E0,-9.901499748E0,-6.460621208E-2,1.223330572E-1,9.902466188E0
1.560587416E0,-9.913464546E0,-7.178468257E-2,1.199402362E-1,9.914449960E0
1.563011114E0,-9.911071777E0,-7.896314561E-2,1.271187067E-1,9.912201477E0
1.565434656E0,-9.915857315E0,-9.092725813E-2,1.295115203E-1,9.917119909E0
1.567858198E0,-9.896714211E0,-4.307080805E-2,1.247258782E-1,9.897593839E0
1.570281166E0,-9.891928673E0,-6.460621208E-2,1.295115203E-1,9.892987419E0
1.572704135E0,-9.887143135E0,-7.178468257E-2,1.438684613E-1,9.888450361E0
1.575127573E0,-9.899106979E0,-6.699903309E-2,1.247258782E-1,9.900119414E0
1.577550385E0,-9.913464546E0,-5.982056633E-2,1.319043487E-1,9.914522508E0
1.579973875E0,-9.927821159E0,-7.178468257E-2,1.199402362E-1,9.928805148E0
1.582396687E0,-9.896714211E0,-5.982056633E-2,1.558325738E-1,9.898121764E0
1.584819864E0,-9.887143135E0,-7.657032460E-2,1.223330572E-1,9.888196386E0
1.587243302E0,-9.891928673E0,-5.982056633E-2,1.271187067E-1,9.892926288E0
1.589666583E0,-9.901499748E0,-6.221338734E-2,1.342971772E-1,9.902605894E0
1.592090020E0,-9.906285286E0,-5.742774159E-2,1.414756328E-1,9.907461908E0
1.594512885E0,-9.875179291E0,-6.460621208E-2,1.414756328E-1,9.876403968E0
1.596936010E0,-9.901499748E0,-5.982056633E-2,1.390828192E-1,9.902657209E0
1.599358875E0,-9.915857315E0,-6.460621208E-2,1.295115203E-1,9.916913506E0
1.601782000E0,-9.882357597E0,-7.896314561E-2,1.534397453E-1,9.883864154E0
1.604205281E0,-9.899106979E0,-8.614161611E-2,1.223330572E-1,9.900237610E0
1.606628562E0,-9.901499748E0,-6.460621208E-2,1.223330572E-1,9.902466188E0
1.609052000E0,-9.906285286E0,-5.742774159E-2,1.295115203E-1,9.907298287E0
1.611475958E0,-9.896714211E0,-6.939185411E-2,1.486541033E-1,9.898073825E0
1.613898614E0,-9.887143135E0,-8.374879509E-2,1.390828192E-1,9.888475983E0
1.616321739E0,-9.906285286E0,-8.135596663E-2,1.486541033E-1,9.907734605E0
1.618745593E0,-9.925428391E0,-9.571290761E-2,1.223330572E-1,9.926643696E0
1.621169135E0,-9.923035622E0,-7.417750359E-2,1.366899908E-1,9.924254249E0
1.623592416E0,-9.889535904E0,-8.374879509E-2,1.175474152E-1,9.890589045E0
1.626016114E0,-9.915857315E0,-8.614161611E-2,1.199402362E-1,9.916956808E0
1.628440437E0,-9.894321442E0,-5.742774159E-2,1.319043487E-1,9.895367274E0
1.630864187E0,-9.913464546E0,-7.657032460E-2,1.295115203E-1,9.914606173E0
1.633288510E0,-9.906285286E0,-8.853443712E-2,1.247258782E-1,9.907466026E0
1.635712520E0,-9.906285286E0,-7.896314561E-2,1.462612897E-1,9.907679633E0
1.638136427E0,-9.891928673E0,-7.657032460E-2,1.199402362E-1,9.892952115E0
1.640559812E0,-9.901499748E0,-6.939185411E-2,1.247258782E-1,9.902528416E0
1.642983145E0,-9.903892517E0,-4.546362907E-2,1.031904742E-1,9.904534426E0
1.645406583E0,-9.918250084E0,-5.982056633E-2,1.390828192E-1,9.919405590E0
1.647829916E0,-9.920642853E0,-6.699903309E-2,1.462612897E-1,9.921947180E0
1.650252885E0,-9.903892517E0,-6.460621208E-2,1.486541033E-1,9.905218776E0
1.652675802E0,-9.925428391E0,-5.503492057E-2,1.414756328E-1,9.926589189E0
1.655099343E0,-9.915857315E0,-5.742774159E-2,1.199402362E-1,9.916748958E0
1.657522989E0,-9.915857315E0,-7.178468257E-2,1.223330572E-1,9.916871720E0
1.659946218E0,-9.877572060E0,-7.657032460E-2,1.295115203E-1,9.878717834E0
1.662369135E0,-9.891928673E0,-7.896314561E-2,1.319043487E-1,9.893123208E0
1.664792729E0,-9.901499748E0,-6.221338734E-2,1.223330572E-1,9.902450866E0
1.667216531E0,-9.879964828E0,-6.460621208E-2,1.319043487E-1,9.881056509E0
1.669639760E0,-9.925428391E0,-6.939185411E-2,1.223330572E-1,9.926424802E0
1.672063666E0,-9.906285286E0,-6.939185411E-2,1.390828192E-1,9.907504601E0
1.674487885E0,-9.903892517E0,-6.699903309E-2,1.247258782E-1,9.904904462E0
1.676911323E0,-9.887143135E0,-7.178468257E-2,1.151545867E-1,9.888074281E0
1.679334239E0,-9.889535904E0,-5.982056633E-2,1.342971772E-1,9.890628626E0
1.681757416E0,-9.906285286E0,-8.614161611E-2,1.366899908E-1,9.907602773E0
1.684180593E0,-9.918250084E0,-8.135596663E-2,1.342971772E-1,9.919492893E0
1.686603614E0,-9.896714211E0,-9.092725813E-2,1.342971772E-1,9.898043022E0
1.689026531E0,-9.908679008E0,-7.657032460E-2,1.534397453E-1,9.910162787E0
1.691449812E0,-9.923035622E0,-7.896314561E-2,1.319043487E-1,9.924226412E0
1.693873302E0,-9.896714211E0,-8.135596663E-2,1.462612897E-1,9.898129284E0
1.696296791E0,-9.903892517E0,-8.135596663E-2,1.271187067E-1,9.905042400E0
1.698720125E0,-9.899106979E0,-5.982056633E-2,1.342971772E-1,9.900198646E0
1.701142885E0,-9.899106979E0,-5.742774159E-2,1.271187067E-1,9.900089702E0
1.703566062E0,-9.894321442E0,-5.503492057E-2,1.319043487E-1,9.895353677E0
1.705989031E0,-9.894321442E0,-6.939185411E-2,1.342971772E-1,9.895476126E0
1.708412729E0,-9.927821159E0,-5.503492057E-2,1.271187067E-1,9.928787488E0
1.710836479E0,-9.923035622E0,-8.614161611E-2,1.295115203E-1,9.924254610E0
1.713259916E0,-9.882357597E0,-5.982056633E-2,1.271187067E-1,9.883356178E0
1.715683823E0,-9.891928673E0,-8.853443712E-2,1.319043487E-1,9.893204232E0
1.718107833E0,-9.891928673E0,-7.896314561E-2,1.127617657E-1,9.892886498E0
1.720530958E0,-9.889535904E0,-7.657032460E-2,1.390828192E-1,9.890810252E0
1.722953614E0,-9.908679008E0,-6.460621208E-2,9.840483218E-2,9.909378243E0
1.725376739E0,-9.903892517E0,-7.417750359E-2,1.151545867E-1,9.904839720E0
1.727800281E0,-9.937392235E0,-7.657032460E-2,1.366899908E-1,9.938627249E0
1.730223823E0,-9.882357597E0,-5.742774159E-2,1.199402362E-1,9.883252263E0
1.732647104E0,-9.913464546E0,-6.460621208E-2,1.390828192E-1,9.914650639E0
1.735070698E0,-9.920642853E0,-7.178468257E-2,1.366899908E-1,9.921844174E0
1.737494083E0,-9.894321442E0,-4.307080805E-2,1.319043487E-1,9.895294369E0
1.739917833E0,-9.884750366E0,-6.939185411E-2,1.462612897E-1,9.886075935E0
1.742341583E0,-9.906285286E0,-7.417750359E-2,1.414756328E-1,9.907573155E0
1.744764916E0,-9.911071777E0,-7.178468257E-2,1.342971772E-1,9.912241550E0
1.747188145E0,-9.918250084E0,-4.307080805E-2,1.199402362E-1,9.919068781E0
1.749611843E0,-9.894321442E0,-6.939185411E-2,1.271187067E-1,9.895381306E0
1.752035177E0,-9.879964828E0,-6.699903309E-2,1.486541033E-1,9.881310233E0
1.754459083E0,-9.891928673E0,-5.264209956E-2,1.295115203E-1,9.892916521E0
1.756882625E0,-9.918250084E0,-5.742774159E-2,1.366899908E-1,9.919358186E0
1.759306114E0,-9.930213928E0,-5.982056633E-2,1.271187067E-1,9.931207697E0
1.761729343E0,-9.899106979E0,-6.939185411E-2,1.319043487E-1,9.900228936E0
1.764153250E0,-9.915857315E0,-6.939185411E-2,1.223330572E-1,9.916854688E0
1.766577156E0,-9.903892517E0,-8.374879509E-2,1.295115203E-1,9.905093341E0
1.769001427E0,-9.891928673E0,-4.307080805E-2,1.486541033E-1,9.893139340E0
1.771425333E0,-9.906285286E0,-5.742774159E-2,1.319043487E-1,9.907329856E0
1.773848979E0,-9.899106979E0,-6.221338734E-2,1.175474152E-1,9.900000348E0
1.776272885E0,-9.901499748E0,-8.374879509E-2,1.223330572E-1,9.902609580E0
1.778696948E0,-9.884750366E0,-6.699903309E-2,1.366899908E-1,9.885922457E0
1.781120541E0,-9.906285286E0,-6.939185411E-2,1.534397453E-1,9.907716546E0
1.783543979E0,-9.915857315E0,-6.939185411E-2,1.390828192E-1,9.917075454E0
1.785967781E0,-9.906285286E0,-6.939185411E-2,1.319043487E-1,9.907406429E0
1.788392000E0,-9.903892517E0,-5.982056633E-2,1.366899908E-1,9.905016388E0
1.790814968E0,-9.899106979E0,-5.503492057E-2,1.247258782E-1,9.900045675E0
1.793238458E0,-9.877572060E0,-7.657032460E-2,1.414756328E-1,9.878881929E0
1.795661739E0,-9.915857315E0,-6.460621208E-2,1.247258782E-1,9.916852162E0
1.798084864E0,-9.894321442E0,-5.503492057E-2,1.319043487E-1,9.895353677E0
1.800509031E0,-9.894321442E0,-7.178468257E-2,1.247258782E-1,9.895367925E0
1.802932573E0,-9.918250084E0,-7.657032460E-2,1.175474152E-1,9.919242165E0
1.805356791E0,-9.923035622E0,-8.614161611E-2,1.175474152E-1,9.924105689E0
1.807780541E0,-9.927821159E0,-7.417750359E-2,1.223330572E-1,9.928851930E0
1.810204500E0,-9.923035622E0,-6.460621208E-2,1.271187067E-1,9.924060110E0
1.812627989E0,-9.920642853E0,-6.460621208E-2,1.438684613E-1,9.921896326E0
1.815051739E0,-9.923035622E0,-6.460621208E-2,1.199402362E-1,9.923970756E0
1.817475281E0,-9.908679008E0,-5.742774159E-2,1.366899908E-1,9.909788181E0
1.819898614E0,-9.934999466E0,-7.178468257E-2,1.247258782E-1,9.936041665E0
1.822321948E0,-9.899106979E0,-7.417750359E-2,1.319043487E-1,9.900263635E0
1.824745489E0,-9.882357597E0,-7.178468257E-2,1.319043487E-1,9.883498545E0
1.827169395E0,-9.896714211E0,-6.221338734E-2,1.438684613E-1,9.897955385E0
1.829592625E0,-9.884750366E0,-6.939185411E-2,1.342971772E-1,9.885906168E0
1.832016270E0,-9.906285286E0,-5.024927482E-2,1.414756328E-1,9.907422900E0
1.834440073E0,-9.918250084E0,-4.307080805E-2,1.342971772E-1,9.919252772E0
1.836863406E0,-9.882357597E0,-6.221338734E-2,1.462612897E-1,9.883635695E0
1.839286635E0,-9.923035622E0,-6.939185411E-2,1.414756328E-1,9.924286701E0
1.841710281E0,-9.911071777E0,-5.503492057E-2,1.414756328E-1,9.912234257E0
1.844133823E0,-9.915857315E0,-5.264209956E-2,1.510469317E-1,9.917147405E0
1.846557625E0,-9.915857315E0,-7.178468257E-2,1.390828192E-1,9.917092485E0
1.848980489E0,-9.932606697E0,-6.221338734E-2,1.462612897E-1,9.933878330E0
1.851403354E0,-9.923035622E0,-5.982056633E-2,1.271187067E-1,9.924030109E0
1.853826687E0,-9.908679008E0,-7.896314561E-2,1.295115203E-1,9.909839964E0
1.856249916E0,-9.913464546E0,-5.264209956E-2,1.295115203E-1,9.914450249E0
1.858673250E0,-9.913464546E0,-5.503492057E-2,1.271187067E-1,9.914432274E0
1.861096948E0,-9.894321442E0,-9.092725813E-2,1.271187067E-1,9.895555756E0
1.863520020E0,-9.906285286E0,-8.135596663E-2,1.462612897E-1,9.907698992E0
1.865942937E0,-9.884750366E0,-5.264209956E-2,1.342971772E-1,9.885802786E0
1.868366635E0,-9.872786522E0,-6.460621208E-2,1.366899908E-1,9.873944087E0
1.870789708E0,-9.879964828E0,-6.221338734E-2,1.223330572E-1,9.880918019E0
1.873213250E0,-9.896714211E0,-8.614161611E-2,1.271187067E-1,9.897905420E0
1.875637156E0,-9.911071777E0,-6.939185411E-2,1.271187067E-1,9.912129850E0
1.878061062E0,-9.915857315E0,-8.374879509E-2,1.103689447E-1,9.916825170E0
1.880484760E0,-9.889535904E0,-8.374879509E-2,1.534397453E-1,9.891080730E0
1.882908406E0,-9.911071777E0,-7.178468257E-2,1.342971772E-1,9.912241550E0
1.885332208E0,-9.889535904E0,-5.503492057E-2,1.175474152E-1,9.890387588E0
1.887756062E0,-9.887143135E0,-6.699903309E-2,1.319043487E-1,9.888249946E0
1.890179812E0,-9.906285286E0,-7.896314561E-2,1.319043487E-1,9.907478090E0
1.892603198E0,-9.899106979E0,-8.374879509E-2,1.342971772E-1,9.900372144E0
1.895026010E0,-9.891928673E0,-7.657032460E-2,1.366899908E-1,9.893169363E0
1.897449083E0,-9.884750366E0,-7.417750359E-2,1.271187067E-1,9.885846007E0
1.899872468E0,-9.899106979E0,-5.982056633E-2,1.271187067E-1,9.900103871E0
1.902295593E0,-9.911071777E0,-5.024927482E-2,9.840483218E-2,9.911687660E0
1.904718666E0,-9.908679008E0,-5.742774159E-2,1.247258782E-1,9.909630376E0
1.907141843E0,-9.894321442E0,-7.657032460E-2,1.510469317E-1,9.895770560E0
1.909565437E0,-9.899106979E0,-8.135596663E-2,1.342971772E-1,9.900352191E0
1.911988458E0,-9.903892517E0,-8.614161611E-2,1.127617657E-1,9.904909014E0
1.914412260E0,-9.891928673E0,-7.657032460E-2,1.319043487E-1,9.893104398E0
1.916835437E0,-9.884750366E0,-5.742774159E-2,1.295115203E-1,9.885765574E0
1.919259083E0,-9.903892517E0,-6.460621208E-2,1.271187067E-1,9.904918986E0
1.921682364E0,-9.879964828E0,-6.221338734E-2,1.271187067E-1,9.880978427E0
1.924105281E0,-9.913464546E0,-6.699903309E-2,1.247258782E-1,9.914475514E0
1.926528770E0,-9.913464546E0,-7.178468257E-2,1.271187067E-1,9.914539400E0
1.928952520E0,-9.913464546E0,-9.092725813E-2,1.486541033E-1,9.914995972E0
1.931376583E0,-9.913464546E0,-6.221338734E-2,1.295115203E-1,9.914505689E0
1.933799760E0,-9.894321442E0,-7.178468257E-2,1.199402362E-1,9.895308762E0
1.936223250E0,-9.906285286E0,-7.417750359E-2,1.319043487E-1,9.907441104E0
1.938647312E0,-9.906285286E0,-6.460621208E-2,1.295115203E-1,9.907342498E0
1.941070281E0,-9.918250084E0,-6.221338734E-2,1.295115203E-1,9.919290724E0
1.943493302E0,-9.903892517E0,-7.657032460E-2,1.414756328E-1,9.905198906E0
1.945916531E0,-9.889535904E0,-6.460621208E-2,1.127617657E-1,9.890389758E0
1.948339604E0,-9.896714211E0,-4.785645381E-2,1.055833027E-1,9.897393103E0
1.950763145E0,-9.906285286E0,-6.699903309E-2,1.414756328E-1,9.907522011E0
1.953186583E0,-9.901499748E0,-6.939185411E-2,1.295115203E-1,9.902589850E0
1.955609135E0,-9.911071777E0,-7.178468257E-2,1.247258782E-1,9.912116493E0
1.958031843E0,-9.911071777E0,-7.657032460E-2,1.414756328E-1,9.912377220E0
1.960454812E0,-9.896714211E0,-6.939185411E-2,1.486541033E-1,9.898073825E0
1.962878198E0,-9.899106979E0,-6.699903309E-2,1.390828192E-1,9.900310697E0
1.965300750E0,-9.918250084E0,-7.657032460E-2,1.319043487E-1,9.919422690E0
1.967723875E0,-9.920642853E0,-7.896314561E-2,1.319043487E-1,9.921833931E0
1.970147364E0,-9.918250084E0,-6.699903309E-2,1.223330572E-1,9.919230765E0
1.972570750E0,-9.889535904E0,-5.024927482E-2,1.271187067E-1,9.890480501E0
1.974994395E0,-9.901499748E0,-6.699903309E-2,1.271187067E-1,9.902542365E0
1.977417781E0,-9.911071777E0,-4.546362907E-2,1.630110443E-1,9.912516498E0
1.979841323E0,-9.911071777E0,-7.896314561E-2,1.295115203E-1,9.912232452E0
1.982264864E0,-9.908679008E0,-6.460621208E-2,1.342971772E-1,9.909799664E0
1.984688875E0,-9.889535904E0,-6.221338734E-2,1.486541033E-1,9.890848747E0
1.987112937E0,-9.903892517E0,-6.939185411E-2,1.247258782E-1,9.904920937E0
1.989536166E0,-9.901499748E0,-7.417750359E-2,1.175474152E-1,9.902475295E0
1.991959968E0,-9.884750366E0,-7.417750359E-2,1.175474152E-1,9.885727565E0
1.994383510E0,-9.918250084E0,-6.221338734E-2,1.319043487E-1,9.919322255E0
1.996807156E0,-9.891928673E0,-4.546362907E-2,1.271187067E-1,9.892849891E0
1.999230645E0,-9.906285286E0,-7.657032460E-2,1.342971772E-1,9.907491454E0
2.001654812E0,-9.879964828E0,-8.135596663E-2,1.295115203E-1,9.881148569E0
2.004078041E0,-9.925428391E0,-6.939185411E-2,1.390828192E-1,9.926645355E0
2.006501635E0,-9.896714211E0,-5.982056633E-2,1.390828192E-1,9.897872231E0
2.008924604E0,-9.920642853E0,-6.699903309E-2,1.342971772E-1,9.921778027E0
2.011347989E0,-9.923035622E0,-7.896314561E-2,1.175474152E-1,9.924045975E0
2.013771062E0,-9.911071777E0,-9.092725813E-2,1.462612897E-1,9.912567977E0
2.016194552E0,-9.882357597E0,-7.417750359E-2,1.247258782E-1,9.883423017E0
2.018617885E0,-9.882357597E0,-6.460621208E-2,1.319043487E-1,9.883449013E0
2.021041739E0,-9.882357597E0,-5.742774159E-2,1.247258782E-1,9.883311498E0
2.023465229E0,-9.903892517E0,-6.221338734E-2,1.271187067E-1,9.904903667E0
2.025888823E0,-9.894321442E0,-6.221338734E-2,1.271187067E-1,9.895333570E0
2.028312781E0,-9.896714211E0,-8.135596663E-2,1.558325738E-1,9.898275342E0
2.030737000E0,-9.903892517E0,-8.135596663E-2,1.366899908E-1,9.905169859E0
2.033160698E0,-9.908679008E0,-8.614161611E-2,1.438684613E-1,9.910097790E0
2.035583979E0,-9.903892517E0,-8.374879509E-2,1.366899908E-1,9.905189802E0
2.038007729E0,-9.920642853E0,-5.982056633E-2,1.319043487E-1,9.921700049E0
2.040432052E0,-9.920642853E0,-7.896314561E-2,1.486541033E-1,9.922070743E0
2.042855645E0,-9.934999466E0,-6.221338734E-2,1.366899908E-1,9.936134512E0
2.045279500E0,-9.908679008E0,-5.024927482E-2,1.319043487E-1,9.909684326E0
2.047703093E0,-9.887143135E0,-5.024927482E-2,1.462612897E-1,9.888352579E0
2.050127260E0,-9.901499748E0,-5.503492057E-2,1.319043487E-1,9.902531235E0
2.052551739E0,-9.911071777E0,-7.657032460E-2,1.247258782E-1,9.912152306E0
2.054975333E0,-9.901499748E0,-5.982056633E-2,1.414756328E-1,9.902691105E0
2.057398927E0,-9.901499748E0,-6.221338734E-2,1.342971772E-1,9.902605894E0
2.059822364E0,-9.901499748E0,-6.939185411E-2,1.319043487E-1,9.902621433E0
2.062245906E0,-9.903892517E0,-4.785645381E-2,1.558325738E-1,9.905234022E0
2.064669448E0,-9.901499748E0,-5.982056633E-2,1.486541033E-1,9.902796262E0
2.067092833E0,-9.899106979E0,-8.853443712E-2,1.438684613E-1,9.900548241E0
2.069517052E0,-9.896714211E0,-8.135596663E-2,1.319043487E-1,9.897927546E0
2.071940750E0,-9.908679008E0,-1.004985496E-1,1.175474152E-1,9.909885824E0
2.074364343E0,-9.899106979E0,-6.460621208E-2,1.342971772E-1,9.900228719E0
2.076787573E0,-9.920642853E0,-7.417750359E-2,1.127617657E-1,9.921560972E0
2.079210593E0,-9.918250084E0,-9.571290761E-2,1.055833027E-1,9.919273840E0
2.081633093E0,-9.906285286E0,-5.742774159E-2,1.175474152E-1,9.907149111E0
2.084056895E0,-9.879964828E0,-5.742774159E-2,1.223330572E-1,9.880889046E0
2.086480593E0,-9.923035622E0,-6.939185411E-2,1.558325738E-1,9.924501749E0
2.088904291E0,-9.901499748E0,-8.135596663E-2,1.462612897E-1,9.902914138E0
2.091328562E0,-9.920642853E0,-8.135596663E-2,1.462612897E-1,9.922054514E0
2.093752364E0,-9.891928673E0,-7.417750359E-2,1.414756328E-1,9.893218411E0
2.096175541E0,-9.915857315E0,-6.221338734E-2,1.462612897E-1,9.917131095E0
2.098598198E0,-9.901499748E0,-7.657032460E-2,1.462612897E-1,9.902875978E0
2.101021948E0,-9.894321442E0,-7.178468257E-2,1.342971772E-1,9.895493195E0
2.103445281E0,-9.918250084E0,-7.657032460E-2,1.366899908E-1,9.919487481E0
2.105868198E0,-9.906285286E0,-7.896314561E-2,1.271187067E-1,9.907415531E0
2.108291010E0,-9.901499748E0,-3.828516230E-2,1.534397453E-1,9.902762583E0
2.110713770E0,-9.889535904E0,-4.785645381E-2,1.414756328E-1,9.890663577E0
2.113136635E0,-9.872786522E0,-5.024927482E-2,1.271187067E-1,9.873732722E0
2.115559552E0,-9.894321442E0,-7.896314561E-2,1.247258782E-1,9.895422604E0
2.117982937E0,-9.911071777E0,-3.828516230E-2,1.319043487E-1,9.912023420E0
2.120406375E0,-9.896714211E0,-8.135596663E-2,1.390828192E-1,9.898025813E0
2.122830698E0,-9.870393753E0,-7.896314561E-2,1.223330572E-1,9.871467641E0
2.125254708E0,-9.903892517E0,-6.460621208E-2,1.247258782E-1,9.904888566E0
2.127677520E0,-9.908679008E0,-5.742774159E-2,1.079761237E-1,9.909433711E0
2.130101791E0,-9.918250084E0,-5.982056633E-2,1.247258782E-1,9.919214675E0
2.132525125E0,-9.908679008E0,-8.374879509E-2,1.486541033E-1,9.910147910E0
2.134948250E0,-9.906285286E0,-4.546362907E-2,1.438684613E-1,9.907434241E0
2.137371166E0,-9.889535904E0,-5.264209956E-2,1.247258782E-1,9.890462483E0
2.139794291E0,-9.901499748E0,-4.785645381E-2,1.247258782E-1,9.902400923E0
2.142217260E0,-9.913464546E0,-7.896314561E-2,1.295115203E-1,9.914624941E0
2.144639864E0,-9.906285286E0,-9.571290761E-2,1.127617657E-1,9.907389381E0
2.147062573E0,-9.899106979E0,-6.221338734E-2,1.079761237E-1,9.899891330E0
2.149485958E0,-9.918250084E0,-8.135596663E-2,1.223330572E-1,9.919338128E0
2.151909656E0,-9.908679008E0,-5.982056633E-2,1.390828192E-1,9.909835631E0
2.154332729E0,-9.889535904E0,-6.699903309E-2,1.271187067E-1,9.890579782E0
2.156756375E0,-9.930213928E0,-5.742774159E-2,1.366899908E-1,9.931320696E0
2.159180333E0,-9.911071777E0,-5.982056633E-2,1.223330572E-1,9.912007246E0
2.161604604E0,-9.896714211E0,-6.221338734E-2,1.079761237E-1,9.897498750E0
2.164028823E0,-9.920642853E0,-7.657032460E-2,1.319043487E-1,9.921815176E0
2.166452989E0,-9.918250084E0,-7.657032460E-2,1.247258782E-1,9.919329831E0
2.168877104E0,-9.908679008E0,-7.417750359E-2,1.390828192E-1,9.909932695E0
2.171300698E0,-9.920642853E0,-7.896314561E-2,1.414756328E-1,9.921965790E0
2.173724343E0,-9.932606697E0,-6.699903309E-2,1.247258782E-1,9.933615717E0
2.176148093E0,-9.906285286E0,-7.417750359E-2,1.175474152E-1,9.907260361E0
2.178571583E0,-9.920642853E0,-8.614161611E-2,1.366899908E-1,9.921958433E0
2.180995541E0,-9.908679008E0,-6.460621208E-2,1.342971772E-1,9.909799664E0
2.183419708E0,-9.939785004E0,-7.896314561E-2,1.223330572E-1,9.940851396E0
2.185844291E0,-9.906285286E0,-6.221338734E-2,1.199402362E-1,9.907206687E0
2.188267989E0,-9.882357597E0,-7.657032460E-2,1.319043487E-1,9.883534462E0
2.190691479E0,-9.884750366E0,-5.742774159E-2,1.438684613E-1,9.885964085E0
2.193114916E0,-9.870393753E0,-7.896314561E-2,1.247258782E-1,9.871497585E0
2.195538770E0,-9.887143135E0,-6.699903309E-2,1.438684613E-1,9.888416778E0
2.197962312E0,-9.894321442E0,-7.657032460E-2,1.295115203E-1,9.895465277E0
2.200386114E0,-9.908679008E0,-6.460621208E-2,1.390828192E-1,9.909865674E0
2.202809083E0,-9.899106979E0,-5.982056633E-2,1.534397453E-1,9.900476819E0
2.205232677E0,-9.901499748E0,-6.939185411E-2,1.295115203E-1,9.902589850E0
2.207656427E0,-9.911071777E0,-7.417750359E-2,1.510469317E-1,9.912500252E0
2.210080020E0,-9.899106979E0,-6.699903309E-2,1.534397453E-1,9.900522795E0
2.212503927E0,-9.896714211E0,-6.460621208E-2,1.366899908E-1,9.897868977E0
2.214927677E0,-9.901499748E0,-7.896314561E-2,1.390828192E-1,9.902791348E0
2.217350593E0,-9.908679008E0,-5.024927482E-2,1.438684613E-1,9.909850797E0
2.219773770E0,-9.915857315E0,-9.332008660E-2,1.247258782E-1,9.917080794E0
2.222197677E0,-9.887143135E0,-6.939185411E-2,1.199402362E-1,9.888114090E0
2.224621218E0,-9.889535904E0,-6.221338734E-2,1.223330572E-1,9.890488172E0
2.227044812E0,-9.911071777E0,-6.699903309E-2,1.151545867E-1,9.911967172E0
2.229468770E0,-9.891928673E0,-7.178468257E-2,1.319043487E-1,9.893068516E0
2.231892052E0,-9.903892517E0,-7.178468257E-2,1.390828192E-1,9.905129179E0
2.234315958E0,-9.882357597E0,-5.742774159E-2,1.295115203E-1,9.883373051E0
2.236739500E0,-9.901499748E0,-8.614161611E-2,1.366899908E-1,9.902817871E0
2.239163093E0,-9.913464546E0,-5.982056633E-2,1.151545867E-1,9.914313813E0
2.241586010E0,-9.923035622E0,-5.742774159E-2,1.366899908E-1,9.924143190E0
2.244008718E0,-9.872786522E0,-4.785645381E-2,1.462612897E-1,9.873985837E0
2.246432416E0,-9.887143135E0,-7.657032460E-2,1.510469317E-1,9.888593306E0
2.248856218E0,-9.925428391E0,-5.024927482E-2,1.319043487E-1,9.926432012E0
2.251280541E0,-9.906285286E0,-5.742774159E-2,1.271187067E-1,9.907267296E0
2.253704187E0,-9.913464546E0,-6.221338734E-2,1.414756328E-1,9.914669191E0
2.256127833E0,-9.903892517E0,-6.939185411E-2,1.199402362E-1,9.904861830E0
2.258551427E0,-9.903892517E0,-6.221338734E-2,1.414756328E-1,9.905098326E0
2.260974760E0,-9.879964828E0,-7.417750359E-2,1.438684613E-1,9.881290677E0
2.263397833E0,-9.899106979E0,-9.332008660E-2,1.534397453E-1,9.900735901E0
2.265821218E0,-9.920642853E0,-7.896314561E-2,1.366899908E-1,9.921898707E0
2.268244604E0,-9.887143135E0,-6.939185411E-2,1.223330572E-1,9.888143404E0
2.270668614E0,-9.918250084E0,-6.939185411E-2,1.295115203E-1,9.919338344E0
2.273092208E0,-9.927821159E0,-6.460621208E-2,1.366899908E-1,9.928972308E0
2.275515489E0,-9.920642853E0,-4.785645381E-2,1.271187067E-1,9.921572659E0
2.277938354E0,-9.923035622E0,-9.571290761E-2,1.319043487E-1,9.924373817E0
2.280362104E0,-9.889535904E0,-8.135596663E-2,1.414756328E-1,9.890882395E0
2.282785125E0,-9.913464546E0,-8.853443712E-2,1.390828192E-1,9.914835434E0
2.285208562E0,-9.911071777E0,-5.742774159E-2,1.271187067E-1,9.912053313E0
2.287632104E0,-9.913464546E0,-5.742774159E-2,1.247258782E-1,9.914415454E0
2.290055177E0,-9.906285286E0,-5.503492057E-2,1.414756328E-1,9.907448328E0
2.292478823E0,-9.901499748E0,-6.221338734E-2,1.199402362E-1,9.902421594E0
2.294902677E0,-9.918250084E0,-5.982056633E-2,1.319043487E-1,9.919307536E0
2.297326531E0,-9.925428391E0,-6.939185411E-2,1.510469317E-1,9.926820193E0
2.299749708E0,-9.899106979E0,-6.221338734E-2,1.558325738E-1,9.900528940E0
2.302173718E0,-9.896714211E0,-6.221338734E-2,1.366899908E-1,9.897853647E0
2.304597416E0,-9.896714211E0,-5.982056633E-2,1.414756328E-1,9.897906143E0
2.307020750E0,-9.894321442E0,-6.699903309E-2,1.271187067E-1,9.895364815E0
2.309444291E0,-9.884750366E0,-7.896314561E-2,1.319043487E-1,9.885945769E0
2.311867729E0,-9.906285286E0,-6.460621208E-2,1.271187067E-1,9.907311507E0
2.314291687E0,-9.913464546E0,-7.417750359E-2,1.151545867E-1,9.914410834E0
2.316714552E0,-9.894321442E0,-5.264209956E-2,1.175474152E-1,9.895159694E0
2.319137677E0,-9.899106979E0,-5.982056633E-2,1.342971772E-1,9.900198646E0
2.321560802E0,-9.887143135E0,-7.178468257E-2,1.462612897E-1,9.888485464E0
2.323983875E0,-9.913464546E0,-7.657032460E-2,1.366899908E-1,9.914702541E0
2.326406531E0,-9.879964828E0,-7.417750359E-2,1.295115203E-1,9.881092073E0
2.328829552E0,-9.920642853E0,-6.939185411E-2,1.223330572E-1,9.921639744E0
2.331252937E0,-9.901499748E0,-5.982056633E-2,1.558325738E-1,9.902906622E0
2.333676218E0,-9.901499748E0,-5.742774159E-2,1.319043487E-1,9.902544823E0
2.336099864E0,-9.891928673E0,-6.699903309E-2,1.414756328E-1,9.893167192E0
2.338523875E0,-9.901499748E0,-9.092725813E-2,1.295115203E-1,9.902764173E0
2.340947937E0,-9.911071777E0,-5.982056633E-2,1.414756328E-1,9.912261984E0
2.343371895E0,-9.889535904E0,-8.374879509E-2,1.151545867E-1,9.890560896E0
2.345795437E0,-9.896714211E0,-8.135596663E-2,1.390828192E-1,9.898025813E0
2.348219552E0,-9.915857315E0,-6.460621208E-2,1.462612897E-1,9.917146395E0
2.350643458E0,-9.882357597E0,-6.699903309E-2,1.438684613E-1,9.883631857E0
2.353067052E0,-9.901499748E0,-5.503492057E-2,1.127617657E-1,9.902294750E0
2.355490958E0,-9.896714211E0,-6.699903309E-2,1.366899908E-1,9.897884885E0
2.357914760E0,-9.875179291E0,-7.417750359E-2,1.366899908E-1,9.876403823E0
2.360338614E0,-9.901499748E0,-5.742774159E-2,1.366899908E-1,9.902609725E0
2.362762833E0,-9.903892517E0,-6.699903309E-2,1.319043487E-1,9.904997457E0
2.365186114E0,-9.894321442E0,-5.982056633E-2,1.342971772E-1,9.895413636E0
2.367609864E0,-9.884750366E0,-5.742774159E-2,1.295115203E-1,9.885765574E0
2.370033458E0,-9.891928673E0,-6.460621208E-2,1.175474152E-1,9.892838027E0
2.372456739E0,-9.908679008E0,-6.221338734E-2,1.390828192E-1,9.909850364E0
2.374880073E0,-9.896714211E0,-7.178468257E-2,1.390828192E-1,9.897951770E0
2.377303718E0,-9.942177773E0,-8.135596663E-2,1.462612897E-1,9.943586376E0
2.379726531E0,-9.896714211E0,-5.742774159E-2,1.342971772E-1,9.897791968E0
2.382150698E0,-9.925428391E0,-6.699903309E-2,1.414756328E-1,9.926662730E0
2.384573770E0,-9.899106979E0,-5.982056633E-2,1.390828192E-1,9.900264720E0
2.386997885E0,-9.901499748E0,-8.614161611E-2,1.295115203E-1,9.902721387E0
2.389421323E0,-9.901499748E0,-7.896314561E-2,1.271187067E-1,9.902630540E0
2.391845489E0,-9.889535904E0,-6.939185411E-2,1.247258782E-1,9.890565816E0
2.394269604E0,-9.906285286E0,-7.896314561E-2,1.151545867E-1,9.907269247E0
2.396692729E0,-9.911071777E0,-6.460621208E-2,1.271187067E-1,9.912097503E0
2.399116323E0,-9.901499748E0,-7.657032460E-2,1.342971772E-1,9.902706499E0
2.401539916E0,-9.901499748E0,-8.374879509E-2,1.366899908E-1,9.902797346E0
2.403963770E0,-9.906285286E0,-4.785645381E-2,1.223330572E-1,9.907156191E0
2.406387677E0,-9.899106979E0,-7.178468257E-2,1.390828192E-1,9.900344239E0
2.408811114E0,-9.896714211E0,-5.503492057E-2,1.271187067E-1,9.897683576E0
2.411235385E0,-9.911071777E0,-5.503492057E-2,1.319043487E-1,9.912102268E0
2.413658666E0,-9.891928673E0,-4.546362907E-2,1.366899908E-1,9.892977507E0
2.416081635E0,-9.906285286E0,-8.135596663E-2,1.199402362E-1,9.907345387E0
2.418505177E0,-9.901499748E0,-7.896314561E-2,1.319043487E-1,9.902693129E0
2.420928510E0,-9.911071777E0,-5.982056633E-2,1.271187067E-1,9.912067466E0
2.423352208E0,-9.901499748E0,-6.699903309E-2,1.342971772E-1,9.902637117E0
2.425776635E0,-9.908679008E0,-5.264209956E-2,1.223330572E-1,9.909573970E0
2.428200385E0,-9.903892517E0,-6.221338734E-2,1.295115203E-1,9.904934666E0
2.430624187E0,-9.901499748E0,-4.785645381E-2,1.271187067E-1,9.902431351E0
2.433047573E0,-9.901499748E0,-8.135596663E-2,1.366899908E-1,9.902777399E0
2.435471375E0,-9.903892517E0,-5.024927482E-2,1.271187067E-1,9.904835745E0
2.437894916E0,-9.894321442E0,-5.742774159E-2,1.342971772E-1,9.895399460E0
2.440317833E0,-9.927821159E0,-7.178468257E-2,1.295115203E-1,9.928925382E0
2.442740750E0,-9.879964828E0,-4.546362907E-2,1.295115203E-1,9.880918236E0
2.445163927E0,-9.903892517E0,-7.417750359E-2,1.247258782E-1,9.904955620E0
2.447587625E0,-9.927821159E0,-5.742774159E-2,1.175474152E-1,9.928683111E0
2.450010802E0,-9.911071777E0,-5.264209956E-2,1.390828192E-1,9.912187397E0
2.452433979E0,-9.918250084E0,-4.307080805E-2,1.319043487E-1,9.919220664E0
2.454857989E0,-9.899106979E0,-6.939185411E-2,1.390828192E-1,9.900327179E0
2.457281166E0,-9.887143135E0,-6.699903309E-2,1.271187067E-1,9.888187266E0
2.459704916E0,-9.906285286E0,-8.135596663E-2,1.199402362E-1,9.907345387E0
2.462128354E0,-9.899106979E0,-9.092725813E-2,1.175474152E-1,9.900222429E0
2.464551739E0,-9.903892517E0,-8.614161611E-2,1.247258782E-1,9.905052444E0
2.466975073E0,-9.894321442E0,-9.332008660E-2,1.390828192E-1,9.895738955E0
2.469398614E0,-9.889535904E0,-6.939185411E-2,1.414756328E-1,9.890791221E0
2.471822364E0,-9.901499748E0,-7.178468257E-2,1.271187067E-1,9.902575901E0
2.474246010E0,-9.908679008E0,-7.417750359E-2,1.366899908E-1,9.909899402E0
2.476669552E0,-9.915857315E0,-8.853443712E-2,1.103689447E-1,9.916866740E0
2.479092989E0,-9.906285286E0,-7.178468257E-2,1.127617657E-1,9.907187110E0
2.481516843E0,-9.932606697E0,-6.939185411E-2,1.390828192E-1,9.933822782E0
2.483941323E0,-9.894321442E0,-6.699903309E-2,1.342971772E-1,9.895459635E0
2.486365020E0,-9.911071777E0,-5.982056633E-2,1.414756328E-1,9.912261984E0
2.488788718E0,-9.896714211E0,-6.460621208E-2,1.295115203E-1,9.897772444E0
2.491212677E0,-9.901499748E0,-6.699903309E-2,1.319043487E-1,9.902604955E0
2.493635958E0,-9.889535904E0,-6.460621208E-2,1.223330572E-1,9.890503513E0
2.496059656E0,-9.887143135E0,-8.614161611E-2,1.319043487E-1,9.888398177E0
2.498483250E0,-9.891928673E0,-5.982056633E-2,1.366899908E-1,9.893053903E0
2.500906948E0,-9.903892517E0,-6.939185411E-2,1.438684613E-1,9.905180481E0
2.503330489E0,-9.887143135E0,-7.657032460E-2,1.342971772E-1,9.888351638E0
2.505753823E0,-9.889535904E0,-5.742774159E-2,1.366899908E-1,9.890647223E0
2.508177937E0,-9.903892517E0,-6.699903309E-2,1.247258782E-1,9.904904462E0
2.510601583E0,-9.915857315E0,-6.939185411E-2,1.271187067E-1,9.916914878E0
2.513025073E0,-9.923035622E0,-5.024927482E-2,1.295115203E-1,9.924007969E0
2.515447989E0,-9.923035622E0,-6.460621208E-2,1.223330572E-1,9.923999964E0
2.517870645E0,-9.930213928E0,-7.417750359E-2,1.223330572E-1,9.931244451E0
2.520293823E0,-9.896714211E0,-5.742774159E-2,1.366899908E-1,9.897824724E0
2.522717208E0,-9.891928673E0,-6.221338734E-2,1.462612897E-1,9.893205534E0
2.525140437E0,-9.908679008E0,-7.657032460E-2,1.342971772E-1,9.909884885E0
2.527564395E0,-9.879964828E0,-6.221338734E-2,1.390828192E-1,9.881139588E0
2.529988302E0,-9.901499748E0,-5.024927482E-2,1.486541033E-1,9.902743069E0
2.532411895E0,-9.920642853E0,-7.657032460E-2,1.295115203E-1,9.921783653E0
2.534835020E0,-9.934999466E0,-8.374879509E-2,1.223330572E-1,9.936105556E0
2.537258614E0,-9.915857315E0,-7.657032460E-2,1.295115203E-1,9.916998666E0
2.539681739E0,-9.908679008E0,-6.221338734E-2,1.414756328E-1,9.909884235E0
2.542105125E0,-9.899106979E0,-5.024927482E-2,1.366899908E-1,9.900178187E0
2.544528823E0,-9.920642853E0,-6.460621208E-2,1.247258782E-1,9.921637220E0
2.546952364E0,-9.901499748E0,-7.657032460E-2,1.366899908E-1,9.902739239E0
2.549376114E0,-9.884750366E0,-9.571290761E-2,1.366899908E-1,9.886158754E0
2.551800073E0,-9.870393753E0,-6.699903309E-2,1.414756328E-1,9.871634974E0
2.554223458E0,-9.901499748E0,-7.178468257E-2,1.295115203E-1,9.902606906E0
2.556647573E0,-9.903892517E0,-7.657032460E-2,1.319043487E-1,9.905066823E0
2.559070802E0,-9.911071777E0,-6.460621208E-2,1.319043487E-1,9.912160032E0
2.561494083E0,-9.884750366E0,-6.460621208E-2,1.390828192E-1,9.885939905E0
2.563917520E0,-9.913464546E0,-6.221338734E-2,1.247258782E-1,9.914444329E0
2.566341635E0,-9.899106979E0,-8.853443712E-2,1.175474152E-1,9.900200742E0
2.568765281E0,-9.891928673E0,-9.332008660E-2,1.438684613E-1,9.893414964E0
2.571189552E0,-9.906285286E0,-7.657032460E-2,1.366899908E-1,9.907524178E0
2.573613250E0,-9.889535904E0,-5.264209956E-2,1.223330572E-1,9.890432597E0
2.576036791E0,-9.934999466E0,-8.614161611E-2,1.295115203E-1,9.936216986E0
2.578460698E0,-9.918250084E0,-7.657032460E-2,1.342971772E-1,9.919454797E0
2.580884604E0,-9.879964828E0,-8.853443712E-2,1.462612897E-1,9.881444010E0
2.583308979E0,-9.870393753E0,-5.982056633E-2,1.079761237E-1,9.871165594E0
2.585732364E0,-9.879964828E0,-5.982056633E-2,1.366899908E-1,9.881091421E0
2.588155906E0,-9.903892517E0,-9.092725813E-2,1.247258782E-1,9.905095219E0
2.590579500E0,-9.918250084E0,-5.982056633E-2,1.247258782E-1,9.919214675E0
2.593002885E0,-9.906285286E0,-5.264209956E-2,1.630110443E-1,9.907766245E0
2.595426479E0,-9.918250084E0,-5.503492057E-2,1.414756328E-1,9.919411723E0
2.597849916E0,-9.887143135E0,-6.221338734E-2,1.247258782E-1,9.888125526E0
2.600274031E0,-9.906285286E0,-7.178468257E-2,1.390828192E-1,9.907521650E0
2.602697833E0,-9.889535904E0,-7.178468257E-2,1.271187067E-1,9.890613358E0
2.605121323E0,-9.903892517E0,-6.939185411E-2,1.319043487E-1,9.905013931E0
2.607545020E0,-9.908679008E0,-9.092725813E-2,1.223330572E-1,9.909851302E0
2.609968823E0,-9.903892517E0,-6.939185411E-2,1.223330572E-1,9.904891095E0
2.612392625E0,-9.882357597E0,-7.896314561E-2,1.366899908E-1,9.883618316E0
2.614816375E0,-9.896714211E0,-8.374879509E-2,1.510469317E-1,9.898221113E0
2.617239500E0,-9.920642853E0,-7.178468257E-2,1.295115203E-1,9.921747875E0
2.619662781E0,-9.913464546E0,-5.024927482E-2,1.414756328E-1,9.914601336E0
2.622086427E0,-9.925428391E0,-5.264209956E-2,1.414756328E-1,9.926576211E0
2.624510020E0,-9.903892517E0,-5.742774159E-2,1.247258782E-1,9.904844344E0
2.626933875E0,-9.934999466E0,-7.178468257E-2,1.366899908E-1,9.936199051E0
2.629358406E0,-9.920642853E0,-5.982056633E-2,1.390828192E-1,9.921798080E0
2.631782156E0,-9.899106979E0,-7.178468257E-2,1.223330572E-1,9.900123101E0
2.634206218E0,-9.915857315E0,-8.135596663E-2,1.438684613E-1,9.917234656E0
2.636629708E0,-9.913464546E0,-9.092725813E-2,1.390828192E-1,9.914857090E0
2.639053250E0,-9.901499748E0,-1.028913707E-1,1.103689447E-1,9.902649403E0
2.641476635E0,-9.884750366E0,-7.896314561E-2,1.295115203E-1,9.885914131E0
2.643900229E0,-9.891928673E0,-5.982056633E-2,1.534397453E-1,9.893299506E0
2.646323510E0,-9.911071777E0,-7.657032460E-2,1.414756328E-1,9.912377220E0
2.648747208E0,-9.894321442E0,-6.221338734E-2,1.438684613E-1,9.895562916E0
2.651170177E0,-9.889535904E0,-5.982056633E-2,1.534397453E-1,9.890907069E0
2.653593510E0,-9.932606697E0,-7.178468257E-2,1.462612897E-1,9.933942883E0
2.656016687E0,-9.875179291E0,-7.896314561E-2,1.295115203E-1,9.876344184E0
2.658440177E0,-9.903892517E0,-5.024927482E-2,1.175474152E-1,9.904717531E0
2.660864083E0,-9.899106979E0,-7.896314561E-2,1.055833027E-1,9.899984950E0
2.663287729E0,-9.882357597E0,-7.417750359E-2,1.319043487E-1,9.883516213E0
2.665711895E0,-9.889535904E0,-6.939185411E-2,1.414756328E-1,9.890791221E0
2.668135437E0,-9.913464546E0,-6.699903309E-2,1.366899908E-1,9.914633242E0
2.670558770E0,-9.894321442E0,-6.221338734E-2,1.438684613E-1,9.895562916E0
2.672982520E0,-9.911071777E0,-5.982056633E-2,1.247258782E-1,9.912037067E0
2.675405541E0,-9.903892517E0,-6.221338734E-2,1.223330572E-1,9.904843405E0
2.677828510E0,-9.870393753E0,-6.221338734E-2,1.223330572E-1,9.871347868E0
2.680251427E0,-9.901499748E0,-4.307080805E-2,1.223330572E-1,9.902349102E0
2.682674239E0,-9.903892517E0,-7.657032460E-2,1.295115203E-1,9.905035247E0
2.685097573E0,-9.911071777E0,-7.178468257E-2,1.342971772E-1,9.912241550E0
2.687521427E0,-9.915857315E0,-6.939185411E-2,1.103689447E-1,9.916714316E0
2.689944916E0,-9.899106979E0,-5.742774159E-2,1.414756328E-1,9.900284455E0
2.692368198E0,-9.901499748E0,-6.460621208E-2,1.438684613E-1,9.902755645E0
2.694791375E0,-9.911071777E0,-5.742774159E-2,1.175474152E-1,9.911935185E0
2.697215229E0,-9.896714211E0,-7.417750359E-2,1.271187067E-1,9.897808527E0
2.699639135E0,-9.899106979E0,-6.699903309E-2,1.414756328E-1,9.900344601E0
2.702062104E0,-9.901499748E0,-7.657032460E-2,1.247258782E-1,9.902581321E0
2.704485645E0,-9.915857315E0,-9.810572863E-2,1.199402362E-1,9.917067948E0
2.706908770E0,-9.891928673E0,-7.657032460E-2,1.342971772E-1,9.893136591E0
2.709332364E0,-9.911071777E0,-7.178468257E-2,1.438684613E-1,9.912375848E0
2.711755854E0,-9.896714211E0,-8.374879509E-2,1.414756328E-1,9.898079681E0
2.714179500E0,-9.908679008E0,-5.503492057E-2,1.295115203E-1,9.909678187E0
2.716603302E0,-9.899106979E0,-3.589234129E-2,1.390828192E-1,9.900149053E0
2.719027312E0,-9.906285286E0,-6.699903309E-2,1.247258782E-1,9.907296987E0
2.721451114E0,-9.925428391E0,-4.067798331E-2,1.151545867E-1,9.926179729E0
2.723875125E0,-9.889535904E0,-9.571290761E-2,1.223330572E-1,9.890755620E0
2.726299448E0,-9.889535904E0,-7.417750359E-2,1.510469317E-1,9.890967489E0
2.728722833E0,-9.903892517E0,-6.460621208E-2,1.295115203E-1,9.904949984E0
2.731146791E0,-9.896714211E0,-7.417750359E-2,1.438684613E-1,9.898037816E0
2.733571062E0,-9.903892517E0,-5.742774159E-2,1.199402362E-1,9.904785237E0
2.735994760E0,-9.889535904E0,-5.264209956E-2,1.414756328E-1,9.890687890E0
2.738418198E0,-9.891928673E0,-5.024927482E-2,1.366899908E-1,9.893000658E0
2.740842104E0,-9.918250084E0,-7.657032460E-2,1.366899908E-1,9.919487481E0
2.743265698E0,-9.896714211E0,-6.939185411E-2,1.366899908E-1,9.897901371E0
2.745689500E0,-9.896714211E0,-7.178468257E-2,1.295115203E-1,9.897821904E0
2.748113093E0,-9.882357597E0,-6.460621208E-2,1.247258782E-1,9.883355816E0
2.750537000E0,-9.915857315E0,-6.699903309E-2,1.342971772E-1,9.916993037E0
2.752961218E0,-9.913464546E0,-7.657032460E-2,1.199402362E-1,9.914485765E0
2.755384864E0,-9.911071777E0,-6.221338734E-2,1.342971772E-1,9.912176855E0
2.757808250E0,-9.908679008E0,-7.417750359E-2,1.223330572E-1,9.909711770E0
2.760231791E0,-9.927821159E0,-6.939185411E-2,1.055833027E-1,9.928625083E0
2.762654760E0,-9.913464546E0,-7.657032460E-2,1.223330572E-1,9.914515001E0
2.765078250E0,-9.913464546E0,-6.699903309E-2,1.366899908E-1,9.914633242E0
2.767502052E0,-9.906285286E0,-6.939185411E-2,1.247258782E-1,9.907313457E0
2.769925177E0,-9.920642853E0,-7.178468257E-2,1.175474152E-1,9.921598916E0
2.772348666E0,-9.918250084E0,-6.460621208E-2,1.319043487E-1,9.919337551E0
2.774772573E0,-9.896714211E0,-7.417750359E-2,1.271187067E-1,9.897808527E0
2.777196427E0,-9.913464546E0,-7.178468257E-2,1.390828192E-1,9.914700015E0
2.779619656E0,-9.911071777E0,-8.135596663E-2,1.175474152E-1,9.912102701E0
2.782043093E0,-9.894321442E0,-7.178468257E-2,1.342971772E-1,9.895493195E0
2.784466739E0,-9.906285286E0,-6.221338734E-2,1.319043487E-1,9.907358751E0
2.786889708E0,-9.906285286E0,-7.657032460E-2,1.438684613E-1,9.907625816E0
2.789313406E0,-9.911071777E0,-8.374879509E-2,1.295115203E-1,9.912271731E0
2.791737677E0,-9.903892517E0,-4.307080805E-2,1.342971772E-1,9.904896659E0
2.794161427E0,-9.908679008E0,-6.939185411E-2,1.366899908E-1,9.909864736E0
2.796585489E0,-9.903892517E0,-5.264209956E-2,1.510469317E-1,9.905184166E0
2.799009083E0,-9.891928673E0,-6.460621208E-2,1.438684613E-1,9.893185784E0
2.801433302E0,-9.908679008E0,-5.024927482E-2,1.414756328E-1,9.909816347E0
2.803856895E0,-9.903892517E0,-7.178468257E-2,1.390828192E-1,9.905129179E0
2.806280698E0,-9.889535904E0,-6.939185411E-2,1.414756328E-1,9.890791221E0
2.808704604E0,-9.870393753E0,-6.699903309E-2,1.366899908E-1,9.871567548E0
2.811128614E0,-9.903892517E0,-8.853443712E-2,1.151545867E-1,9.904957643E0
2.813552729E0,-9.903892517E0,-9.571290761E-2,1.319043487E-1,9.905233299E0
2.815976427E0,-9.903892517E0,-5.264209956E-2,1.390828192E-1,9.905008946E0
2.818400645E0,-9.901499748E0,-5.503492057E-2,1.438684613E-1,9.902697826E0
2.820823770E0,-9.915857315E0,-5.742774159E-2,1.486541033E-1,9.917137807E0
2.823246895E0,-9.899106979E0,-5.742774159E-2,1.271187067E-1,9.900089702E0
2.825670177E0,-9.882357597E0,-9.571290761E-2,1.175474152E-1,9.883520124E0
2.828093354E0,-9.923035622E0,-7.657032460E-2,1.486541033E-1,9.924444418E0
2.830516531E0,-9.923035622E0,-8.135596663E-2,1.271187067E-1,9.924183287E0
2.832940385E0,-9.882357597E0,-6.221338734E-2,1.271187067E-1,9.883370951E0
2.835364187E0,-9.906285286E0,-5.264209956E-2,1.319043487E-1,9.907303272E0
2.837787468E0,-9.896714211E0,-6.460621208E-2,1.486541033E-1,9.898041431E0
2.840211687E0,-9.911071777E0,-7.657032460E-2,1.199402362E-1,9.912093243E0
2.842634864E0,-9.913464546E0,-6.939185411E-2,1.223330572E-1,9.914462160E0
2.845058875E0,-9.911071777E0,-4.546362907E-2,1.151545867E-1,9.911845000E0
2.847482729E0,-9.918250084E0,-7.657032460E-2,1.271187067E-1,9.919360207E0
2.849907416E0,-9.877572060E0,-6.699903309E-2,1.462612897E-1,9.878882074E0
2.852330906E0,-9.877572060E0,-7.178468257E-2,1.462612897E-1,9.878915689E0
2.854754812E0,-9.899106979E0,-6.221338734E-2,1.366899908E-1,9.900246141E0
2.857178041E0,-9.923035622E0,-7.417750359E-2,1.438684613E-1,9.924355716E0
2.859601427E0,-9.882357597E0,-8.135596663E-2,1.247258782E-1,9.883479500E0
2.862024656E0,-9.901499748E0,-6.939185411E-2,1.534397453E-1,9.902931700E0
2.864447677E0,-9.896714211E0,-7.417750359E-2,1.295115203E-1,9.897839547E0
2.866872312E0,-9.903892517E0,-5.742774159E-2,1.438684613E-1,9.905103890E0
2.869295385E0,-9.894321442E0,-7.657032460E-2,1.247258782E-1,9.895403799E0
2.871718718E0,-9.920642853E0,-6.939185411E-2,1.247258782E-1,9.921669536E0
2.874142416E0,-9.908679008E0,-7.896314561E-2,1.414756328E-1,9.910003543E0
2.876566010E0,-9.901499748E0,-7.417750359E-2,1.295115203E-1,9.902624541E0
2.878989291E0,-9.899106979E0,-7.657032460E-2,1.390828192E-1,9.900380095E0
2.881412573E0,-9.911071777E0,-6.460621208E-2,1.319043487E-1,9.912160032E0
2.883836635E0,-9.896714211E0,-5.024927482E-2,1.247258782E-1,9.897627680E0
2.886260385E0,-9.915857315E0,-7.417750359E-2,1.462612897E-1,9.917213367E0
2.888683927E0,-9.925428391E0,-7.896314561E-2,1.342971772E-1,9.926650978E0
2.891107989E0,-9.879964828E0,-4.307080805E-2,1.247258782E-1,9.880845948E0
2.893532052E0,-9.870393753E0,-6.221338734E-2,1.271187067E-1,9.871408335E0
2.895955750E0,-9.903892517E0,-5.742774159E-2,1.247258782E-1,9.904844344E0
2.898379448E0,-9.887143135E0,-5.264209956E-2,1.271187067E-1,9.888100411E0
2.900803041E0,-9.894321442E0,-7.657032460E-2,1.199402362E-1,9.895344636E0
2.903226687E0,-9.891928673E0,-6.460621208E-2,1.295115203E-1,9.892987419E0
2.905650593E0,-9.937392235E0,-6.699903309E-2,1.390828192E-1,9.938591315E0
2.908074135E0,-9.894321442E0,-7.417750359E-2,1.462612897E-1,9.895680444E0
2.910497989E0,-9.906285286E0,-7.178468257E-2,1.366899908E-1,9.907488348E0
2.912922208E0,-9.889535904E0,-5.742774159E-2,1.103689447E-1,9.890318480E0
2.915346323E0,-9.868000984E0,-6.221338734E-2,1.295115203E-1,9.869046923E0
2.917769656E0,-9.925428391E0,-8.853443712E-2,1.295115203E-1,9.926668138E0
2.920192885E0,-9.913464546E0,-7.417750359E-2,1.342971772E-1,9.914651650E0
2.922616323E0,-9.889535904E0,-9.332008660E-2,1.390828192E-1,9.890954103E0
2.925040125E0,-9.927821159E0,-6.460621208E-2,1.534397453E-1,9.929217023E0
2.927463354E0,-9.920642853E0,-7.178468257E-2,1.319043487E-1,9.921779397E0
2.929886948E0,-9.911071777E0,-8.135596663E-2,1.366899908E-1,9.912348194E0
2.932311114E0,-9.896714211E0,-7.178468257E-2,1.199402362E-1,9.897701292E0
2.934734708E0,-9.920642853E0,-5.742774159E-2,1.390828192E-1,9.921783942E0
2.937158198E0,-9.911071777E0,-5.742774159E-2,1.319043487E-1,9.912115843E0
2.939581323E0,-9.903892517E0,-5.982056633E-2,1.438684613E-1,9.905118052E0
2.942005125E0,-9.915857315E0,-7.417750359E-2,1.175474152E-1,9.916831449E0
2.944428927E0,-9.889535904E0,-7.178468257E-2,1.271187067E-1,9.890613358E0
2.946852885E0,-9.889535904E0,-8.614161611E-2,1.295115203E-1,9.890759021E0
2.949276739E0,-9.896714211E0,-5.024927482E-2,1.342971772E-1,9.897752921E0
2.951700645E0,-9.872786522E0,-6.221338734E-2,1.390828192E-1,9.873962135E0
2.954125073E0,-9.894321442E0,-6.699903309E-2,1.247258782E-1,9.895334366E0
2.956548875E0,-9.894321442E0,-7.178468257E-2,1.199402362E-1,9.895308762E0
2.958973354E0,-9.899106979E0,-7.657032460E-2,1.247258782E-1,9.900188814E0
2.961397729E0,-9.879964828E0,-6.939185411E-2,1.271187067E-1,9.881026232E0
2.963821479E0,-9.913464546E0,-6.460621208E-2,1.223330572E-1,9.914429820E0
2.966245020E0,-9.913464546E0,-7.657032460E-2,1.223330572E-1,9.914515001E0
2.968668666E0,-9.918250084E0,-7.178468257E-2,1.366899908E-1,9.919451695E0
2.971092208E0,-9.934999466E0,-6.460621208E-2,1.223330572E-1,9.935962647E0
2.973515489E0,-9.903892517E0,-6.460621208E-2,1.295115203E-1,9.904949984E0
2.975938718E0,-9.901499748E0,-7.657032460E-2,1.366899908E-1,9.902739239E0
2.978361895E0,-9.911071777E0,-5.742774159E-2,1.247258782E-1,9.912022915E0
2.980785802E0,-9.908679008E0,-4.067798331E-2,1.319043487E-1,9.909640415E0
2.983209291E0,-9.889535904E0,-6.939185411E-2,1.223330572E-1,9.890535931E0
2.985633406E0,-9.877572060E0,-6.221338734E-2,1.199402362E-1,9.878496139E0
2.988057260E0,-9.913464546E0,-7.896314561E-2,1.199402362E-1,9.914504534E0
2.990481323E0,-9.911071777E0,-6.221338734E-2,1.103689447E-1,9.911881536E0
2.992905020E0,-9.923035622E0,-6.939185411E-2,1.223330572E-1,9.924032273E0
2.995328510E0,-9.906285286E0,-6.699903309E-2,1.223330572E-1,9.907267152E0
2.997751791E0,-9.903892517E0,-5.264209956E-2,1.342971772E-1,9.904942903E0
3.000174916E0,-9.923035622E0,-9.332008660E-2,1.223330572E-1,9.924228432E0
3.002598770E0,-9.906285286E0,-6.699903309E-2,1.271187067E-1,9.907327400E0
3.005023041E0,-9.903892517E0,-5.264209956E-2,1.199402362E-1,9.904758646E0
3.007446948E0,-9.906285286E0,-7.178468257E-2,1.271187067E-1,9.907360919E0
3.009871010E0,-9.932606697E0,-6.939185411E-2,1.247258782E-1,9.933632144E0
3.012295020E0,-9.923035622E0,-4.785645381E-2,1.223330572E-1,9.923905056E0
3.014718979E0,-9.913464546E0,-6.939185411E-2,1.151545867E-1,9.914376184E0
3.017142937E0,-9.927821159E0,-6.939185411E-2,1.319043487E-1,9.928939871E0
3.019566479E0,-9.918250084E0,-9.571290761E-2,1.319043487E-1,9.919588925E0
3.021990177E0,-9.920642853E0,-7.657032460E-2,1.271187067E-1,9.921752708E0
3.024413875E0,-9.908679008E0,-6.699903309E-2,1.342971772E-1,9.909815553E0
3.026837416E0,-9.899106979E0,-5.982056633E-2,1.295115203E-1,9.900134884E0
3.029261166E0,-9.884750366E0,-5.024927482E-2,1.295115203E-1,9.885726479E0
3.031684656E0,-9.901499748E0,-6.939185411E-2,1.223330572E-1,9.902498567E0
3.034108093E0,-9.896714211E0,-6.221338734E-2,1.271187067E-1,9.897726094E0
3.036531948E0,-9.906285286E0,-7.417750359E-2,1.223330572E-1,9.907318297E0
3.038955854E0,-9.934999466E0,-9.332008660E-2,1.295115203E-1,9.936281813E0
3.041379083E0,-9.896714211E0,-5.982056633E-2,1.247258782E-1,9.897680901E0
3.043802937E0,-9.899106979E0,-6.221338734E-2,1.175474152E-1,9.900000348E0
3.046226687E0,-9.913464546E0,-5.264209956E-2,1.366899908E-1,9.914546619E0
3.048651062E0,-9.918250084E0,-5.503492057E-2,1.199402362E-1,9.919127947E0
3.051075906E0,-9.889535904E0,-7.657032460E-2,1.414756328E-1,9.890844189E0
3.053500177E0,-9.911071777E0,-5.264209956E-2,1.414756328E-1,9.912221261E0
3.055923927E0,-9.918250084E0,-8.614161611E-2,1.366899908E-1,9.919565981E0
3.058347156E0,-9.903892517E0,-6.460621208E-2,1.438684613E-1,9.905148110E0
3.060770854E0,-9.889535904E0,-5.982056633E-2,1.295115203E-1,9.890564803E0
3.063194968E0,-9.896714211E0,-6.221338734E-2,1.247258782E-1,9.897695652E0
3.065619083E0,-9.932606697E0,-6.699903309E-2,1.223330572E-1,9.933585961E0
3.068042416E0,-9.932606697E0,-5.742774159E-2,1.414756328E-1,9.933780202E0
3.070466010E0,-9.899106979E0,-5.024927482E-2,1.390828192E-1,9.900211513E0
3.072889708E0,-9.908679008E0,-4.067798331E-2,1.414756328E-1,9.909772437E0
3.075313510E0,-9.889535904E0,-7.178468257E-2,1.151545867E-1,9.890466825E0
3.077737625E0,-9.903892517E0,-6.939185411E-2,1.295115203E-1,9.904982355E0
3.080161062E0,-9.923035622E0,-5.264209956E-2,1.271187067E-1,9.923989435E0
3.082584291E0,-9.913464546E0,-6.699903309E-2,1.414756328E-1,9.914700375E0
3.085008093E0,-9.870393753E0,-4.067798331E-2,1.223330572E-1,9.871235633E0
3.087431739E0,-9.872786522E0,-5.503492057E-2,1.247258782E-1,9.873727720E0
3.089855177E0,-9.875179291E0,-5.503492057E-2,1.151545867E-1,9.876004022E0
3.092277781E0,-9.911071777E0,-6.221338734E-2,1.151545867E-1,9.911935979E0
3.094701010E0,-9.918250084E0,-8.374879509E-2,1.295115203E-1,9.919449169E0
3.097124395E0,-9.879964828E0,-5.982056633E-2,1.462612897E-1,9.881228460E0
3.099547885E0,-9.884750366E0,-6.460621208E-2,1.390828192E-1,9.885939905E0
3.101972000E0,-9.913464546E0,-5.982056633E-2,1.175474152E-1,9.914341895E0
3.104395854E0,-9.906285286E0,-5.503492057E-2,1.175474152E-1,9.907135530E0
3.106820229E0,-9.908679008E0,-4.785645381E-2,1.223330572E-1,9.909549703E0
3.109243510E0,-9.911071777E0,-7.896314561E-2,1.319043487E-1,9.912264005E0
3.111666687E0,-9.901499748E0,-5.742774159E-2,1.366899908E-1,9.902609725E0
3.114089864E0,-9.894321442E0,-6.939185411E-2,1.366899908E-1,9.895508889E0
3.116513145E0,-9.906285286E0,-6.699903309E-2,1.223330572E-1,9.907267152E0
3.118936895E0,-9.915857315E0,-8.853443712E-2,1.175474152E-1,9.916949230E0
3.121360698E0,-9.923035622E0,-7.896314561E-2,1.175474152E-1,9.924045975E0
3.123783770E0,-9.913464546E0,-8.135596663E-2,1.319043487E-1,9.914675832E0
3.126206375E0,-9.906285286E0,-7.896314561E-2,1.223330572E-1,9.907355284E0
3.128629656E0,-9.906285286E0,-5.024927482E-2,1.390828192E-1,9.907389020E0
3.131052520E0,-9.918250084E0,-7.417750359E-2,1.199402362E-1,9.919252628E0
3.133475854E0,-9.903892517E0,-7.896314561E-2,1.366899908E-1,9.905150495E0
3.135899604E0,-9.942177773E0,-9.332008660E-2,1.271187067E-1,9.943428315E0
3.138323145E0,-9.915857315E0,-7.178468257E-2,1.295115203E-1,9.916962870E0
3.140746687E0,-9.901499748E0,-7.896314561E-2,1.342971772E-1,9.902725290E0
3.143169968E0,-9.903892517E0,-5.982056633E-2,1.199402362E-1,9.904799400E0
3.145593875E0,-9.894321442E0,-4.307080805E-2,1.247258782E-1,9.895201283E0
3.148017729E0,-9.899106979E0,-6.939185411E-2,1.271187067E-1,9.900166331E0
3.150441635E0,-9.937392235E0,-6.460621208E-2,1.390828192E-1,9.938575472E0
3.152865177E0,-9.908679008E0,-5.742774159E-2,1.414756328E-1,9.909855347E0
3.155288406E0,-9.884750366E0,-7.657032460E-2,1.390828192E-1,9.886025331E0
3.157711739E0,-9.908679008E0,-9.332008660E-2,1.295115203E-1,9.909964761E0
3.160135020E0,-9.908679008E0,-7.657032460E-2,1.223330572E-1,9.909729970E0
3.162557937E0,-9.908679008E0,-8.614161611E-2,1.295115203E-1,9.909899763E0
3.164981114E0,-9.913464546E0,-7.896314561E-2,1.223330572E-1,9.914533769E0
3.167404500E0,-9.877572060E0,-8.135596663E-2,1.199402362E-1,9.878635242E0
3.169827573E0,-9.877572060E0,-8.614161611E-2,1.462612897E-1,9.879030445E0
3.172250958E0,-9.908679008E0,-4.307080805E-2,1.199402362E-1,9.909498496E0
3.174674343E0,-9.899106979E0,-6.460621208E-2,1.462612897E-1,9.900398240E0
3.177097364E0,-9.889535904E0,-6.699903309E-2,1.366899908E-1,9.890707428E0
3.179521166E0,-9.911071777E0,-5.024927482E-2,1.271187067E-1,9.912014323E0
3.181944448E0,-9.915857315E0,-7.178468257E-2,1.319043487E-1,9.916994408E0
3.184367781E0,-9.913464546E0,-7.896314561E-2,1.199402362E-1,9.914504534E0
3.186791114E0,-9.927821159E0,-6.939185411E-2,1.295115203E-1,9.928908371E0
3.189215125E0,-9.896714211E0,-7.417750359E-2,1.271187067E-1,9.897808527E0
3.191638354E0,-9.899106979E0,-6.939185411E-2,1.342971772E-1,9.900261105E0
3.194061531E0,-9.903892517E0,-6.699903309E-2,1.295115203E-1,9.904965881E0
3.196484812E0,-9.899106979E0,-5.982056633E-2,1.366899908E-1,9.900231393E0
3.198907573E0,-9.913464546E0,-6.460621208E-2,1.390828192E-1,9.914650639E0
3.201330802E0,-9.899106979E0,-7.657032460E-2,1.366899908E-1,9.900346770E0
3.203754187E0,-9.877572060E0,-6.460621208E-2,1.295115203E-1,9.878632344E0
3.206177625E0,-9.925428391E0,-8.614161611E-2,1.319043487E-1,9.926678592E0
3.208601427E0,-9.918250084E0,-7.178468257E-2,1.271187067E-1,9.919324419E0
3.211024604E0,-9.932606697E0,-6.939185411E-2,1.247258782E-1,9.933632144E0
3.213447468E0,-9.891928673E0,-5.742774159E-2,1.223330572E-1,9.892851772E0
3.215870645E0,-9.920642853E0,-6.939185411E-2,1.319043487E-1,9.921762374E0
3.218294291E0,-9.899106979E0,-8.853443712E-2,1.366899908E-1,9.900446530E0
3.220717312E0,-9.899106979E0,-7.178468257E-2,1.295115203E-1,9.900214405E0
3.223140541E0,-9.906285286E0,-7.896314561E-2,1.342971772E-1,9.907510236E0
3.225564031E0,-9.896714211E0,-7.417750359E-2,1.127617657E-1,9.897634550E0
3.227987573E0,-9.889535904E0,-7.178468257E-2,1.271187067E-1,9.890613358E0
3.230411270E0,-9.911071777E0,-7.178468257E-2,1.390828192E-1,9.912307544E0
3.232834083E0,-9.903892517E0,-5.742774159E-2,1.295115203E-1,9.904905763E0
3.235257364E0,-9.896714211E0,-5.503492057E-2,1.342971772E-1,9.897778374E0
3.237680802E0,-9.865608215E0,-7.417750359E-2,1.103689447E-1,9.866504399E0
3.240104448E0,-9.899106979E0,-4.785645381E-2,1.271187067E-1,9.900038808E0
3.242527989E0,-9.889535904E0,-6.221338734E-2,1.319043487E-1,9.890611187E0
3.244951427E0,-9.882357597E0,-7.657032460E-2,1.223330572E-1,9.883411358E0
3.247375958E0,-9.901499748E0,-6.699903309E-2,1.271187067E-1,9.902542365E0
3.249799760E0,-9.906285286E0,-6.939185411E-2,1.342971772E-1,9.907438576E0
3.252223250E0,-9.894321442E0,-5.982056633E-2,1.199402362E-1,9.895229202E0
3.254646843E0,-9.882357597E0,-5.982056633E-2,1.342971772E-1,9.883451114E0
3.257070906E0,-9.906285286E0,-7.178468257E-2,1.462612897E-1,9.907625022E0
3.259494343E0,-9.901499748E0,-7.896314561E-2,1.366899908E-1,9.902758030E0
3.261917989E0,-9.906285286E0,-5.982056633E-2,1.175474152E-1,9.907163270E0
3.264342208E0,-9.882357597E0,-5.982056633E-2,1.247258782E-1,9.883325692E0
3.266766270E0,-9.894321442E0,-5.982056633E-2,1.055833027E-1,9.895065595E0
3.269190541E0,-9.896714211E0,-6.939185411E-2,1.342971772E-1,9.897868615E0
3.271614864E0,-9.911071777E0,-4.785645381E-2,1.366899908E-1,9.912129850E0
3.274039291E0,-9.918250084E0,-5.264209956E-2,1.366899908E-1,9.919331634E0
3.276462885E0,-9.913464546E0,-5.024927482E-2,1.271187067E-1,9.914406864E0
3.278886583E0,-9.920642853E0,-6.939185411E-2,1.438684613E-1,9.921928642E0
3.281310906E0,-9.920642853E0,-5.742774159E-2,1.486541033E-1,9.921922727E0
3.283734864E0,-9.891928673E0,-7.657032460E-2,1.199402362E-1,9.892952115E0
3.286158614E0,-9.913464546E0,-6.939185411E-2,1.199402362E-1,9.914432924E0
3.288582468E0,-9.911071777E0,-6.939185411E-2,1.295115203E-1,9.912160826E0
3.291006531E0,-9.901499748E0,-7.896314561E-2,1.390828192E-1,9.902791348E0
3.293429448E0,-9.903892517E0,-7.657032460E-2,1.319043487E-1,9.905066823E0
3.295852885E0,-9.887143135E0,-6.939185411E-2,1.175474152E-1,9.888085355E0
3.298276739E0,-9.903892517E0,-7.178468257E-2,1.366899908E-1,9.905095870E0
3.300700177E0,-9.887143135E0,-7.178468257E-2,1.295115203E-1,9.888251901E0
3.303123979E0,-9.875179291E0,-4.785645381E-2,1.319043487E-1,9.876176134E0
3.305548145E0,-9.901499748E0,-7.178468257E-2,1.175474152E-1,9.902457660E0
3.307971843E0,-9.903892517E0,-7.417750359E-2,1.582254022E-1,9.905434093E0
3.310395229E0,-9.901499748E0,-6.939185411E-2,1.342971772E-1,9.902653595E0
3.312819187E0,-9.911071777E0,-5.742774159E-2,1.582254022E-1,9.912501047E0
3.315242052E0,-9.903892517E0,-5.503492057E-2,1.390828192E-1,9.905021952E0
3.317665593E0,-9.911071777E0,-8.614161611E-2,1.151545867E-1,9.912115048E0
3.320089343E0,-9.877572060E0,-6.221338734E-2,1.438684613E-1,9.878815639E0
3.322513302E0,-9.884750366E0,-6.221338734E-2,1.151545867E-1,9.885616869E0
3.324937052E0,-9.903892517E0,-5.982056633E-2,1.223330572E-1,9.904828664E0
3.327360802E0,-9.906285286E0,-5.024927482E-2,1.390828192E-1,9.907389020E0
3.329784291E0,-9.887143135E0,-6.699903309E-2,1.438684613E-1,9.888416778E0
3.332207468E0,-9.899106979E0,-4.785645381E-2,1.319043487E-1,9.900101413E0
3.334631114E0,-9.908679008E0,-6.939185411E-2,1.247258782E-1,9.909706931E0
3.337054343E0,-9.894321442E0,-6.221338734E-2,1.199402362E-1,9.895243956E0
3.339477781E0,-9.915857315E0,-7.657032460E-2,1.295115203E-1,9.916998666E0
3.341901323E0,-9.899106979E0,-5.742774159E-2,1.199402362E-1,9.900000131E0
3.344324395E0,-9.913464546E0,-5.264209956E-2,1.247258782E-1,9.914388889E0
3.346747885E0,-9.903892517E0,-6.939185411E-2,1.390828192E-1,9.905112127E0
3.349171323E0,-9.894321442E0,-7.896314561E-2,1.295115203E-1,9.895484081E0
3.351594708E0,-9.901499748E0,-8.135596663E-2,1.414756328E-1,9.902844612E0
3.354017937E0,-9.906285286E0,-7.417750359E-2,1.390828192E-1,9.907539276E0
3.356440489E0,-9.920642853E0,-5.742774159E-2,1.342971772E-1,9.921718011E0
3.358863770E0,-9.920642853E0,-6.221338734E-2,1.390828192E-1,9.921812795E0
3.361286635E0,-9.913464546E0,-3.110669367E-2,1.366899908E-1,9.914455663E0
3.363710073E0,-9.911071777E0,-6.460621208E-2,1.414756328E-1,9.912292020E0
3.366133041E0,-9.884750366E0,-6.939185411E-2,1.342971772E-1,9.885906168E0
3.368556427E0,-9.911071777E0,-7.896314561E-2,1.247258782E-1,9.912171079E0
3.370979031E0,-9.913464546E0,-6.221338734E-2,1.175474152E-1,9.914356621E0
3.373402052E0,-9.901499748E0,-6.939185411E-2,1.366899908E-1,9.902686335E0
3.375825281E0,-9.903892517E0,-6.699903309E-2,1.151545867E-1,9.904788561E0
3.378248354E0,-9.896714211E0,-5.742774159E-2,1.390828192E-1,9.897858058E0
3.380671062E0,-9.913464546E0,-5.503492057E-2,1.414756328E-1,9.914626746E0
3.383094656E0,-9.899106979E0,-5.503492057E-2,1.319043487E-1,9.900138716E0
3.385517416E0,-9.887143135E0,-6.939185411E-2,1.319043487E-1,9.888266449E0
3.387940281E0,-9.906285286E0,-6.699903309E-2,1.175474152E-1,9.907209215E0
3.390363458E0,-9.925428391E0,-7.178468257E-2,1.319043487E-1,9.926564387E0
3.392786948E0,-9.896714211E0,-6.699903309E-2,1.366899908E-1,9.897884885E0
3.395209968E0,-9.896714211E0,-8.614161611E-2,1.271187067E-1,9.897905420E0
3.397631895E0,-9.899106979E0,-7.417750359E-2,1.175474152E-1,9.900082762E0
3.400054760E0,-9.903892517E0,-6.939185411E-2,1.199402362E-1,9.904861830E0
3.402477468E0,-9.918250084E0,-5.264209956E-2,1.462612897E-1,9.919468145E0
3.404900906E0,-9.891928673E0,-9.332008660E-2,1.414756328E-1,9.893380457E0
3.407323875E0,-9.899106979E0,-7.178468257E-2,1.295115203E-1,9.900214405E0
3.409747104E0,-9.896714211E0,-8.374879509E-2,1.414756328E-1,9.898079681E0
3.412170073E0,-9.899106979E0,-5.982056633E-2,1.366899908E-1,9.900231393E0
3.414593198E0,-9.894321442E0,-5.503492057E-2,1.462612897E-1,9.895555467E0
3.417016270E0,-9.908679008E0,-4.785645381E-2,1.319043487E-1,9.909672481E0
3.419439812E0,-9.903892517E0,-7.896314561E-2,1.271187067E-1,9.905023036E0
3.421862937E0,-9.911071777E0,-6.221338734E-2,1.199402362E-1,9.911992733E0
3.424285750E0,-9.915857315E0,-6.939185411E-2,1.271187067E-1,9.916914878E0
3.426708093E0,-9.932606697E0,-7.896314561E-2,1.271187067E-1,9.933733948E0
3.429130906E0,-9.899106979E0,-7.657032460E-2,1.390828192E-1,9.900380095E0
3.431554448E0,-9.889535904E0,-5.742774159E-2,1.247258782E-1,9.890489113E0
3.433977833E0,-9.925428391E0,-9.810572863E-2,1.151545867E-1,9.926581186E0
3.436401166E0,-9.911071777E0,-6.939185411E-2,1.175474152E-1,9.912011723E0
3.438824239E0,-9.903892517E0,-6.939185411E-2,1.342971772E-1,9.905046085E0
3.441247833E0,-9.884750366E0,-7.896314561E-2,1.342971772E-1,9.885977985E0
3.443671427E0,-9.896714211E0,-8.374879509E-2,1.247258782E-1,9.897854443E0
3.446095645E0,-9.911071777E0,-6.939185411E-2,1.342971772E-1,9.912224510E0
3.448519604E0,-9.875179291E0,-5.503492057E-2,1.606182158E-1,9.876638754E0
3.450943718E0,-9.882357597E0,-5.742774159E-2,1.438684613E-1,9.883571610E0
3.453366948E0,-9.925428391E0,-7.178468257E-2,1.271187067E-1,9.926501949E0
3.455790385E0,-9.903892517E0,-7.178468257E-2,1.271187067E-1,9.904968410E0
3.458213666E0,-9.918250084E0,-7.896314561E-2,1.438684613E-1,9.919607756E0
3.460637104E0,-9.913464546E0,-6.221338734E-2,1.630110443E-1,9.914999870E0
3.463060854E0,-9.899106979E0,-6.460621208E-2,1.486541033E-1,9.900433879E0
3.465484552E0,-9.915857315E0,-6.221338734E-2,1.366899908E-1,9.916994552E0
3.467908562E0,-9.877572060E0,-5.982056633E-2,1.175474152E-1,9.878452596E0
3.470332104E0,-9.899106979E0,-7.178468257E-2,1.151545867E-1,9.900037000E0
3.472755073E0,-9.903892517E0,-8.135596663E-2,1.079761237E-1,9.904815224E0
3.475178198E0,-9.875179291E0,-6.939185411E-2,1.079761237E-1,9.876013371E0
3.477601583E0,-9.899106979E0,-6.939185411E-2,1.414756328E-1,9.900361083E0
3.480024968E0,-9.899106979E0,-7.417750359E-2,1.247258782E-1,9.900170596E0
3.482448406E0,-9.891928673E0,-7.657032460E-2,1.390828192E-1,9.893202713E0
3.484871895E0,-9.894321442E0,-7.417750359E-2,1.247258782E-1,9.895385573E0
3.487295541E0,-9.918250084E0,-9.092725813E-2,1.199402362E-1,9.919392025E0
3.489718458E0,-9.889535904E0,-7.417750359E-2,1.295115203E-1,9.890662057E0
3.492141531E0,-9.887143135E0,-6.221338734E-2,1.462612897E-1,9.888420614E0
3.494565073E0,-9.903892517E0,-6.460621208E-2,1.462612897E-1,9.905183154E0
3.496988823E0,-9.891928673E0,-7.417750359E-2,1.414756328E-1,9.893218411E0
3.499412677E0,-9.882357597E0,-5.742774159E-2,1.271187067E-1,9.883341985E0
3.501835437E0,-9.908679008E0,-6.699903309E-2,1.295115203E-1,9.909751853E0
3.504258823E0,-9.915857315E0,-6.221338734E-2,1.271187067E-1,9.916867245E0
3.506682260E0,-9.913464546E0,-4.785645381E-2,1.247258782E-1,9.914364634E0
3.509105802E0,-9.903892517E0,-5.982056633E-2,1.414756328E-1,9.905083586E0
3.511530073E0,-9.913464546E0,-6.221338734E-2,1.342971772E-1,9.914569358E0
3.513954031E0,-9.901499748E0,-6.460621208E-2,1.414756328E-1,9.902721171E0
3.516377468E0,-9.887143135E0,-8.614161611E-2,1.342971772E-1,9.888430385E0
3.518801531E0,-9.908679008E0,-7.417750359E-2,1.271187067E-1,9.909772003E0
3.521225385E0,-9.899106979E0,-6.939185411E-2,1.342971772E-1,9.900261105E0
3.523649239E0,-9.918250084E0,-5.503492057E-2,1.319043487E-1,9.919279829E0
3.526073406E0,-9.927821159E0,-7.417750359E-2,1.247258782E-1,9.928881700E0
3.528497208E0,-9.889535904E0,-8.135596663E-2,1.175474152E-1,9.890569073E0
3.530921531E0,-9.894321442E0,-8.614161611E-2,1.414756328E-1,9.895707783E0
3.533345802E0,-9.913464546E0,-5.024927482E-2,1.366899908E-1,9.914534202E0
3.535769500E0,-9.889535904E0,-5.982056633E-2,1.390828192E-1,9.890694765E0
3.538193406E0,-9.915857315E0,-5.503492057E-2,1.247258782E-1,9.916794426E0
3.540617000E0,-9.908679008E0,-6.221338734E-2,1.342971772E-1,9.909784353E0
3.543040489E0,-9.908679008E0,-5.503492057E-2,1.271187067E-1,9.909647204E0
3.545463614E0,-9.906285286E0,-7.178468257E-2,1.295115203E-1,9.907391909E0
3.547887208E0,-9.930213928E0,-7.178468257E-2,1.366899908E-1,9.931414091E0
3.550310802E0,-9.925428391E0,-6.221338734E-2,1.247258782E-1,9.926406993E0
3.552735125E0,-9.920642853E0,-6.939185411E-2,1.247258782E-1,9.921669536E0
3.555158458E0,-9.899106979E0,-4.307080805E-2,1.342971772E-1,9.900111606E0
3.557581635E0,-9.918250084E0,-5.982056633E-2,1.510469317E-1,9.919580556E0
3.560004812E0,-9.896714211E0,-6.221338734E-2,1.319043487E-1,9.897788714E0
3.562427885E0,-9.889535904E0,-6.939185411E-2,1.319043487E-1,9.890658946E0
3.564851010E0,-9.911071777E0,-7.657032460E-2,1.438684613E-1,9.912411660E0
3.567274760E0,-9.908679008E0,-7.896314561E-2,1.199402362E-1,9.909719498E0
3.569698510E0,-9.927821159E0,-5.982056633E-2,1.271187067E-1,9.928815168E0
3.572121531E0,-9.899106979E0,-7.417750359E-2,1.223330572E-1,9.900140740E0
3.574544604E0,-9.908679008E0,-6.939185411E-2,1.295115203E-1,9.909768320E0
3.576968145E0,-9.937392235E0,-5.503492057E-2,1.127617657E-1,9.938184366E0
3.579391635E0,-9.911071777E0,-7.178468257E-2,1.247258782E-1,9.912116493E0
3.581814968E0,-9.911071777E0,-7.178468257E-2,1.223330572E-1,9.912086672E0
3.584239343E0,-9.920642853E0,-6.221338734E-2,1.342971772E-1,9.921746865E0
3.586663562E0,-9.884750366E0,-6.221338734E-2,1.319043487E-1,9.885826170E0
3.589086843E0,-9.901499748E0,-5.742774159E-2,1.175474152E-1,9.902363991E0
3.591510541E0,-9.896714211E0,-7.896314561E-2,1.199402362E-1,9.897755958E0
3.593934291E0,-9.908679008E0,-7.896314561E-2,1.319043487E-1,9.909871524E0
3.596358354E0,-9.899106979E0,-8.374879509E-2,1.223330572E-1,9.900217080E0
3.598782208E0,-9.896714211E0,-6.221338734E-2,1.462612897E-1,9.897990454E0
3.601206114E0,-9.908679008E0,-4.546362907E-2,1.486541033E-1,9.909898318E0
3.603629916E0,-9.899106979E0,-5.264209956E-2,1.295115203E-1,9.900094111E0
3.606053875E0,-9.896714211E0,-6.939185411E-2,1.462612897E-1,9.898038177E0
3.608477833E0,-9.889535904E0,-6.699903309E-2,1.366899908E-1,9.890707428E0
3.610901843E0,-9.906285286E0,-7.657032460E-2,1.414756328E-1,9.907591359E0
3.613325385E0,-9.903892517E0,-7.417750359E-2,1.414756328E-1,9.905180697E0
3.615748718E0,-9.901499748E0,-8.374879509E-2,1.462612897E-1,9.902934085E0
3.618173718E0,-9.927821159E0,-6.699903309E-2,1.271187067E-1,9.928861013E0
3.620597833E0,-9.913464546E0,-5.264209956E-2,1.366899908E-1,9.914546619E0
3.623021635E0,-9.901499748E0,-7.417750359E-2,1.390828192E-1,9.902754344E0
3.625445541E0,-9.882357597E0,-7.896314561E-2,1.199402362E-1,9.883400858E0
3.627869448E0,-9.903892517E0,-6.939185411E-2,1.271187067E-1,9.904951357E0
3.630293510E0,-9.894321442E0,-5.982056633E-2,1.366899908E-1,9.895446399E0
3.632717833E0,-9.932606697E0,-6.699903309E-2,1.223330572E-1,9.933585961E0
3.635142000E0,-9.906285286E0,-7.657032460E-2,1.342971772E-1,9.907491454E0
3.637565437E0,-9.911071777E0,-5.503492057E-2,1.366899908E-1,9.912167108E0
3.639988562E0,-9.908679008E0,-8.614161611E-2,1.414756328E-1,9.910063341E0
3.642411270E0,-9.923035622E0,-5.742774159E-2,1.414756328E-1,9.924210258E0
3.644834864E0,-9.930213928E0,-5.264209956E-2,1.319043487E-1,9.931229461E0
3.647258093E0,-9.889535904E0,-6.939185411E-2,1.366899908E-1,9.890723926E0
3.649681270E0,-9.887143135E0,-5.982056633E-2,1.366899908E-1,9.888268910E0
3.652104760E0,-9.889535904E0,-6.460621208E-2,1.390828192E-1,9.890724867E0
3.654527989E0,-9.899106979E0,-5.264209956E-2,1.366899908E-1,9.900190621E0
3.656951427E0,-9.889535904E0,-7.417750359E-2,1.342971772E-1,9.890725880E0
3.659374343E0,-9.915857315E0,-8.853443712E-2,1.223330572E-1,9.917007110E0
3.661797625E0,-9.896714211E0,-7.178468257E-2,1.366899908E-1,9.897918436E0
3.664221323E0,-9.899106979E0,-7.417750359E-2,1.366899908E-1,9.900328552E0
3.666644552E0,-9.901499748E0,-7.896314561E-2,1.247258782E-1,9.902600112E0
3.669068198E0,-9.894321442E0,-8.135596663E-2,1.342971772E-1,9.895567256E0
3.671491895E0,-9.906285286E0,-6.221338734E-2,1.438684613E-1,9.907525261E0
3.673915177E0,-9.913464546E0,-6.699903309E-2,1.271187067E-1,9.914505905E0
3.676338093E0,-9.891928673E0,-7.657032460E-2,1.534397453E-1,9.893414963E0
3.678762104E0,-9.906285286E0,-8.374879509E-2,1.342971772E-1,9.907549534E0
3.681185125E0,-9.906285286E0,-6.939185411E-2,1.510469317E-1,9.907679777E0
3.683607937E0,-9.894321442E0,-6.221338734E-2,1.390828192E-1,9.895494496E0
3.686031843E0,-9.908679008E0,-6.939185411E-2,1.247258782E-1,9.909706931E0
3.688455645E0,-9.915857315E0,-6.939185411E-2,1.390828192E-1,9.917075454E0
3.690878823E0,-9.887143135E0,-5.742774159E-2,1.271187067E-1,9.888127046E0
3.693302885E0,-9.901499748E0,-7.178468257E-2,1.295115203E-1,9.902606906E0
3.695726843E0,-9.911071777E0,-6.939185411E-2,1.127617657E-1,9.911956125E0
3.698150645E0,-9.899106979E0,-7.657032460E-2,1.151545867E-1,9.900072857E0
3.700574448E0,-9.903892517E0,-8.853443712E-2,1.414756328E-1,9.905298617E0
3.702998354E0,-9.913464546E0,-8.614161611E-2,1.438684613E-1,9.914882643E0
3.705422729E0,-9.911071777E0,-5.264209956E-2,1.414756328E-1,9.912221261E0
3.707846895E0,-9.923035622E0,-6.939185411E-2,1.414756328E-1,9.924286701E0
3.710271010E0,-9.920642853E0,-7.417750359E-2,1.534397453E-1,9.922106665E0
3.712694552E0,-9.923035622E0,-6.939185411E-2,1.390828192E-1,9.924252879E0
3.715118041E0,-9.891928673E0,-5.742774159E-2,1.462612897E-1,9.893176597E0
3.717541635E0,-9.894321442E0,-7.896314561E-2,1.151545867E-1,9.895306592E0
3.719965802E0,-9.906285286E0,-5.503492057E-2,1.271187067E-1,9.907253715E0
3.722390020E0,-9.915857315E0,-5.503492057E-2,1.175474152E-1,9.916706738E0
3.724813927E0,-9.899106979E0,-7.896314561E-2,1.271187067E-1,9.900238044E0
3.727237416E0,-9.891928673E0,-6.221338734E-2,1.342971772E-1,9.893035889E0
3.729660698E0,-9.899106979E0,-6.699903309E-2,1.271187067E-1,9.900149849E0
3.732084135E0,-9.913464546E0,-5.742774159E-2,1.342971772E-1,9.914540483E0
3.734508145E0,-9.911071777E0,-5.503492057E-2,1.223330572E-1,9.911979520E0
3.736931635E0,-9.896714211E0,-4.785645381E-2,1.223330572E-1,9.897585957E0
3.739355125E0,-9.911071777E0,-7.178468257E-2,1.319043487E-1,9.912209419E0
3.741778510E0,-9.906285286E0,-6.460621208E-2,1.175474152E-1,9.907193322E0
3.744201843E0,-9.894321442E0,-5.982056633E-2,1.055833027E-1,9.895065595E0
3.746625437E0,-9.889535904E0,-6.460621208E-2,1.510469317E-1,9.890900340E0
3.749049760E0,-9.908679008E0,-6.699903309E-2,1.366899908E-1,9.909848269E0
3.751474031E0,-9.903892517E0,-7.657032460E-2,1.271187067E-1,9.905004249E0
3.753897625E0,-9.879964828E0,-6.699903309E-2,1.175474152E-1,9.880891219E0
3.756321323E0,-9.920642853E0,-6.939185411E-2,1.366899908E-1,9.921827150E0
3.758745489E0,-9.918250084E0,-5.982056633E-2,1.414756328E-1,9.919439429E0
3.761169500E0,-9.908679008E0,-7.178468257E-2,1.342971772E-1,9.909849064E0
3.763593302E0,-9.879964828E0,-5.503492057E-2,1.271187067E-1,9.880935837E0
3.766016948E0,-9.915857315E0,-6.939185411E-2,1.199402362E-1,9.916825459E0
3.768440958E0,-9.889535904E0,-6.939185411E-2,1.175474152E-1,9.890477896E0
3.770864552E0,-9.889535904E0,-6.221338734E-2,1.295115203E-1,9.890579565E0
3.773287625E0,-9.868000984E0,-4.785645381E-2,1.414756328E-1,9.869131118E0
3.775711218E0,-9.913464546E0,-6.460621208E-2,1.414756328E-1,9.914684495E0
3.778134656E0,-9.906285286E0,-5.982056633E-2,1.414756328E-1,9.907476067E0
3.780558041E0,-9.906285286E0,-6.699903309E-2,1.319043487E-1,9.907389959E0
3.782982156E0,-9.901499748E0,-4.067798331E-2,1.366899908E-1,9.902526754E0
3.785406062E0,-9.915857315E0,-7.417750359E-2,1.438684613E-1,9.917178365E0
3.787829760E0,-9.911071777E0,-6.939185411E-2,1.390828192E-1,9.912290504E0
3.790254135E0,-9.896714211E0,-6.460621208E-2,1.319043487E-1,9.897804044E0
3.792677781E0,-9.908679008E0,-7.417750359E-2,1.175474152E-1,9.909653848E0
3.795101427E0,-9.908679008E0,-8.135596663E-2,1.247258782E-1,9.909797931E0
3.797524708E0,-9.903892517E0,-6.699903309E-2,1.438684613E-1,9.905164006E0
3.799948770E0,-9.899106979E0,-6.939185411E-2,1.319043487E-1,9.900228936E0
3.802371531E0,-9.923035622E0,-7.178468257E-2,1.414756328E-1,9.924303721E0
3.804795020E0,-9.894321442E0,-7.657032460E-2,1.438684613E-1,9.895663593E0
3.807217833E0,-9.887143135E0,-6.939185411E-2,1.414756328E-1,9.888398756E0
3.809640958E0,-9.889535904E0,-6.939185411E-2,1.366899908E-1,9.890723926E0
3.812064395E0,-9.911071777E0,-7.417750359E-2,1.247258782E-1,9.912134110E0
3.814487937E0,-9.911071777E0,-6.460621208E-2,1.390828192E-1,9.912258157E0
3.816911948E0,-9.915857315E0,-4.546362907E-2,1.295115203E-1,9.916807272E0
3.819335698E0,-9.884750366E0,-6.939185411E-2,1.223330572E-1,9.885750877E0
3.821759343E0,-9.903892517E0,-7.178468257E-2,1.510469317E-1,9.905304397E0
3.824182468E0,-9.891928673E0,-7.178468257E-2,1.223330572E-1,9.892945531E0
3.826606843E0,-9.889535904E0,-6.460621208E-2,1.390828192E-1,9.890724867E0
3.829030177E0,-9.901499748E0,-7.657032460E-2,1.295115203E-1,9.902642754E0
3.831453770E0,-9.903892517E0,-8.374879509E-2,1.414756328E-1,9.905256998E0
3.833877312E0,-9.877572060E0,-7.657032460E-2,1.366899908E-1,9.878814552E0
3.836301270E0,-9.882357597E0,-6.939185411E-2,1.175474152E-1,9.883300274E0
3.838725698E0,-9.887143135E0,-4.067798331E-2,1.319043487E-1,9.888106635E0
3.841150125E0,-9.908679008E0,-5.264209956E-2,1.390828192E-1,9.909794898E0
3.843573770E0,-9.899106979E0,-6.939185411E-2,1.366899908E-1,9.900293853E0
3.845997416E0,-9.879964828E0,-6.460621208E-2,1.342971772E-1,9.881088741E0
3.848421375E0,-9.889535904E0,-5.024927482E-2,1.055833027E-1,9.890227157E0
3.850845333E0,-9.918250084E0,-6.699903309E-2,1.223330572E-1,9.919230765E0
3.853269031E0,-9.877572060E0,-7.657032460E-2,1.247258782E-1,9.878656252E0
3.855692573E0,-9.906285286E0,-6.699903309E-2,1.438684613E-1,9.907556468E0
3.858116583E0,-9.889535904E0,-5.264209956E-2,1.438684613E-1,9.890722406E0
3.860540385E0,-9.899106979E0,-4.546362907E-2,1.462612897E-1,9.900291829E0
3.862964500E0,-9.879964828E0,-5.742774159E-2,1.223330572E-1,9.880889046E0
3.865388093E0,-9.884750366E0,-5.503492057E-2,1.247258782E-1,9.885690426E0
3.867811583E0,-9.887143135E0,-4.307080805E-2,1.414756328E-1,9.888249078E0
3.870235593E0,-9.901499748E0,-4.785645381E-2,1.199402362E-1,9.902341802E0
3.872658823E0,-9.882357597E0,-6.221338734E-2,1.342971772E-1,9.883465886E0
3.875082416E0,-9.911071777E0,-5.982056633E-2,1.271187067E-1,9.912067466E0
3.877506427E0,-9.908679008E0,-7.896314561E-2,1.295115203E-1,9.909839964E0
3.879929812E0,-9.894321442E0,-7.417750359E-2,1.414756328E-1,9.895610868E0
3.882353614E0,-9.918250084E0,-7.657032460E-2,1.366899908E-1,9.919487481E0
3.884777052E0,-9.906285286E0,-7.417750359E-2,1.366899908E-1,9.907505974E0
3.887201270E0,-9.901499748E0,-5.982056633E-2,1.223330572E-1,9.902436122E0
3.889625385E0,-9.920642853E0,-6.460621208E-2,1.366899908E-1,9.921794834E0
3.892049343E0,-9.903892517E0,-8.374879509E-2,1.199402362E-1,9.904972817E0
3.894473770E0,-9.896714211E0,-7.896314561E-2,1.319043487E-1,9.897908168E0
3.896897677E0,-9.891928673E0,-5.503492057E-2,1.223330572E-1,9.892838171E0
3.899321166E0,-9.915857315E0,-6.221338734E-2,1.462612897E-1,9.917131095E0
3.901744812E0,-9.908679008E0,-7.417750359E-2,1.390828192E-1,9.909932695E0
3.904169343E0,-9.911071777E0,-7.417750359E-2,1.271187067E-1,9.912164508E0
3.906592468E0,-9.889535904E0,-5.742774159E-2,1.390828192E-1,9.890680582E0
3.909015750E0,-9.868000984E0,-7.178468257E-2,1.319043487E-1,9.869143591E0
3.911439708E0,-9.896714211E0,-7.417750359E-2,1.366899908E-1,9.897936079E0
3.913863093E0,-9.901499748E0,-7.178468257E-2,1.342971772E-1,9.902670652E0
3.916286427E0,-9.906285286E0,-8.135596663E-2,1.366899908E-1,9.907562319E0
3.918710385E0,-9.889535904E0,-7.417750359E-2,1.271187067E-1,9.890631014E0
3.921134656E0,-9.903892517E0,-6.939185411E-2,1.414756328E-1,9.905146015E0
3.923557885E0,-9.918250084E0,-5.503492057E-2,1.462612897E-1,9.919481132E0
3.925980958E0,-9.894321442E0,-8.135596663E-2,1.247258782E-1,9.895441988E0
3.928404291E0,-9.911071777E0,-6.939185411E-2,1.271187067E-1,9.912129850E0
3.930827937E0,-9.901499748E0,-8.853443712E-2,1.366899908E-1,9.902838975E0
