"Time (s)","Acceleration x (m/s^2)","Acceleration y (m/s^2)","Acceleration z (m/s^2)","Absolute acceleration (m/s^2)"
2.301366100E-2,-9.792626381E0,-1.695913076E-1,-2.584248483E-1,9.797503562E0
2.550683800E-2,-9.806983948E0,-1.839482337E-1,-2.512463629E-1,9.811926204E0
2.800001500E-2,-9.821340561E0,-1.576271951E-1,-2.560320199E-1,9.825941641E0
3.049319200E-2,-9.811769485E0,-1.743769497E-1,-2.632105052E-1,9.816848146E0
3.298636900E-2,-9.821340561E0,-1.743769497E-1,-2.608176768E-1,9.826350472E0
3.547959800E-2,-9.816555023E0,-1.600200087E-1,-2.584248483E-1,9.821259712E0
3.797277500E-2,-9.818947792E0,-1.767697781E-1,-2.656033039E-1,9.824129906E0
4.046595200E-2,-9.799804688E0,-1.791625917E-1,-2.584248483E-1,9.804848523E0
4.295918100E-2,-9.792626381E0,-1.791625917E-1,-2.584248483E-1,9.797673911E0
4.545235800E-2,-9.811769485E0,-1.552343667E-1,-2.679961324E-1,9.816656257E0
4.794553600E-2,-9.821340561E0,-1.863410622E-1,-2.416750938E-1,9.826080615E0
5.043871300E-2,-9.792626381E0,-1.815554202E-1,-2.584248483E-1,9.797717959E0
5.293189000E-2,-9.799804688E0,-1.863410622E-1,-2.632105052E-1,9.805109621E0
5.542506700E-2,-9.816555023E0,-1.695913076E-1,-2.632105052E-1,9.821547409E0
5.791824400E-2,-9.814162254E0,-1.887338907E-1,-2.584248483E-1,9.819378017E0
6.041142100E-2,-9.818947792E0,-1.624128371E-1,-2.679961324E-1,9.823947048E0
6.290459800E-2,-9.792626381E0,-1.791625917E-1,-2.775674164E-1,9.798197505E0
6.539777500E-2,-9.811769485E0,-1.863410622E-1,-2.799602449E-1,9.817531317E0
6.789095200E-2,-9.818947792E0,-1.576271951E-1,-2.656033039E-1,9.823804110E0
7.038412900E-2,-9.833304405E0,-1.671984792E-1,-2.679961324E-1,9.838376532E0
7.287730600E-2,-9.816555023E0,-1.671984792E-1,-2.727817893E-1,9.821767548E0
7.537048300E-2,-9.773484230E0,-1.600200087E-1,-2.416750938E-1,9.777781305E0
7.786366100E-2,-9.811769485E0,-1.576271951E-1,-2.488535494E-1,9.816190445E0
8.035683800E-2,-9.806983948E0,-1.695913076E-1,-2.679961324E-1,9.812110746E0
8.285001500E-2,-9.814162254E0,-1.719841212E-1,-2.656033039E-1,9.819261907E0
8.534319200E-2,-9.795019150E0,-1.695913076E-1,-2.560320199E-1,9.799832333E0
8.783636900E-2,-9.804591179E0,-1.743769497E-1,-2.488535494E-1,9.809298833E0
9.032954600E-2,-9.814162254E0,-1.648056656E-1,-2.703889608E-1,9.819269415E0
9.282272300E-2,-9.811769485E0,-1.480558962E-1,-2.392822653E-1,9.815803431E0
9.531590000E-2,-9.806983948E0,-1.767697781E-1,-2.608176768E-1,9.812044006E0
9.780907700E-2,-9.804591179E0,-1.648056656E-1,-2.416750938E-1,9.808953866E0
1.003022540E-1,-9.816555023E0,-1.600200087E-1,-2.584248483E-1,9.821259712E0
1.027954310E-1,-9.802198410E0,-1.648056656E-1,-2.751746178E-1,9.807444909E0
1.052886080E-1,-9.818947792E0,-1.624128371E-1,-2.656033039E-1,9.823882063E0
1.077817860E-1,-9.802198410E0,-1.887338907E-1,-2.727817893E-1,9.807809340E0
1.102749630E-1,-9.811769485E0,-1.648056656E-1,-2.536391914E-1,9.816430827E0
1.127681400E-1,-9.806983948E0,-1.576271951E-1,-2.488535494E-1,9.811407064E0
1.152613170E-1,-9.823733330E0,-1.624128371E-1,-2.751746178E-1,9.828928504E0
1.177544940E-1,-9.795019150E0,-1.743769497E-1,-2.656033039E-1,9.800171049E0
1.202476710E-1,-9.818947792E0,-1.671984792E-1,-2.799602449E-1,9.824360988E0
1.227408480E-1,-9.823733330E0,-1.600200087E-1,-2.440679073E-1,9.828067566E0
1.252340250E-1,-9.826126099E0,-1.671984792E-1,-2.560320199E-1,9.830883065E0
1.277272020E-1,-9.809376717E0,-1.719841212E-1,-2.560320199E-1,9.814224498E0
1.302203790E-1,-9.790233612E0,-1.671984792E-1,-2.679961324E-1,9.795328041E0
1.326988170E-1,-9.814162254E0,-1.719841212E-1,-2.632105052E-1,9.819197475E0
1.351438170E-1,-9.816555023E0,-1.815554202E-1,-2.560320199E-1,9.821571528E0
1.375871500E-1,-9.818947792E0,-1.911267042E-1,-2.727817893E-1,9.824595415E0
1.400313690E-1,-9.814162254E0,-1.624128371E-1,-2.536391914E-1,9.818782589E0
1.424764210E-1,-9.802198410E0,-1.839482337E-1,-2.608176768E-1,9.807392950E0
1.449197540E-1,-9.818947792E0,-1.743769497E-1,-2.775674164E-1,9.824417883E0
1.473639210E-1,-9.804591179E0,-1.576271951E-1,-2.632105052E-1,9.809390108E0
1.498081400E-1,-9.811769485E0,-1.767697781E-1,-2.727817893E-1,9.817152229E0
1.522523580E-1,-9.818947792E0,-1.839482337E-1,-2.847459018E-1,9.824797857E0
1.546973580E-1,-9.802198410E0,-1.719841212E-1,-2.632105052E-1,9.807239774E0
1.571407440E-1,-9.835697174E0,-1.743769497E-1,-2.679961324E-1,9.840892650E0
1.595849110E-1,-9.818947792E0,-1.695913076E-1,-2.775674164E-1,9.824334106E0
1.620299630E-1,-9.811769485E0,-1.719841212E-1,-2.751746178E-1,9.817134004E0
1.644732960E-1,-9.809376717E0,-1.887338907E-1,-2.656033039E-1,9.814786659E0
1.669175150E-1,-9.809376717E0,-1.767697781E-1,-2.656033039E-1,9.814563884E0
1.693616810E-1,-9.811769485E0,-1.648056656E-1,-2.584248483E-1,9.816555646E0
1.718059000E-1,-9.804591179E0,-1.695913076E-1,-2.679961324E-1,9.809719228E0
1.742509520E-1,-9.804591179E0,-1.695913076E-1,-2.727817893E-1,9.809851136E0
1.766942860E-1,-9.842875481E0,-1.719841212E-1,-2.679961324E-1,9.848025091E0
1.791385040E-1,-9.802198410E0,-1.671984792E-1,-2.679961324E-1,9.807286624E0
1.815835040E-1,-9.804591179E0,-1.576271951E-1,-2.656033039E-1,9.809454604E0
1.840268900E-1,-9.811769485E0,-1.743769497E-1,-2.847459018E-1,9.817449159E0
1.864710560E-1,-9.795019150E0,-1.695913076E-1,-2.679961324E-1,9.800152207E0
1.889152750E-1,-9.790233612E0,-1.528415531E-1,-2.656033039E-1,9.795028322E0
1.913594420E-1,-9.806983948E0,-1.624128371E-1,-2.560320199E-1,9.811669811E0
1.938044940E-1,-9.809376717E0,-1.624128371E-1,-2.584248483E-1,9.814124154E0
1.962478270E-1,-9.802198410E0,-1.767697781E-1,-2.656033039E-1,9.807389374E0
1.986920460E-1,-9.814162254E0,-1.767697781E-1,-2.679961324E-1,9.819411909E0
2.011370980E-1,-9.816555023E0,-1.600200087E-1,-2.632105052E-1,9.821386801E0
2.035804310E-1,-9.802198410E0,-1.767697781E-1,-2.775674164E-1,9.807720678E0
2.060246500E-1,-9.816555023E0,-1.624128371E-1,-2.967100143E-1,9.822380938E0
2.084688170E-1,-9.811769485E0,-1.695913076E-1,-2.775674164E-1,9.817159738E0
2.109130360E-1,-9.811769485E0,-1.767697781E-1,-2.775674164E-1,9.817286370E0
2.133580880E-1,-9.802198410E0,-1.863410622E-1,-2.632105052E-1,9.807502048E0
2.158014210E-1,-9.818947792E0,-1.815554202E-1,-2.703889608E-1,9.824347729E0
2.182455880E-1,-9.811769485E0,-1.767697781E-1,-2.775674164E-1,9.817286370E0
2.206906400E-1,-9.792626381E0,-1.863410622E-1,-2.608176768E-1,9.797871212E0
2.231340250E-1,-9.804591179E0,-1.719841212E-1,-2.679961324E-1,9.809760886E0
2.255781920E-1,-9.809376717E0,-1.552343667E-1,-2.799602449E-1,9.814598668E0
2.280224110E-1,-9.806983948E0,-1.743769497E-1,-2.775674164E-1,9.812460708E0
2.304665770E-1,-9.814162254E0,-1.671984792E-1,-2.751746178E-1,9.819442813E0
2.329116290E-1,-9.814162254E0,-1.624128371E-1,-2.751746178E-1,9.819362492E0
2.353549630E-1,-9.804591179E0,-1.767697781E-1,-2.703889608E-1,9.809911617E0
2.377991810E-1,-9.816555023E0,-1.695913076E-1,-2.847459018E-1,9.822148134E0
2.402442330E-1,-9.802198410E0,-1.743769497E-1,-2.847459018E-1,9.807883626E0
2.426875670E-1,-9.806983948E0,-1.695913076E-1,-2.656033039E-1,9.812045683E0
2.451317330E-1,-9.814162254E0,-1.863410622E-1,-2.775674164E-1,9.819854755E0
2.475759520E-1,-9.818947792E0,-1.719841212E-1,-2.943171859E-1,9.824863199E0
2.500201710E-1,-9.816555023E0,-1.767697781E-1,-2.823530734E-1,9.822205625E0
2.524651710E-1,-9.816555023E0,-1.863410622E-1,-2.703889608E-1,9.822045902E0
2.549085560E-1,-9.814162254E0,-1.600200087E-1,-2.895315289E-1,9.819736028E0
2.573527230E-1,-9.804591179E0,-1.695913076E-1,-2.703889608E-1,9.809784890E0
2.597977750E-1,-9.795019150E0,-1.504487246E-1,-2.895315289E-1,9.800452207E0
2.622411080E-1,-9.814162254E0,-1.671984792E-1,-2.823530734E-1,9.819646600E0
2.646853270E-1,-9.802198410E0,-1.815554202E-1,-2.727817893E-1,9.807673829E0
2.671294940E-1,-9.823733330E0,-1.791625917E-1,-2.967100143E-1,9.829846011E0
2.695737130E-1,-9.802198410E0,-1.839482337E-1,-2.751746178E-1,9.807785259E0
2.720187650E-1,-9.802198410E0,-1.911267042E-1,-2.751746178E-1,9.807922520E0
2.744620980E-1,-9.816555023E0,-1.695913076E-1,-3.014956415E-1,9.822647981E0
2.769063170E-1,-9.821340561E0,-1.719841212E-1,-2.871387303E-1,9.827042159E0
2.793513170E-1,-9.816555023E0,-1.671984792E-1,-2.919243574E-1,9.822317837E0
2.817947020E-1,-9.821340561E0,-1.743769497E-1,-2.943171859E-1,9.827296695E0
2.842388690E-1,-9.802198410E0,-1.671984792E-1,-2.919243574E-1,9.807969659E0
2.866830880E-1,-9.818947792E0,-1.719841212E-1,-2.656033039E-1,9.824044961E0
2.891272540E-1,-9.814162254E0,-1.624128371E-1,-2.751746178E-1,9.819362492E0
2.915723060E-1,-9.816555023E0,-1.624128371E-1,-2.871387303E-1,9.822096472E0
2.940156400E-1,-9.826126099E0,-1.791625917E-1,-3.062812984E-1,9.832530782E0
2.964598580E-1,-9.816555023E0,-1.600200087E-1,-2.823530734E-1,9.821918457E0
2.989049110E-1,-9.806983948E0,-1.648056656E-1,-3.038884699E-1,9.813075117E0
3.013482440E-1,-9.790233612E0,-1.600200087E-1,-2.727817893E-1,9.795340244E0
3.037924630E-1,-9.811769485E0,-1.624128371E-1,-2.943171859E-1,9.817526214E0
3.062366290E-1,-9.795019150E0,-1.719841212E-1,-2.823530734E-1,9.800597020E0
3.086808480E-1,-9.816555023E0,-1.648056656E-1,-2.679961324E-1,9.821595357E0
3.111259000E-1,-9.816555023E0,-1.743769497E-1,-2.632105052E-1,9.821631209E0
3.135692330E-1,-9.806983948E0,-1.743769497E-1,-2.751746178E-1,9.812393314E0
3.160134520E-1,-9.821340561E0,-1.624128371E-1,-2.679961324E-1,9.826338599E0
3.184584520E-1,-9.795019150E0,-1.624128371E-1,-2.871387303E-1,9.800572775E0
3.209018380E-1,-9.816555023E0,-1.648056656E-1,-2.632105052E-1,9.821465940E0
3.233460040E-1,-9.809376717E0,-1.648056656E-1,-2.656033039E-1,9.814355689E0
3.257902230E-1,-9.814162254E0,-1.695913076E-1,-2.656033039E-1,9.819220289E0
3.282343900E-1,-9.780662537E0,-1.815554202E-1,-2.703889608E-1,9.786083599E0
3.306794420E-1,-9.826126099E0,-1.719841212E-1,-2.751746178E-1,9.831482783E0
3.331227750E-1,-9.795019150E0,-1.743769497E-1,-2.727817893E-1,9.800368226E0
3.355669940E-1,-9.806983948E0,-1.648056656E-1,-2.871387303E-1,9.812570698E0
3.380120460E-1,-9.799804688E0,-1.624128371E-1,-2.775674164E-1,9.805079985E0
3.404553790E-1,-9.811769485E0,-1.600200087E-1,-2.823530734E-1,9.817135534E0
3.428995980E-1,-9.792626381E0,-1.552343667E-1,-2.751746178E-1,9.797721685E0
3.453437650E-1,-9.804591179E0,-1.671984792E-1,-2.656033039E-1,9.809613072E0
3.477879830E-1,-9.809376717E0,-1.719841212E-1,-2.991028428E-1,9.815442558E0
3.502330360E-1,-9.838089943E0,-1.695913076E-1,-3.014956415E-1,9.844169572E0
3.526763690E-1,-9.826126099E0,-1.839482337E-1,-2.919243574E-1,9.832182407E0
3.551205360E-1,-9.809376717E0,-1.576271951E-1,-2.799602449E-1,9.814636806E0
3.575655880E-1,-9.778269768E0,-1.600200087E-1,-2.584248483E-1,9.782992868E0
3.600089730E-1,-9.792626381E0,-1.600200087E-1,-2.823530734E-1,9.798002914E0
3.624531400E-1,-9.835697174E0,-1.600200087E-1,-2.656033039E-1,9.840583845E0
3.648973580E-1,-9.840482712E0,-1.719841212E-1,-2.895315289E-1,9.846243296E0
3.673415250E-1,-9.790233612E0,-1.839482337E-1,-2.847459018E-1,9.796100824E0
3.697865770E-1,-9.778269768E0,-1.743769497E-1,-2.847459018E-1,9.783968888E0
3.722299110E-1,-9.821340561E0,-1.743769497E-1,-2.823530734E-1,9.826945659E0
3.746741290E-1,-9.780662537E0,-1.767697781E-1,-2.847459018E-1,9.786403192E0
3.771191810E-1,-9.780662537E0,-1.791625917E-1,-2.943171859E-1,9.786729867E0
3.795625150E-1,-9.823733330E0,-1.576271951E-1,-2.703889608E-1,9.828717773E0
3.820066810E-1,-9.833304405E0,-1.695913076E-1,-2.727817893E-1,9.838549011E0
3.844509000E-1,-9.790233612E0,-1.743769497E-1,-2.847459018E-1,9.795925772E0
3.868951190E-1,-9.773484230E0,-1.528415531E-1,-2.632105052E-1,9.778222451E0
3.893401190E-1,-9.811769485E0,-1.815554202E-1,-2.751746178E-1,9.817306345E0
3.917835040E-1,-9.780662537E0,-1.983051747E-1,-2.799602449E-1,9.786677799E0
3.942276710E-1,-9.802198410E0,-1.671984792E-1,-2.943171859E-1,9.808041171E0
3.966727230E-1,-9.840482712E0,-1.381855011E-1,-2.847459018E-1,9.845571363E0
3.991160560E-1,-9.840482712E0,-1.695913076E-1,-2.967100143E-1,9.846415492E0
4.015602750E-1,-9.811769485E0,-1.983051747E-1,-3.182454109E-1,9.818931995E0
4.040044940E-1,-9.775876999E0,-1.887338907E-1,-2.608176768E-1,9.781176690E0
4.064486610E-1,-9.814162254E0,-1.624128371E-1,-2.775674164E-1,9.819429839E0
4.088937130E-1,-9.797411919E0,-1.719841212E-1,-2.775674164E-1,9.802851754E0
4.113370460E-1,-9.828518867E0,-1.504487246E-1,-2.703889608E-1,9.833388436E0
4.137812650E-1,-9.845269203E0,-1.767697781E-1,-2.560320199E-1,9.850184041E0
4.162263170E-1,-9.835697174E0,-1.839482337E-1,-2.608176768E-1,9.840874032E0
4.186696500E-1,-9.797411919E0,-1.767697781E-1,-2.871387303E-1,9.803212561E0
4.211138170E-1,-9.763913155E0,-1.648056656E-1,-2.799602449E-1,9.769316186E0
4.235580360E-1,-9.811769485E0,-1.381855011E-1,-2.440679073E-1,9.815777341E0
4.260022540E-1,-9.852447510E0,-1.959123611E-1,-3.062812984E-1,9.859153707E0
4.284472540E-1,-9.785448074E0,-1.959123611E-1,-2.608176768E-1,9.790883593E0
4.308906400E-1,-9.830911636E0,-1.552343667E-1,-2.895315289E-1,9.836399230E0
4.333348060E-1,-9.826126099E0,-1.600200087E-1,-2.464607358E-1,9.830518979E0
4.357798580E-1,-9.759127617E0,-1.648056656E-1,-2.919243574E-1,9.764883644E0
4.382231920E-1,-9.795019150E0,-1.719841212E-1,-2.799602449E-1,9.800528375E0
4.406674110E-1,-9.790233612E0,-1.983051747E-1,-2.703889608E-1,9.795974138E0
4.431116290E-1,-9.826126099E0,-1.695913076E-1,-2.584248483E-1,9.830986661E0
4.455557960E-1,-9.826126099E0,-1.815554202E-1,-3.038884699E-1,9.832500429E0
4.480008480E-1,-9.780662537E0,-1.743769497E-1,-2.632105052E-1,9.785757341E0
4.504441810E-1,-9.814162254E0,-1.552343667E-1,-2.799602449E-1,9.819381661E0
4.528884000E-1,-9.854840279E0,-1.839482337E-1,-2.608176768E-1,9.860007086E0
4.553334520E-1,-9.799804688E0,-1.719841212E-1,-2.775674164E-1,9.805243195E0
4.577767860E-1,-9.783055305E0,-1.767697781E-1,-2.919243574E-1,9.789006001E0
4.602209520E-1,-9.809376717E0,-1.648056656E-1,-2.967100143E-1,9.815246778E0
4.626651710E-1,-9.759127617E0,-2.006980032E-1,-2.679961324E-1,9.764869352E0
4.651093900E-1,-9.823733330E0,-1.286142170E-1,-3.158525825E-1,9.829651113E0
4.675543900E-1,-9.759127617E0,-1.935195327E-1,-2.703889608E-1,9.764790415E0
4.699977750E-1,-9.921838760E0,-1.381855011E-1,-2.751746178E-1,9.926615772E0
4.724419420E-1,-9.802198410E0,-2.246262282E-1,-2.967100143E-1,9.809260290E0
4.748869940E-1,-9.672985077E0,-1.695913076E-1,-2.871387303E-1,9.678731847E0
4.773303270E-1,-9.847661972E0,-1.453639716E-1,-2.871387303E-1,9.852919651E0
4.797745460E-1,-9.876375198E0,-2.054836452E-1,-2.751746178E-1,9.882344441E0
4.822187130E-1,-9.775876999E0,-1.600200087E-1,-3.014956415E-1,9.781834037E0
4.846629310E-1,-9.811769485E0,-1.528415531E-1,-2.656033039E-1,9.816553677E0
4.871079830E-1,-9.799804688E0,-1.767697781E-1,-2.991028428E-1,9.805961553E0
4.895513170E-1,-9.756733894E0,-1.815554202E-1,-2.919243574E-1,9.762788459E0
4.919955360E-1,-9.780662537E0,-1.695913076E-1,-2.560320199E-1,9.785482781E0
4.944405880E-1,-9.806983948E0,-1.719841212E-1,-2.679961324E-1,9.812152395E0
4.968839210E-1,-9.852447510E0,-1.453639716E-1,-2.679961324E-1,9.857163616E0
4.993280880E-1,-9.802198410E0,-1.504487246E-1,-2.967100143E-1,9.807842032E0
5.017723060E-1,-9.775876999E0,-1.743769497E-1,-3.014956415E-1,9.782079433E0
5.042165250E-1,-9.780662537E0,-1.671984792E-1,-2.727817893E-1,9.785894179E0
5.066615250E-1,-9.826126099E0,-1.719841212E-1,-2.656033039E-1,9.831219546E0
5.091049110E-1,-9.797411919E0,-1.600200087E-1,-2.751746178E-1,9.802581689E0
5.115490770E-1,-9.787840843E0,-1.839482337E-1,-3.086741269E-1,9.794434391E0
5.139941290E-1,-9.761520386E0,-1.839482337E-1,-2.943171859E-1,9.767688560E0
5.164375150E-1,-9.828518867E0,-1.429711580E-1,-2.919243574E-1,9.833892602E0
5.188816810E-1,-9.833304405E0,-1.671984792E-1,-2.584248483E-1,9.838120464E0
5.213259000E-1,-9.806983948E0,-1.719841212E-1,-2.703889608E-1,9.812218041E0
5.237700670E-1,-9.783055305E0,-1.648056656E-1,-2.871387303E-1,9.788655713E0
5.262151190E-1,-9.804591179E0,-1.552343667E-1,-3.110669553E-1,9.810752700E0
5.286584520E-1,-9.830911636E0,-1.648056656E-1,-2.775674164E-1,9.836210052E0
5.311026710E-1,-9.864411354E0,-1.671984792E-1,-2.632105052E-1,9.869338704E0
5.335477230E-1,-9.826126099E0,-1.648056656E-1,-2.799602449E-1,9.831494940E0
5.359910560E-1,-9.754341125E0,-1.624128371E-1,-2.727817893E-1,9.759506065E0
5.384352230E-1,-9.771091461E0,-1.887338907E-1,-2.919243574E-1,9.777273068E0
5.408794420E-1,-9.802198410E0,-1.791625917E-1,-2.823530734E-1,9.807900701E0
5.433236610E-1,-9.818947792E0,-1.791625917E-1,-2.679961324E-1,9.824238235E0
5.457687130E-1,-9.830911636E0,-1.600200087E-1,-2.727817893E-1,9.835997149E0
5.482120460E-1,-9.888339996E0,-1.453639716E-1,-2.799602449E-1,9.893370321E0
5.506562130E-1,-9.763913155E0,-1.576271951E-1,-2.895315289E-1,9.769476697E0
5.531012650E-1,-9.689735413E0,-1.528415531E-1,-2.799602449E-1,9.694983788E0
5.555446500E-1,-9.847661972E0,-1.600200087E-1,-2.536391914E-1,9.852227441E0
5.579888170E-1,-9.943374634E0,-2.054836452E-1,-2.703889608E-1,9.949172469E0
5.604330360E-1,-9.818947792E0,-1.671984792E-1,-3.086741269E-1,9.825221157E0
5.628772020E-1,-9.747162819E0,-1.600200087E-1,-3.158525825E-1,9.753591763E0
5.653222540E-1,-9.806983948E0,-1.504487246E-1,-3.014956415E-1,9.812770689E0
5.677655880E-1,-9.802198410E0,-1.863410622E-1,-2.584248483E-1,9.807374779E0
5.702098060E-1,-9.732806206E0,-1.600200087E-1,-1.986042857E-1,9.736147426E0
5.726548580E-1,-9.840482712E0,-1.695913076E-1,-2.249253243E-1,9.844513833E0
5.750981920E-1,-9.950552940E0,-1.576271951E-1,-3.445664644E-1,9.957764619E0
5.775424110E-1,-9.826126099E0,-1.671984792E-1,-3.661018610E-1,9.834365257E0
5.799865770E-1,-9.687342644E0,-1.648056656E-1,-3.302095234E-1,9.694369847E0
5.824307960E-1,-9.797411919E0,-1.815554202E-1,-2.153540403E-1,9.801460097E0
5.848758480E-1,-9.866804123E0,-1.791625917E-1,-1.842473447E-1,9.870150451E0
5.873191810E-1,-9.828518867E0,-1.576271951E-1,-2.727817893E-1,9.833566971E0
5.897634000E-1,-9.799804688E0,-1.648056656E-1,-3.397808075E-1,9.807078251E0
5.922084000E-1,-9.840482712E0,-1.648056656E-1,-3.684946895E-1,9.848758767E0
5.946517860E-1,-9.828518867E0,-1.863410622E-1,-2.847459018E-1,9.834408287E0
5.970959520E-1,-9.811769485E0,-1.648056656E-1,-1.842473447E-1,9.814883006E0
5.995401710E-1,-9.804591179E0,-1.576271951E-1,-2.057827413E-1,9.808017183E0
6.019843380E-1,-9.806983948E0,-1.648056656E-1,-3.086741269E-1,9.813224484E0
6.044293900E-1,-9.763913155E0,-1.719841212E-1,-3.804588020E-1,9.772836207E0
6.068727750E-1,-9.759127617E0,-1.552343667E-1,-3.302095234E-1,9.765946338E0
6.093169420E-1,-9.888339996E0,-1.671984792E-1,-2.153540403E-1,9.892097886E0
6.117619940E-1,-9.871589661E0,-1.935195327E-1,-2.009970993E-1,9.875531989E0
6.142053270E-1,-9.792626381E0,-1.815554202E-1,-2.919243574E-1,9.798658767E0
6.166495460E-1,-9.790233612E0,-1.887338907E-1,-3.541377485E-1,9.798454378E0
6.190937130E-1,-9.761520386E0,-1.791625917E-1,-3.589234054E-1,9.769759746E0
6.215379310E-1,-9.766305923E0,-1.381855011E-1,-2.392822653E-1,9.770214052E0
6.239829830E-1,-9.862018585E0,-1.791625917E-1,-1.746760458E-1,9.865192422E0
6.264263170E-1,-9.878767967E0,-1.839482337E-1,-2.297109663E-1,9.883150339E0
6.288705360E-1,-9.823733330E0,-1.767697781E-1,-3.613162339E-1,9.831964886E0
6.313155880E-1,-9.737591743E0,-1.333998591E-1,-3.637090325E-1,9.745294903E0
6.337589210E-1,-9.763913155E0,-1.453639716E-1,-2.799602449E-1,9.769007550E0
6.362030880E-1,-9.850054741E0,-1.719841212E-1,-1.579262912E-1,9.852821812E0
6.386473060E-1,-9.826126099E0,-1.911267042E-1,-2.009970993E-1,9.830039845E0
6.410915250E-1,-9.802198410E0,-1.791625917E-1,-3.062812984E-1,9.808618717E0
6.435365250E-1,-9.854840279E0,-1.887338907E-1,-3.948157430E-1,9.864551529E0
6.459799110E-1,-9.775876999E0,-1.453639716E-1,-3.278166950E-1,9.782451920E0
6.484240770E-1,-9.814162254E0,-1.719841212E-1,-2.033899277E-1,9.817776060E0
6.508691290E-1,-9.804591179E0,-1.791625917E-1,-1.531406492E-1,9.807423692E0
6.533124630E-1,-9.739984512E0,-1.504487246E-1,-2.464607358E-1,9.744263749E0
6.557566810E-1,-9.854840279E0,-1.648056656E-1,-3.613162339E-1,9.862838701E0
6.582009000E-1,-9.902696609E0,-1.552343667E-1,-3.804588020E-1,9.911218227E0
6.606450670E-1,-9.773484230E0,-1.624128371E-1,-2.751746178E-1,9.778706100E0
6.630901190E-1,-9.775876999E0,-1.767697781E-1,-2.057827413E-1,9.779640340E0
6.655334520E-1,-9.809376717E0,-1.839482337E-1,-2.249253243E-1,9.813679225E0
6.679776710E-1,-9.804591179E0,-1.743769497E-1,-3.110669553E-1,9.811074261E0
6.704227230E-1,-9.792626381E0,-1.767697781E-1,-3.445664644E-1,9.800280865E0
6.728660560E-1,-9.828518867E0,-1.791625917E-1,-3.038884699E-1,9.834847765E0
6.753102750E-1,-9.797411919E0,-1.671984792E-1,-2.321037948E-1,9.801587004E0
6.777544420E-1,-9.814162254E0,-1.576271951E-1,-2.416750938E-1,9.818402820E0
6.801986610E-1,-9.795019150E0,-1.743769497E-1,-2.799602449E-1,9.800570657E0
6.826437130E-1,-9.830911636E0,-2.006980032E-1,-3.445664644E-1,9.838995342E0
6.850870460E-1,-9.821340561E0,-1.887338907E-1,-3.038884699E-1,9.827853229E0
6.875312650E-1,-9.787840843E0,-1.480558962E-1,-2.368894368E-1,9.791826465E0
6.899762650E-1,-9.809376717E0,-1.576271951E-1,-2.297109663E-1,9.813332004E0
6.924196500E-1,-9.842875481E0,-1.863410622E-1,-2.464607358E-1,9.847723778E0
6.948638170E-1,-9.826126099E0,-1.743769497E-1,-3.421736360E-1,9.833628233E0
6.973080360E-1,-9.806983948E0,-1.935195327E-1,-3.134597540E-1,9.813900396E0
6.997522020E-1,-9.795019150E0,-1.767697781E-1,-2.632105052E-1,9.800149360E0
7.021972540E-1,-9.778269768E0,-1.528415531E-1,-2.464607358E-1,9.782569350E0
7.046406400E-1,-9.780662537E0,-1.648056656E-1,-2.919243574E-1,9.786405898E0
7.070848060E-1,-9.823733330E0,-1.405783296E-1,-2.967100143E-1,9.829218465E0
7.095298580E-1,-9.842875481E0,-1.815554202E-1,-3.014956415E-1,9.849165433E0
7.119731920E-1,-9.838089943E0,-1.839482337E-1,-2.775674164E-1,9.843723602E0
7.144174110E-1,-9.823733330E0,-1.743769497E-1,-2.584248483E-1,9.828678815E0
7.168615770E-1,-9.773484230E0,-1.504487246E-1,-2.632105052E-1,9.778185342E0
7.193057960E-1,-9.759127617E0,-1.743769497E-1,-2.919243574E-1,9.765049872E0
7.217508480E-1,-9.797411919E0,-1.743769497E-1,-2.847459018E-1,9.803099910E0
7.241941810E-1,-9.857233047E0,-1.911267042E-1,-2.584248483E-1,9.862472113E0
7.266384000E-1,-9.881160736E0,-1.959123611E-1,-2.679961324E-1,9.886735613E0
7.290834520E-1,-9.804591179E0,-1.600200087E-1,-2.967100143E-1,9.810384876E0
7.315267860E-1,-9.725627899E0,-1.576271951E-1,-2.895315289E-1,9.731213330E0
7.339710040E-1,-9.754341125E0,-1.863410622E-1,-2.656033039E-1,9.759735596E0
7.364151710E-1,-9.826126099E0,-1.576271951E-1,-2.201396823E-1,9.829855641E0
7.388593900E-1,-9.919445992E0,-1.767697781E-1,-2.321037948E-1,9.923735612E0
7.413044420E-1,-9.835697174E0,-1.671984792E-1,-2.991028428E-1,9.841664328E0
7.437477750E-1,-9.773484230E0,-1.552343667E-1,-3.302095234E-1,9.780292942E0
7.461919420E-1,-9.763913155E0,-1.480558962E-1,-2.943171859E-1,9.769469957E0
7.486369940E-1,-9.821340561E0,-2.030908167E-1,-2.368894368E-1,9.826295991E0
7.510803790E-1,-9.852447510E0,-1.767697781E-1,-2.249253243E-1,9.856599864E0
7.535245460E-1,-9.799804688E0,-1.357926875E-1,-2.847459018E-1,9.804881019E0
7.559687650E-1,-9.828518867E0,-1.767697781E-1,-3.373879790E-1,9.835896570E0
7.584129310E-1,-9.833304405E0,-1.576271951E-1,-3.613162339E-1,9.841202735E0
7.608579830E-1,-9.823733330E0,-1.576271951E-1,-2.632105052E-1,9.828522912E0
7.633013690E-1,-9.792626381E0,-1.552343667E-1,-1.794617027E-1,9.795500786E0
7.657455360E-1,-9.795019150E0,-1.815554202E-1,-2.201396823E-1,9.799174659E0
7.681905880E-1,-9.804591179E0,-1.791625917E-1,-3.086741269E-1,9.811084911E0
7.706339210E-1,-9.823733330E0,-1.576271951E-1,-3.517449200E-1,9.831292253E0
7.730781400E-1,-9.806983948E0,-1.624128371E-1,-3.062812984E-1,9.813109615E0
7.755223580E-1,-9.799804688E0,-1.743769497E-1,-2.321037948E-1,9.804103804E0
7.779665250E-1,-9.823733330E0,-1.815554202E-1,-1.866401732E-1,9.827183394E0
7.804115770E-1,-9.840482712E0,-1.695913076E-1,-2.871387303E-1,9.846131721E0
7.828549110E-1,-9.804591179E0,-1.624128371E-1,-3.565305769E-1,9.812415613E0
7.852991290E-1,-9.806983948E0,-1.887338907E-1,-3.469592929E-1,9.814934304E0
7.877441810E-1,-9.785448074E0,-1.648056656E-1,-2.321037948E-1,9.789587688E0
7.901875150E-1,-9.792626381E0,-1.719841212E-1,-2.177468538E-1,9.796556725E0
7.926317330E-1,-9.826126099E0,-1.791625917E-1,-2.656033039E-1,9.831347744E0
7.950759000E-1,-9.852447510E0,-1.576271951E-1,-3.373879790E-1,9.859482690E0
7.975201190E-1,-9.818947792E0,-1.600200087E-1,-3.062812984E-1,9.825026737E0
7.999651710E-1,-9.763913155E0,-1.648056656E-1,-2.751746178E-1,9.769180215E0
8.024085040E-1,-9.799804688E0,-1.743769497E-1,-2.392822653E-1,9.804276375E0
8.048527230E-1,-9.838089943E0,-1.528415531E-1,-2.416750938E-1,9.842244719E0
8.072977230E-1,-9.850054741E0,-1.743769497E-1,-3.134597540E-1,9.856583725E0
8.097411080E-1,-9.821340561E0,-1.887338907E-1,-3.062812984E-1,9.827927509E0
8.121852750E-1,-9.780662537E0,-1.453639716E-1,-2.919243574E-1,9.786097801E0
8.146294940E-1,-9.706484795E0,-1.767697781E-1,-2.057827413E-1,9.710275030E0
8.170737130E-1,-9.845269203E0,-1.887338907E-1,-2.488535494E-1,9.850222041E0
8.195187130E-1,-9.878767967E0,-1.791625917E-1,-2.703889608E-1,9.884091560E0
8.219620980E-1,-9.814162254E0,-1.142572835E-1,-2.895315289E-1,9.819096903E0
8.244062650E-1,-9.840482712E0,-1.743769497E-1,-2.871387303E-1,9.846215312E0
8.268513170E-1,-9.933803558E0,-2.054836452E-1,-2.751746178E-1,9.939738313E0
8.292946500E-1,-9.809376717E0,-1.815554202E-1,-2.656033039E-1,9.814651245E0
8.317388690E-1,-9.649057388E0,-1.719841212E-1,-2.536391914E-1,9.653922512E0
8.341830880E-1,-9.737591743E0,-1.911267042E-1,-2.799602449E-1,9.743490141E0
8.366272540E-1,-9.857233047E0,-1.429711580E-1,-2.943171859E-1,9.862662253E0
8.390723060E-1,-9.912267685E0,-1.624128371E-1,-2.703889608E-1,9.917284849E0
8.415156400E-1,-9.864411354E0,-1.624128371E-1,-2.536391914E-1,9.869008164E0
8.439598580E-1,-9.842875481E0,-1.911267042E-1,-2.799602449E-1,9.848710823E0
8.464049110E-1,-9.766305923E0,-1.743769497E-1,-3.110669553E-1,9.772814403E0
8.488482440E-1,-9.720842361E0,-1.600200087E-1,-2.895315289E-1,9.726469613E0
8.512924630E-1,-9.749555588E0,-1.624128371E-1,-2.440679073E-1,9.753962335E0
8.537366290E-1,-9.854840279E0,-1.648056656E-1,-2.488535494E-1,9.859359305E0
8.561808480E-1,-9.933803558E0,-1.863410622E-1,-2.751746178E-1,9.939361005E0
8.586259000E-1,-9.821340561E0,-1.504487246E-1,-3.254238665E-1,9.827882067E0
8.610692330E-1,-9.759127617E0,-1.429711580E-1,-3.254238665E-1,9.765598460E0
8.635134520E-1,-9.847661972E0,-1.600200087E-1,-2.823530734E-1,9.853008473E0
8.659585040E-1,-9.783055305E0,-1.863410622E-1,-1.746760458E-1,9.786388804E0
8.684018380E-1,-9.701699257E0,-1.504487246E-1,-2.249253243E-1,9.705472409E0
8.708460040E-1,-9.795019150E0,-1.624128371E-1,-2.967100143E-1,9.800857866E0
8.732902230E-1,-9.900303841E0,-1.528415531E-1,-3.469592929E-1,9.907560619E0
8.757344420E-1,-9.830911636E0,-1.528415531E-1,-3.014956415E-1,9.836721190E0
8.781794940E-1,-9.754341125E0,-1.695913076E-1,-2.464607358E-1,9.758927958E0
8.806228270E-1,-9.792626381E0,-1.648056656E-1,-2.225325108E-1,9.796540872E0
8.830669940E-1,-9.797411919E0,-1.695913076E-1,-2.871387303E-1,9.803085747E0
8.855120460E-1,-9.792626381E0,-1.839482337E-1,-3.158525825E-1,9.799445456E0
8.879554310E-1,-9.847661972E0,-1.648056656E-1,-3.014956415E-1,9.853654492E0
8.903995980E-1,-9.826126099E0,-1.528415531E-1,-2.703889608E-1,9.831033762E0
8.928438170E-1,-9.835697174E0,-1.983051747E-1,-2.512463629E-1,9.840903850E0
8.952879830E-1,-9.821340561E0,-1.648056656E-1,-2.847459018E-1,9.826849523E0
8.977330360E-1,-9.787840843E0,-1.671984792E-1,-3.038884699E-1,9.793984475E0
9.001764210E-1,-9.773484230E0,-1.552343667E-1,-2.823530734E-1,9.778794147E0
9.026205880E-1,-9.802198410E0,-1.552343667E-1,-2.464607358E-1,9.806525087E0
9.050656400E-1,-9.811769485E0,-1.863410622E-1,-2.344966233E-1,9.816340056E0
9.075089730E-1,-9.862018585E0,-1.815554202E-1,-2.679961324E-1,9.867329673E0
9.099531920E-1,-9.845269203E0,-1.528415531E-1,-2.895315289E-1,9.850711382E0
9.123974110E-1,-9.795019150E0,-1.286142170E-1,-3.206382394E-1,9.801109664E0
9.148415770E-1,-9.768698692E0,-1.839482337E-1,-2.751746178E-1,9.774304690E0
9.172866290E-1,-9.732806206E0,-1.887338907E-1,-2.488535494E-1,9.737816244E0
9.197299630E-1,-9.809376717E0,-1.767697781E-1,-2.584248483E-1,9.814372243E0
9.221741810E-1,-9.878767967E0,-1.552343667E-1,-2.703889608E-1,9.883686784E0
9.246192330E-1,-9.857233047E0,-1.648056656E-1,-2.967100143E-1,9.863074627E0
9.270625670E-1,-9.783055305E0,-1.719841212E-1,-2.919243574E-1,9.788920751E0
9.295067860E-1,-9.759127617E0,-1.695913076E-1,-2.847459018E-1,9.764753621E0
9.319509520E-1,-9.809376717E0,-1.815554202E-1,-2.201396823E-1,9.813526146E0
9.343951710E-1,-9.842875481E0,-1.695913076E-1,-2.656033039E-1,9.847918768E0
9.368402230E-1,-9.768698692E0,-1.504487246E-1,-2.679961324E-1,9.773532160E0
9.392835560E-1,-9.821340561E0,-1.648056656E-1,-3.014956415E-1,9.827349131E0
9.417277750E-1,-9.850054741E0,-1.791625917E-1,-2.823530734E-1,9.855729343E0
9.441727750E-1,-9.787840843E0,-1.648056656E-1,-2.727817893E-1,9.793028091E0
9.466161610E-1,-9.802198410E0,-1.429711580E-1,-2.584248483E-1,9.806646615E0
9.490603790E-1,-9.828518867E0,-1.576271951E-1,-2.823530734E-1,9.833837131E0
9.515045460E-1,-9.797411919E0,-1.815554202E-1,-2.727817893E-1,9.802890012E0
9.539487650E-1,-9.742377281E0,-1.552343667E-1,-2.799602449E-1,9.747635125E0
9.563937650E-1,-9.780662537E0,-1.528415531E-1,-2.871387303E-1,9.786070143E0
9.588371500E-1,-9.818947792E0,-1.719841212E-1,-2.536391914E-1,9.823728779E0
9.612813690E-1,-9.897911072E0,-1.743769497E-1,-2.703889608E-1,9.903138952E0
9.637263690E-1,-9.826126099E0,-1.719841212E-1,-2.823530734E-1,9.831686320E0
9.661697540E-1,-9.735198975E0,-1.695913076E-1,-2.919243574E-1,9.741051284E0
9.686139210E-1,-9.775876999E0,-1.695913076E-1,-2.799602449E-1,9.781355226E0
9.710581400E-1,-9.802198410E0,-1.743769497E-1,-2.536391914E-1,9.807029817E0
9.735023060E-1,-9.792626381E0,-1.815554202E-1,-2.512463629E-1,9.797531247E0
9.759473580E-1,-9.830911636E0,-1.719841212E-1,-2.871387303E-1,9.836607687E0
9.783907440E-1,-9.866804123E0,-1.719841212E-1,-3.206382394E-1,9.873510572E0
9.808349110E-1,-9.816555023E0,-1.600200087E-1,-3.038884699E-1,9.822561129E0
9.832799630E-1,-9.766305923E0,-1.791625917E-1,-2.608176768E-1,9.771430626E0
9.857232960E-1,-9.768698692E0,-1.671984792E-1,-2.416750938E-1,9.773118045E0
9.881675150E-1,-9.795019150E0,-1.576271951E-1,-2.368894368E-1,9.799151141E0
9.906117330E-1,-9.826126099E0,-1.576271951E-1,-2.703889608E-1,9.831109329E0
9.930559000E-1,-9.847661972E0,-1.671984792E-1,-2.919243574E-1,9.853406593E0
9.955009520E-1,-9.869196892E0,-1.695913076E-1,-2.823530734E-1,9.874691477E0
9.979442860E-1,-9.816555023E0,-1.600200087E-1,-2.727817893E-1,9.821647969E0
1.000388504E0,-9.749555588E0,-1.576271951E-1,-2.321037948E-1,9.753591783E0
1.002833556E0,-9.761520386E0,-1.863410622E-1,-2.584248483E-1,9.766718315E0
1.005276890E0,-9.783055305E0,-1.624128371E-1,-2.703889608E-1,9.788138701E0
1.007721108E0,-9.847661972E0,-1.719841212E-1,-2.847459018E-1,9.853278900E0
1.010165275E0,-9.888339996E0,-1.767697781E-1,-2.847459018E-1,9.894018176E0
1.012609494E0,-9.823733330E0,-1.600200087E-1,-2.727817893E-1,9.828822556E0
1.015054546E0,-9.723235130E0,-1.480558962E-1,-2.656033039E-1,9.727988850E0
1.017497879E0,-9.732806206E0,-1.528415531E-1,-2.608176768E-1,9.737499835E0
1.019942098E0,-9.830911636E0,-1.453639716E-1,-2.608176768E-1,9.835445091E0
1.022387150E0,-9.888339996E0,-1.719841212E-1,-2.679961324E-1,9.893465942E0
1.024830483E0,-9.814162254E0,-1.719841212E-1,-2.679961324E-1,9.819326923E0
1.027274702E0,-9.785448074E0,-1.863410622E-1,-3.134597540E-1,9.792240501E0
1.029718869E0,-9.830911636E0,-1.839482337E-1,-3.086741269E-1,9.837476316E0
1.032163088E0,-9.797411919E0,-1.935195327E-1,-2.464607358E-1,9.802421793E0
1.034608140E0,-9.787840843E0,-1.648056656E-1,-2.129612118E-1,9.791544401E0
1.037051473E0,-9.823733330E0,-1.695913076E-1,-2.225325108E-1,9.827716849E0
1.039495692E0,-9.835697174E0,-1.791625917E-1,-2.967100143E-1,9.841802425E0
1.041940692E0,-9.816555023E0,-1.624128371E-1,-3.373879790E-1,9.823693862E0
1.044384077E0,-9.797411919E0,-1.815554202E-1,-2.847459018E-1,9.803230228E0
1.046828244E0,-9.823733330E0,-1.815554202E-1,-2.249253243E-1,9.827985058E0
1.049272463E0,-9.785448074E0,-1.671984792E-1,-1.962114573E-1,9.788843051E0
1.051716681E0,-9.778269768E0,-1.695913076E-1,-2.632105052E-1,9.783281690E0
1.054161681E0,-9.826126099E0,-1.600200087E-1,-3.158525825E-1,9.832503413E0
1.056605067E0,-9.862018585E0,-1.719841212E-1,-3.062812984E-1,9.868272257E0
1.059049233E0,-9.821340561E0,-1.719841212E-1,-2.727817893E-1,9.826633139E0
1.061494286E0,-9.751948357E0,-1.695913076E-1,-2.488535494E-1,9.756597053E0
1.063937671E0,-9.768698692E0,-1.719841212E-1,-2.703889608E-1,9.773953288E0
1.066381838E0,-9.816555023E0,-1.695913076E-1,-2.991028428E-1,9.822574828E0
1.068826056E0,-9.816555023E0,-1.887338907E-1,-2.895315289E-1,9.822637197E0
1.071270223E0,-9.850054741E0,-1.743769497E-1,-2.751746178E-1,9.855440467E0
1.073715275E0,-9.818947792E0,-1.576271951E-1,-2.368894368E-1,9.823069718E0
1.076158661E0,-9.790233612E0,-1.504487246E-1,-2.703889608E-1,9.795122214E0
1.078602827E0,-9.759127617E0,-1.743769497E-1,-2.751746178E-1,9.764563494E0
1.081047879E0,-9.811769485E0,-1.743769497E-1,-2.847459018E-1,9.817449159E0
1.083491213E0,-9.845269203E0,-1.863410622E-1,-2.560320199E-1,9.850360454E0
1.085935431E0,-9.811769485E0,-1.719841212E-1,-2.488535494E-1,9.816431483E0
1.088379650E0,-9.780662537E0,-1.504487246E-1,-2.775674164E-1,9.785756902E0
1.090823817E0,-9.804591179E0,-1.719841212E-1,-2.847459018E-1,9.810232767E0
1.093268869E0,-9.814162254E0,-1.671984792E-1,-2.656033039E-1,9.819179253E0
1.095712202E0,-9.826126099E0,-1.624128371E-1,-2.512463629E-1,9.830679365E0
1.098156421E0,-9.811769485E0,-1.552343667E-1,-2.464607358E-1,9.816091943E0
1.100601473E0,-9.818947792E0,-1.839482337E-1,-2.584248483E-1,9.824070241E0
1.103044806E0,-9.792626381E0,-1.648056656E-1,-2.919243574E-1,9.798362729E0
1.105489025E0,-9.778269768E0,-1.528415531E-1,-3.014956415E-1,9.784110579E0
1.107933192E0,-9.787840843E0,-1.863410622E-1,-2.560320199E-1,9.792961950E0
1.110377411E0,-9.816555023E0,-1.791625917E-1,-2.512463629E-1,9.821403998E0
1.112822463E0,-9.842875481E0,-1.767697781E-1,-2.703889608E-1,9.848175236E0
1.115265796E0,-9.830911636E0,-1.791625917E-1,-2.775674164E-1,9.836461076E0
1.117710015E0,-9.790233612E0,-1.863410622E-1,-2.727817893E-1,9.795805586E0
1.120155067E0,-9.802198410E0,-1.624128371E-1,-2.321037948E-1,9.806291030E0
1.122598400E0,-9.768698692E0,-1.600200087E-1,-2.368894368E-1,9.772880699E0
1.125042619E0,-9.814162254E0,-1.600200087E-1,-2.560320199E-1,9.818805404E0
1.127486786E0,-9.847661972E0,-1.695913076E-1,-2.943171859E-1,9.853518668E0
1.129931004E0,-9.830911636E0,-1.695913076E-1,-2.943171859E-1,9.836778305E0
1.132376056E0,-9.809376717E0,-1.648056656E-1,-2.775674164E-1,9.814686757E0
1.134819390E0,-9.768698692E0,-1.695913076E-1,-2.368894368E-1,9.773042104E0
1.137263608E0,-9.783055305E0,-1.648056656E-1,-2.273181528E-1,9.787083609E0
1.139708661E0,-9.778269768E0,-1.624128371E-1,-2.656033039E-1,9.783224555E0
1.142151994E0,-9.830911636E0,-1.719841212E-1,-2.967100143E-1,9.836891733E0
1.144596161E0,-9.857233047E0,-1.671984792E-1,-2.799602449E-1,9.862625230E0
1.147040379E0,-9.852447510E0,-1.839482337E-1,-2.703889608E-1,9.857873456E0
1.149484598E0,-9.799804688E0,-1.743769497E-1,-2.632105052E-1,9.804889546E0
1.151929650E0,-9.747162819E0,-1.600200087E-1,-2.703889608E-1,9.752225367E0
1.154372983E0,-9.778269768E0,-1.671984792E-1,-2.727817893E-1,9.783502690E0
1.156817150E0,-9.859625816E0,-1.600200087E-1,-2.895315289E-1,9.865173904E0
1.159262202E0,-9.847661972E0,-1.624128371E-1,-2.679961324E-1,9.852646658E0
1.161705588E0,-9.821340561E0,-1.648056656E-1,-2.799602449E-1,9.826712017E0
1.164149754E0,-9.795019150E0,-1.504487246E-1,-2.727817893E-1,9.799971677E0
1.166593973E0,-9.766305923E0,-1.480558962E-1,-2.727817893E-1,9.771236454E0
1.169038140E0,-9.780662537E0,-1.695913076E-1,-2.297109663E-1,9.784829482E0
1.171483192E0,-9.814162254E0,-1.600200087E-1,-2.392822653E-1,9.818382920E0
1.173926577E0,-9.850054741E0,-1.624128371E-1,-2.703889608E-1,9.855103577E0
1.176370744E0,-9.842875481E0,-1.648056656E-1,-2.967100143E-1,9.848725576E0
1.178815796E0,-9.797411919E0,-1.743769497E-1,-2.895315289E-1,9.803240083E0
1.181259129E0,-9.751948357E0,-1.600200087E-1,-2.512463629E-1,9.756496702E0
1.183703348E0,-9.780662537E0,-1.600200087E-1,-2.129612118E-1,9.784289373E0
1.186147567E0,-9.847661972E0,-1.791625917E-1,-2.608176768E-1,9.852744359E0
1.188591733E0,-9.871589661E0,-1.648056656E-1,-2.991028428E-1,9.877494918E0
1.191036786E0,-9.826126099E0,-1.600200087E-1,-3.182454109E-1,9.832580569E0
1.193480171E0,-9.756733894E0,-1.648056656E-1,-2.679961324E-1,9.761805116E0
1.195924338E0,-9.778269768E0,-1.600200087E-1,-2.464607358E-1,9.782684138E0
1.198369390E0,-9.811769485E0,-1.624128371E-1,-2.321037948E-1,9.815858115E0
1.200812723E0,-9.833304405E0,-1.743769497E-1,-2.584248483E-1,9.838245080E0
1.203256942E0,-9.799804688E0,-1.695913076E-1,-2.799602449E-1,9.805269546E0
1.205701161E0,-9.833304405E0,-1.695913076E-1,-2.967100143E-1,9.839241514E0
1.208145327E0,-9.818947792E0,-1.815554202E-1,-2.799602449E-1,9.824615812E0
1.210590379E0,-9.775876999E0,-1.791625917E-1,-2.321037948E-1,9.780273130E0
1.213033713E0,-9.804591179E0,-1.935195327E-1,-2.201396823E-1,9.808971377E0
1.215477931E0,-9.833304405E0,-1.624128371E-1,-2.751746178E-1,9.838494525E0
1.217922983E0,-9.809376717E0,-1.935195327E-1,-3.278166950E-1,9.816760421E0
1.220366317E0,-9.809376717E0,-1.671984792E-1,-2.943171859E-1,9.815215204E0
1.222810536E0,-9.811769485E0,-1.648056656E-1,-2.703889608E-1,9.816877891E0
1.225254754E0,-9.814162254E0,-1.429711580E-1,-2.464607358E-1,9.818297429E0
1.227698921E0,-9.799804688E0,-1.695913076E-1,-2.560320199E-1,9.804615521E0
1.230143973E0,-9.804591179E0,-1.576271951E-1,-2.895315289E-1,9.810131652E0
1.232587306E0,-9.790233612E0,-1.815554202E-1,-3.038884699E-1,9.796631296E0
1.235031525E0,-9.787840843E0,-1.719841212E-1,-2.632105052E-1,9.792889598E0
1.237476577E0,-9.806983948E0,-1.600200087E-1,-2.560320199E-1,9.811630494E0
1.239919911E0,-9.811769485E0,-1.648056656E-1,-2.775674164E-1,9.817078232E0
1.242364129E0,-9.799804688E0,-1.767697781E-1,-2.943171859E-1,9.805816747E0
1.244808296E0,-9.797411919E0,-1.624128371E-1,-2.895315289E-1,9.803034568E0
1.247252515E0,-9.783055305E0,-1.791625917E-1,-2.703889608E-1,9.788430954E0
1.249697567E0,-9.816555023E0,-1.648056656E-1,-2.584248483E-1,9.821338851E0
1.252140900E0,-9.830911636E0,-1.695913076E-1,-2.464607358E-1,9.835462760E0
1.254585119E0,-9.823733330E0,-1.552343667E-1,-2.919243574E-1,9.829295706E0
1.257030171E0,-9.797411919E0,-1.767697781E-1,-2.847459018E-1,9.803142766E0
1.259473504E0,-9.811769485E0,-1.671984792E-1,-2.727817893E-1,9.816984551E0
1.261917723E0,-9.816555023E0,-1.767697781E-1,-2.632105052E-1,9.821673984E0
1.264361890E0,-9.818947792E0,-1.648056656E-1,-2.488535494E-1,9.823483330E0
1.266806108E0,-9.804591179E0,-1.719841212E-1,-2.751746178E-1,9.809959622E0
1.269251161E0,-9.806983948E0,-1.671984792E-1,-2.727817893E-1,9.812201557E0
1.271694494E0,-9.826126099E0,-1.504487246E-1,-2.823530734E-1,9.831333184E0
1.274138713E0,-9.814162254E0,-1.743769497E-1,-2.679961324E-1,9.819369124E0
1.276583713E0,-9.799804688E0,-1.624128371E-1,-2.775674164E-1,9.805079985E0
1.279027098E0,-9.823733330E0,-1.695913076E-1,-2.775674164E-1,9.829117021E0
1.281471265E0,-9.809376717E0,-1.767697781E-1,-2.823530734E-1,9.815031451E0
1.283915483E0,-9.790233612E0,-1.839482337E-1,-2.608176768E-1,9.795434497E0
1.286359702E0,-9.792626381E0,-1.743769497E-1,-2.440679073E-1,9.797219396E0
1.288804702E0,-9.818947792E0,-1.791625917E-1,-2.608176768E-1,9.824045034E0
1.291248088E0,-9.818947792E0,-1.504487246E-1,-2.703889608E-1,9.823822105E0
1.293692306E0,-9.821340561E0,-1.504487246E-1,-2.679961324E-1,9.826148134E0
1.296137306E0,-9.816555023E0,-1.624128371E-1,-2.703889608E-1,9.821621080E0
1.298580692E0,-9.809376717E0,-1.695913076E-1,-2.584248483E-1,9.814245574E0
1.301024858E0,-9.790233612E0,-1.600200087E-1,-2.775674164E-1,9.795474682E0
1.303469077E0,-9.804591179E0,-1.743769497E-1,-2.464607358E-1,9.809238421E0
1.305913296E0,-9.809376717E0,-1.504487246E-1,-2.727817893E-1,9.814321999E0
1.308358296E0,-9.811769485E0,-1.719841212E-1,-2.656033039E-1,9.816870382E0
1.310801681E0,-9.802198410E0,-1.695913076E-1,-2.560320199E-1,9.807008070E0
1.313245848E0,-9.802198410E0,-1.624128371E-1,-2.799602449E-1,9.807540433E0
1.315690900E0,-9.818947792E0,-1.600200087E-1,-2.656033039E-1,9.823842795E0
1.318134286E0,-9.811769485E0,-1.576271951E-1,-2.751746178E-1,9.816892983E0
1.320578452E0,-9.818947792E0,-1.743769497E-1,-2.608176768E-1,9.823958923E0
1.323022671E0,-9.799804688E0,-1.719841212E-1,-2.656033039E-1,9.804911808E0
1.325466838E0,-9.783055305E0,-1.600200087E-1,-2.703889608E-1,9.788099290E0
1.327911890E0,-9.792626381E0,-1.624128371E-1,-2.656033039E-1,9.797573908E0
1.330355275E0,-9.830911636E0,-1.528415531E-1,-2.823530734E-1,9.836153079E0
1.332799442E0,-9.845269203E0,-1.767697781E-1,-2.656033039E-1,9.850437470E0
1.335244494E0,-9.792626381E0,-1.671984792E-1,-2.656033039E-1,9.797654407E0
1.337687827E0,-9.778269768E0,-1.743769497E-1,-2.775674164E-1,9.783762601E0
1.340132046E0,-9.804591179E0,-1.767697781E-1,-2.751746178E-1,9.810044689E0
1.342576265E0,-9.806983948E0,-1.719841212E-1,-2.656033039E-1,9.812087332E0
1.345020431E0,-9.818947792E0,-1.791625917E-1,-2.703889608E-1,9.824303801E0
1.347465483E0,-9.806983948E0,-1.743769497E-1,-2.751746178E-1,9.812393314E0
1.349908869E0,-9.795019150E0,-1.815554202E-1,-2.512463629E-1,9.799922819E0
1.352353036E0,-9.785448074E0,-1.695913076E-1,-2.656033039E-1,9.790520943E0
1.354798088E0,-9.806983948E0,-1.576271951E-1,-2.656033039E-1,9.811846187E0
1.357241421E0,-9.821340561E0,-1.767697781E-1,-2.560320199E-1,9.826267367E0
1.359685640E0,-9.799804688E0,-1.887338907E-1,-2.823530734E-1,9.805687923E0
1.362129806E0,-9.811769485E0,-1.600200087E-1,-2.512463629E-1,9.816290113E0
1.364574025E0,-9.787840843E0,-1.624128371E-1,-2.512463629E-1,9.792411911E0
1.367019077E0,-9.814162254E0,-1.576271951E-1,-2.560320199E-1,9.818766699E0
1.369462411E0,-9.818947792E0,-1.695913076E-1,-2.560320199E-1,9.823749251E0
1.371906629E0,-9.795019150E0,-1.767697781E-1,-2.488535494E-1,9.799774272E0
1.374351681E0,-9.797411919E0,-1.695913076E-1,-2.512463629E-1,9.802100094E0
1.376795015E0,-9.809376717E0,-1.576271951E-1,-2.608176768E-1,9.814109423E0
1.379239233E0,-9.811769485E0,-1.624128371E-1,-2.703889608E-1,9.816838012E0
1.381683400E0,-9.828518867E0,-1.600200087E-1,-2.727817893E-1,9.833605617E0
1.384127619E0,-9.799804688E0,-1.719841212E-1,-2.560320199E-1,9.804657202E0
1.386572671E0,-9.799804688E0,-1.791625917E-1,-2.560320199E-1,9.804785747E0
1.389016004E0,-9.814162254E0,-1.767697781E-1,-2.847459018E-1,9.819883326E0
1.391460223E0,-9.816555023E0,-1.695913076E-1,-2.560320199E-1,9.821357652E0
1.393905275E0,-9.795019150E0,-1.839482337E-1,-2.847459018E-1,9.800883497E0
1.396348608E0,-9.804591179E0,-1.600200087E-1,-2.656033039E-1,9.809493346E0
1.398792827E0,-9.806983948E0,-1.624128371E-1,-2.727817893E-1,9.812121177E0
1.401236994E0,-9.804591179E0,-1.695913076E-1,-2.608176768E-1,9.809525741E0
1.403681213E0,-9.811769485E0,-1.743769497E-1,-2.632105052E-1,9.816848146E0
1.406126265E0,-9.814162254E0,-1.624128371E-1,-2.560320199E-1,9.818844692E0
1.408569598E0,-9.818947792E0,-1.480558962E-1,-2.488535494E-1,9.823216601E0
1.411013817E0,-9.814162254E0,-1.695913076E-1,-2.703889608E-1,9.819350903E0
1.413458869E0,-9.818947792E0,-1.767697781E-1,-2.656033039E-1,9.824129906E0
1.415902202E0,-9.806983948E0,-1.648056656E-1,-2.775674164E-1,9.812295283E0
1.418346421E0,-9.811769485E0,-1.719841212E-1,-2.751746178E-1,9.817134004E0
1.420790588E0,-9.811769485E0,-1.743769497E-1,-2.584248483E-1,9.816720998E0
1.423234806E0,-9.809376717E0,-1.719841212E-1,-2.608176768E-1,9.814350512E0
1.425679858E0,-9.809376717E0,-1.719841212E-1,-2.751746178E-1,9.814742543E0
1.428123192E0,-9.802198410E0,-1.743769497E-1,-2.488535494E-1,9.806907213E0
1.430567411E0,-9.795019150E0,-1.671984792E-1,-2.703889608E-1,9.800176818E0
1.433012463E0,-9.795019150E0,-1.648056656E-1,-2.632105052E-1,9.799940858E0
1.435455796E0,-9.804591179E0,-1.480558962E-1,-2.632105052E-1,9.809240975E0
1.437900015E0,-9.814162254E0,-1.600200087E-1,-2.727817893E-1,9.819256441E0
1.440344181E0,-9.802198410E0,-1.552343667E-1,-2.919243574E-1,9.807772999E0
1.442788400E0,-9.811769485E0,-1.648056656E-1,-2.751746178E-1,9.817010870E0
1.445233452E0,-9.821340561E0,-1.695913076E-1,-2.584248483E-1,9.826203490E0
1.447676786E0,-9.821340561E0,-1.719841212E-1,-2.584248483E-1,9.826245079E0
1.450121004E0,-9.806983948E0,-1.743769497E-1,-2.656033039E-1,9.812129564E0
1.452566004E0,-9.811769485E0,-1.648056656E-1,-2.560320199E-1,9.816492945E0
1.455009390E0,-9.797411919E0,-1.767697781E-1,-2.751746178E-1,9.802869423E0
1.457453556E0,-9.792626381E0,-1.624128371E-1,-2.512463629E-1,9.797195216E0
1.459897775E0,-9.816555023E0,-1.624128371E-1,-2.536391914E-1,9.821174232E0
1.462341994E0,-9.818947792E0,-1.719841212E-1,-2.775674164E-1,9.824375703E0
1.464787046E0,-9.814162254E0,-1.719841212E-1,-2.679961324E-1,9.819326923E0
1.467230379E0,-9.809376717E0,-1.767697781E-1,-2.608176768E-1,9.814435541E0
1.469674546E0,-9.806983948E0,-1.648056656E-1,-2.536391914E-1,9.811647563E0
1.472119598E0,-9.802198410E0,-1.719841212E-1,-2.560320199E-1,9.807049740E0
1.474562983E0,-9.799804688E0,-1.959123611E-1,-2.560320199E-1,9.805106117E0
1.477007150E0,-9.802198410E0,-1.815554202E-1,-2.584248483E-1,9.807285019E0
1.479451369E0,-9.809376717E0,-1.767697781E-1,-2.775674164E-1,9.814894946E0
1.481895588E0,-9.818947792E0,-1.743769497E-1,-2.560320199E-1,9.823833033E0
1.484340588E0,-9.799804688E0,-1.815554202E-1,-2.632105052E-1,9.805019840E0
1.486783973E0,-9.814162254E0,-1.767697781E-1,-2.656033039E-1,9.819346894E0
1.489228140E0,-9.785448074E0,-1.719841212E-1,-2.560320199E-1,9.790307704E0
1.491673192E0,-9.797411919E0,-1.695913076E-1,-2.967100143E-1,9.803370765E0
1.494116577E0,-9.799804688E0,-1.719841212E-1,-2.512463629E-1,9.804533400E0
1.496560744E0,-9.830911636E0,-1.863410622E-1,-2.584248483E-1,9.836072895E0
1.499004963E0,-9.795019150E0,-1.743769497E-1,-2.895315289E-1,9.800848737E0
1.501449129E0,-9.811769485E0,-1.767697781E-1,-2.775674164E-1,9.817286370E0
1.503894181E0,-9.811769485E0,-1.624128371E-1,-2.703889608E-1,9.816838012E0
1.506337567E0,-9.795019150E0,-1.648056656E-1,-2.488535494E-1,9.799565763E0
1.508781733E0,-9.799804688E0,-1.695913076E-1,-2.608176768E-1,9.804741658E0
1.511226786E0,-9.792626381E0,-1.648056656E-1,-2.703889608E-1,9.797744768E0
1.513670171E0,-9.802198410E0,-1.576271951E-1,-2.919243574E-1,9.807811164E0
1.516114338E0,-9.811769485E0,-1.671984792E-1,-2.775674164E-1,9.817118693E0
1.518558556E0,-9.814162254E0,-1.528415531E-1,-2.608176768E-1,9.818816994E0
1.521002723E0,-9.811769485E0,-1.695913076E-1,-2.727817893E-1,9.817025596E0
1.523447775E0,-9.809376717E0,-1.504487246E-1,-2.560320199E-1,9.813870734E0
1.525891161E0,-9.806983948E0,-1.791625917E-1,-2.512463629E-1,9.811837653E0
1.528335327E0,-9.811769485E0,-1.624128371E-1,-2.679961324E-1,9.816772397E0
1.530780379E0,-9.799804688E0,-1.671984792E-1,-2.440679073E-1,9.804269294E0
1.533223713E0,-9.785448074E0,-1.624128371E-1,-2.512463629E-1,9.790020259E0
1.535667931E0,-9.811769485E0,-1.695913076E-1,-2.871387303E-1,9.817435016E0
1.538112150E0,-9.806983948E0,-1.576271951E-1,-2.751746178E-1,9.812109944E0
1.540556317E0,-9.795019150E0,-1.671984792E-1,-2.608176768E-1,9.799917415E0
1.543001369E0,-9.814162254E0,-1.719841212E-1,-2.584248483E-1,9.819070358E0
1.545444754E0,-9.809376717E0,-1.791625917E-1,-2.584248483E-1,9.814415632E0
1.547888921E0,-9.826126099E0,-1.333998591E-1,-2.584248483E-1,9.830428934E0
1.550333973E0,-9.797411919E0,-1.624128371E-1,-2.751746178E-1,9.802621043E0
1.552777306E0,-9.799804688E0,-1.528415531E-1,-2.656033039E-1,9.804594717E0
1.555221525E0,-9.804591179E0,-1.695913076E-1,-2.632105052E-1,9.809589653E0
1.557665744E0,-9.814162254E0,-1.743769497E-1,-2.608176768E-1,9.819175828E0
1.560109911E0,-9.806983948E0,-1.791625917E-1,-2.392822653E-1,9.811538584E0
1.562554963E0,-9.797411919E0,-1.743769497E-1,-2.823530734E-1,9.803030699E0
1.564998296E0,-9.821340561E0,-1.624128371E-1,-2.656033039E-1,9.826273630E0
1.567442515E0,-9.799804688E0,-1.648056656E-1,-2.775674164E-1,9.805119912E0
1.569887567E0,-9.802198410E0,-1.453639716E-1,-2.679961324E-1,9.806938680E0
1.572330900E0,-9.818947792E0,-1.695913076E-1,-2.512463629E-1,9.823625690E0
1.574775119E0,-9.806983948E0,-1.695913076E-1,-2.440679073E-1,9.811486356E0
1.577219286E0,-9.814162254E0,-1.576271951E-1,-2.512463629E-1,9.818643074E0
1.579663504E0,-9.802198410E0,-1.791625917E-1,-2.679961324E-1,9.807497888E0
1.582108556E0,-9.806983948E0,-1.624128371E-1,-2.632105052E-1,9.811859755E0
1.584551890E0,-9.797411919E0,-1.552343667E-1,-2.632105052E-1,9.802176176E0
1.586996108E0,-9.818947792E0,-1.648056656E-1,-2.440679073E-1,9.823363263E0
1.589441161E0,-9.804591179E0,-1.695913076E-1,-2.440679073E-1,9.809094685E0
1.591884494E0,-9.811769485E0,-1.743769497E-1,-2.584248483E-1,9.816720998E0
1.594328713E0,-9.814162254E0,-1.671984792E-1,-2.703889608E-1,9.819309868E0
1.596772931E0,-9.821340561E0,-1.528415531E-1,-2.679961324E-1,9.826185062E0
1.599217098E0,-9.816555023E0,-1.648056656E-1,-2.584248483E-1,9.821338851E0
1.601662150E0,-9.797411919E0,-1.719841212E-1,-2.632105052E-1,9.802455744E0
1.604105483E0,-9.809376717E0,-1.600200087E-1,-2.703889608E-1,9.814407173E0
1.606549702E0,-9.818947792E0,-1.504487246E-1,-2.560320199E-1,9.823437431E0
1.608994754E0,-9.806983948E0,-1.791625917E-1,-2.703889608E-1,9.812346487E0
1.611438088E0,-9.802198410E0,-1.648056656E-1,-2.632105052E-1,9.807116515E0
1.613882306E0,-9.806983948E0,-1.624128371E-1,-2.321037948E-1,9.811074572E0
1.616326473E0,-9.811769485E0,-1.695913076E-1,-2.727817893E-1,9.817025596E0
1.618770692E0,-9.818947792E0,-1.552343667E-1,-2.679961324E-1,9.823830993E0
1.621215744E0,-9.814162254E0,-1.695913076E-1,-2.632105052E-1,9.819155857E0
1.623659077E0,-9.792626381E0,-1.791625917E-1,-2.632105052E-1,9.797801306E0
1.626103296E0,-9.804591179E0,-1.528415531E-1,-2.632105052E-1,9.809314374E0
1.628548348E0,-9.821340561E0,-1.671984792E-1,-2.392822653E-1,9.825677674E0
1.630991681E0,-9.811769485E0,-1.671984792E-1,-2.344966233E-1,9.815995336E0
1.633435900E0,-9.828518867E0,-1.648056656E-1,-2.775674164E-1,9.833818572E0
1.635880067E0,-9.792626381E0,-1.743769497E-1,-2.608176768E-1,9.797650974E0
1.638324286E0,-9.826126099E0,-1.624128371E-1,-2.703889608E-1,9.831187224E0
1.640769338E0,-9.816555023E0,-1.671984792E-1,-2.608176768E-1,9.821442548E0
1.643212671E0,-9.816555023E0,-1.528415531E-1,-2.488535494E-1,9.820898185E0
1.645656890E0,-9.816555023E0,-1.695913076E-1,-2.512463629E-1,9.821234060E0
1.648101942E0,-9.806983948E0,-1.624128371E-1,-2.560320199E-1,9.811669811E0
1.650545275E0,-9.797411919E0,-1.719841212E-1,-2.656033039E-1,9.802520286E0
1.652989494E0,-9.809376717E0,-1.648056656E-1,-2.919243574E-1,9.815103275E0
1.655433661E0,-9.828518867E0,-1.815554202E-1,-2.632105052E-1,9.833718791E0
1.657877879E0,-9.821340561E0,-1.743769497E-1,-2.512463629E-1,9.826101082E0
1.660322931E0,-9.818947792E0,-1.839482337E-1,-2.656033039E-1,9.824261693E0
1.662766265E0,-9.797411919E0,-1.887338907E-1,-2.727817893E-1,9.803025589E0
1.665210483E0,-9.809376717E0,-1.815554202E-1,-2.608176768E-1,9.814522902E0
1.667655536E0,-9.806983948E0,-1.815554202E-1,-2.464607358E-1,9.811760261E0
1.670098869E0,-9.806983948E0,-1.648056656E-1,-2.608176768E-1,9.811835757E0
1.672543088E0,-9.814162254E0,-1.648056656E-1,-2.488535494E-1,9.818700003E0
1.674987254E0,-9.795019150E0,-1.528415531E-1,-2.536391914E-1,9.799494555E0
1.677431473E0,-9.823733330E0,-1.648056656E-1,-2.703889608E-1,9.828835518E0
1.679876525E0,-9.816555023E0,-1.695913076E-1,-2.584248483E-1,9.821420322E0
1.682319858E0,-9.811769485E0,-1.671984792E-1,-2.488535494E-1,9.816348805E0
1.684764077E0,-9.804591179E0,-1.863410622E-1,-2.512463629E-1,9.809579803E0
1.687209129E0,-9.795019150E0,-1.815554202E-1,-2.560320199E-1,9.800046679E0
1.689652463E0,-9.814162254E0,-1.671984792E-1,-2.679961324E-1,9.819244269E0
1.692096681E0,-9.804591179E0,-1.600200087E-1,-2.727817893E-1,9.809690336E0
1.694540848E0,-9.799804688E0,-1.648056656E-1,-2.799602449E-1,9.805187941E0
1.696985067E0,-9.795019150E0,-1.839482337E-1,-2.775674164E-1,9.800677567E0
1.699430119E0,-9.821340561E0,-1.791625917E-1,-2.608176768E-1,9.826436562E0
1.701873452E0,-9.797411919E0,-1.624128371E-1,-2.799602449E-1,9.802756550E0
1.704317671E0,-9.804591179E0,-1.671984792E-1,-2.727817893E-1,9.809810060E0
1.706762671E0,-9.816555023E0,-1.719841212E-1,-2.560320199E-1,9.821399262E0
1.709206056E0,-9.835697174E0,-1.671984792E-1,-2.416750938E-1,9.840086437E0
1.711650223E0,-9.799804688E0,-1.815554202E-1,-2.679961324E-1,9.805149474E0
1.714094442E0,-9.787840843E0,-1.695913076E-1,-2.512463629E-1,9.792533601E0
1.716538661E0,-9.826126099E0,-1.815554202E-1,-2.679961324E-1,9.831456576E0
1.718983713E0,-9.818947792E0,-1.671984792E-1,-2.512463629E-1,9.823584672E0
1.721427046E0,-9.814162254E0,-1.791625917E-1,-2.512463629E-1,9.819012411E0
1.723871265E0,-9.816555023E0,-1.815554202E-1,-2.799602449E-1,9.822224424E0
1.726316317E0,-9.811769485E0,-1.624128371E-1,-2.656033039E-1,9.816707365E0
1.728759650E0,-9.806983948E0,-1.671984792E-1,-2.584248483E-1,9.811812926E0
1.731203817E0,-9.799804688E0,-1.648056656E-1,-2.536391914E-1,9.804471718E0
1.733648036E0,-9.806983948E0,-1.648056656E-1,-2.799602449E-1,9.812363263E0
1.736092254E0,-9.814162254E0,-1.791625917E-1,-2.584248483E-1,9.819198714E0
1.738537306E0,-9.809376717E0,-1.648056656E-1,-2.464607358E-1,9.813856295E0
1.740980640E0,-9.809376717E0,-1.767697781E-1,-2.560320199E-1,9.814309528E0
1.743424858E0,-9.818947792E0,-1.791625917E-1,-2.799602449E-1,9.824571885E0
1.745869858E0,-9.804591179E0,-1.719841212E-1,-2.703889608E-1,9.809826549E0
1.748313244E0,-9.804591179E0,-1.695913076E-1,-2.847459018E-1,9.810191111E0
1.750757411E0,-9.806983948E0,-1.624128371E-1,-2.632105052E-1,9.811859755E0
1.753201629E0,-9.826126099E0,-1.815554202E-1,-2.416750938E-1,9.830774300E0
1.755645848E0,-9.799804688E0,-1.767697781E-1,-2.775674164E-1,9.805328303E0
1.758090848E0,-9.802198410E0,-1.767697781E-1,-2.799602449E-1,9.807788689E0
1.760534233E0,-9.828518867E0,-1.600200087E-1,-2.751746178E-1,9.833672285E0
1.762978452E0,-9.823733330E0,-1.743769497E-1,-2.679961324E-1,9.828935130E0
1.765423452E0,-9.816555023E0,-1.671984792E-1,-2.560320199E-1,9.821316625E0
1.767866838E0,-9.797411919E0,-1.767697781E-1,-2.751746178E-1,9.802869423E0
1.770311004E0,-9.818947792E0,-1.671984792E-1,-2.512463629E-1,9.823584672E0
1.772755223E0,-9.806983948E0,-1.552343667E-1,-2.440679073E-1,9.811248697E0
1.775199442E0,-9.806983948E0,-1.719841212E-1,-2.679961324E-1,9.812152395E0
1.777644442E0,-9.818947792E0,-1.528415531E-1,-2.727817893E-1,9.823925193E0
1.780087827E0,-9.806983948E0,-1.648056656E-1,-2.751746178E-1,9.812227888E0
1.782532046E0,-9.821340561E0,-1.719841212E-1,-2.488535494E-1,9.825998018E0
1.784977046E0,-9.799804688E0,-1.767697781E-1,-2.584248483E-1,9.804805091E0
1.787420431E0,-9.816555023E0,-1.624128371E-1,-2.608176768E-1,9.821362243E0
1.789864598E0,-9.806983948E0,-1.839482337E-1,-2.751746178E-1,9.812568072E0
1.792308817E0,-9.792626381E0,-1.695913076E-1,-2.584248483E-1,9.797503562E0
1.794753036E0,-9.809376717E0,-1.480558962E-1,-2.440679073E-1,9.813529501E0
1.797198036E0,-9.806983948E0,-1.648056656E-1,-2.416750938E-1,9.811345571E0
1.799641421E0,-9.799804688E0,-1.576271951E-1,-2.536391914E-1,9.804353680E0
1.802085588E0,-9.826126099E0,-1.552343667E-1,-2.727817893E-1,9.831137356E0
1.804530640E0,-9.790233612E0,-1.719841212E-1,-2.632105052E-1,9.795281134E0
1.806974025E0,-9.804591179E0,-1.480558962E-1,-2.512463629E-1,9.808927233E0
1.809418192E0,-9.814162254E0,-1.576271951E-1,-2.536391914E-1,9.818704595E0
1.811862411E0,-9.818947792E0,-1.648056656E-1,-2.536391914E-1,9.823605728E0
1.814306629E0,-9.806983948E0,-1.624128371E-1,-2.608176768E-1,9.811795857E0
1.816751629E0,-9.802198410E0,-1.504487246E-1,-2.560320199E-1,9.806695717E0
1.819195015E0,-9.797411919E0,-1.695913076E-1,-2.727817893E-1,9.802675728E0
1.821639181E0,-9.802198410E0,-1.839482337E-1,-2.679961324E-1,9.807586479E0
1.824084233E0,-9.806983948E0,-1.743769497E-1,-2.823530734E-1,9.812597247E0
1.826527619E0,-9.795019150E0,-1.695913076E-1,-2.799602449E-1,9.800486676E0
1.828971786E0,-9.806983948E0,-1.671984792E-1,-2.775674164E-1,9.812335764E0
1.831416004E0,-9.802198410E0,-1.839482337E-1,-2.775674164E-1,9.807852685E0
1.833860171E0,-9.811769485E0,-1.671984792E-1,-2.703889608E-1,9.816918353E0
1.836305223E0,-9.818947792E0,-1.767697781E-1,-2.440679073E-1,9.823571267E0
1.838748608E0,-9.809376717E0,-1.528415531E-1,-2.727817893E-1,9.814358971E0
1.841192775E0,-9.797411919E0,-1.791625917E-1,-2.608176768E-1,9.802520359E0
1.843637827E0,-9.804591179E0,-1.671984792E-1,-2.440679073E-1,9.809053607E0
1.846081213E0,-9.802198410E0,-1.671984792E-1,-2.416750938E-1,9.806602666E0
1.848525379E0,-9.811769485E0,-1.695913076E-1,-2.584248483E-1,9.816637156E0
1.850969598E0,-9.818947792E0,-1.671984792E-1,-2.536391914E-1,9.823646162E0
1.853413765E0,-9.821340561E0,-1.648056656E-1,-2.632105052E-1,9.826249086E0
1.855858817E0,-9.804591179E0,-1.648056656E-1,-2.488535494E-1,9.809133355E0
1.858302202E0,-9.792626381E0,-1.600200087E-1,-2.488535494E-1,9.797094770E0
1.860746369E0,-9.809376717E0,-1.767697781E-1,-2.727817893E-1,9.814760773E0
1.863191421E0,-9.814162254E0,-1.743769497E-1,-2.823530734E-1,9.819771450E0
1.865634806E0,-9.783055305E0,-1.528415531E-1,-2.512463629E-1,9.787474464E0
1.868078973E0,-9.797411919E0,-1.624128371E-1,-2.464607358E-1,9.801857024E0
1.870523192E0,-9.821340561E0,-1.624128371E-1,-2.632105052E-1,9.826209244E0
1.872967358E0,-9.802198410E0,-1.695913076E-1,-2.871387303E-1,9.807869470E0
1.875412411E0,-9.797411919E0,-1.719841212E-1,-2.608176768E-1,9.802391785E0
1.877855796E0,-9.811769485E0,-1.863410622E-1,-2.799602449E-1,9.817531317E0
1.880299963E0,-9.797411919E0,-1.863410622E-1,-2.823530734E-1,9.803250816E0
1.882745015E0,-9.828518867E0,-1.743769497E-1,-2.679961324E-1,9.833718136E0
1.885188400E0,-9.799804688E0,-1.648056656E-1,-2.584248483E-1,9.804596688E0
1.887632567E0,-9.814162254E0,-1.719841212E-1,-2.727817893E-1,9.819458702E0
1.890076786E0,-9.804591179E0,-1.624128371E-1,-2.632105052E-1,9.809468175E0
1.892520952E0,-9.797411919E0,-1.528415531E-1,-2.823530734E-1,9.802671274E0
1.894966004E0,-9.809376717E0,-1.767697781E-1,-2.703889608E-1,9.814694560E0
1.897409390E0,-9.811769485E0,-1.648056656E-1,-2.775674164E-1,9.817078232E0
1.899853556E0,-9.814162254E0,-1.624128371E-1,-2.512463629E-1,9.818721068E0
1.902298608E0,-9.804591179E0,-1.648056656E-1,-2.560320199E-1,9.809318095E0
1.904741994E0,-9.811769485E0,-1.504487246E-1,-2.608176768E-1,9.816388395E0
1.907186161E0,-9.809376717E0,-1.504487246E-1,-2.727817893E-1,9.814321999E0
1.909630379E0,-9.790233612E0,-1.624128371E-1,-2.632105052E-1,9.795117757E0
1.912074546E0,-9.797411919E0,-1.528415531E-1,-2.536391914E-1,9.801886231E0
1.914519598E0,-9.828518867E0,-1.767697781E-1,-2.560320199E-1,9.833442077E0
1.916962931E0,-9.809376717E0,-1.576271951E-1,-2.584248483E-1,9.814046123E0
1.919407150E0,-9.821340561E0,-1.695913076E-1,-2.679961324E-1,9.826459869E0
1.921852202E0,-9.811769485E0,-1.624128371E-1,-2.727817893E-1,9.816904210E0
1.924295536E0,-9.823733330E0,-1.552343667E-1,-2.632105052E-1,9.828484828E0
1.926739754E0,-9.806983948E0,-1.695913076E-1,-2.823530734E-1,9.812513369E0
1.929183973E0,-9.806983948E0,-1.624128371E-1,-2.297109663E-1,9.811018255E0
1.931628140E0,-9.814162254E0,-1.429711580E-1,-2.440679073E-1,9.818237655E0
1.934073192E0,-9.806983948E0,-1.552343667E-1,-2.464607358E-1,9.811308514E0
1.936516577E0,-9.806983948E0,-1.671984792E-1,-2.703889608E-1,9.812135327E0
1.938960744E0,-9.799804688E0,-1.600200087E-1,-2.679961324E-1,9.804774360E0
1.941405796E0,-9.806983948E0,-1.719841212E-1,-2.488535494E-1,9.811648219E0
1.943849129E0,-9.797411919E0,-1.719841212E-1,-2.488535494E-1,9.802080745E0
1.946293348E0,-9.814162254E0,-1.624128371E-1,-2.751746178E-1,9.819362492E0
1.948737567E0,-9.799804688E0,-1.624128371E-1,-2.727817893E-1,9.804945678E0
1.951181733E0,-9.797411919E0,-1.791625917E-1,-2.608176768E-1,9.802520359E0
1.953626786E0,-9.823733330E0,-1.576271951E-1,-2.703889608E-1,9.828717773E0
1.956070119E0,-9.818947792E0,-1.743769497E-1,-2.679961324E-1,9.824152126E0
1.958514338E0,-9.821340561E0,-1.695913076E-1,-2.656033039E-1,9.826394900E0
1.960959390E0,-9.811769485E0,-1.624128371E-1,-2.560320199E-1,9.816453064E0
1.963402723E0,-9.804591179E0,-1.600200087E-1,-2.632105052E-1,9.809428850E0
1.965846942E0,-9.797411919E0,-1.791625917E-1,-2.584248483E-1,9.802456985E0
1.968291161E0,-9.797411919E0,-1.767697781E-1,-2.560320199E-1,9.802350751E0
1.970735327E0,-9.806983948E0,-1.624128371E-1,-2.560320199E-1,9.811669811E0
1.973180379E0,-9.804591179E0,-1.719841212E-1,-2.512463629E-1,9.809317584E0
1.975623765E0,-9.802198410E0,-1.648056656E-1,-2.608176768E-1,9.807052587E0
1.978067931E0,-9.811769485E0,-1.719841212E-1,-2.464607358E-1,9.816371115E0
1.980512983E0,-9.818947792E0,-1.719841212E-1,-2.512463629E-1,9.823667290E0
1.982956317E0,-9.830911636E0,-1.767697781E-1,-2.488535494E-1,9.835649406E0
1.985400536E0,-9.799804688E0,-1.576271951E-1,-2.679961324E-1,9.804735599E0
1.987844754E0,-9.799804688E0,-1.648056656E-1,-2.679961324E-1,9.804853632E0
1.990288921E0,-9.818947792E0,-1.791625917E-1,-2.679961324E-1,9.824238235E0
1.992733973E0,-9.790233612E0,-1.480558962E-1,-2.536391914E-1,9.794637694E0
1.995177306E0,-9.797411919E0,-1.743769497E-1,-2.536391914E-1,9.802245685E0
1.997621525E0,-9.828518867E0,-1.743769497E-1,-2.799602449E-1,9.834051464E0
2.000066577E0,-9.806983948E0,-1.743769497E-1,-2.512463629E-1,9.811751434E0
2.002509911E0,-9.816555023E0,-1.767697781E-1,-2.751746178E-1,9.822001891E0
2.004954129E0,-9.811769485E0,-1.648056656E-1,-2.656033039E-1,9.816747244E0
2.007398348E0,-9.804591179E0,-1.695913076E-1,-2.632105052E-1,9.809589653E0
2.009842515E0,-9.795019150E0,-1.600200087E-1,-2.775674164E-1,9.800257661E0
2.012287567E0,-9.790233612E0,-1.791625917E-1,-2.679961324E-1,9.795539563E0
2.014730900E0,-9.814162254E0,-1.624128371E-1,-2.440679073E-1,9.818540005E0
2.017175119E0,-9.806983948E0,-1.791625917E-1,-2.440679073E-1,9.811656462E0
2.019620171E0,-9.792626381E0,-1.695913076E-1,-2.416750938E-1,9.797076069E0
2.022063504E0,-9.814162254E0,-1.815554202E-1,-2.512463629E-1,9.819056363E0
2.024507723E0,-9.818947792E0,-1.504487246E-1,-2.536391914E-1,9.823375357E0
2.026951942E0,-9.797411919E0,-1.671984792E-1,-2.392822653E-1,9.801759619E0
2.029396108E0,-9.806983948E0,-1.576271951E-1,-2.679961324E-1,9.811911252E0
2.031841161E0,-9.814162254E0,-1.552343667E-1,-2.727817893E-1,9.819179618E0
2.034284494E0,-9.811769485E0,-1.648056656E-1,-2.608176768E-1,9.816618929E0
2.036728713E0,-9.802198410E0,-1.552343667E-1,-2.488535494E-1,9.806585515E0
2.039173765E0,-9.785448074E0,-1.815554202E-1,-2.727817893E-1,9.790932861E0
2.041617098E0,-9.797411919E0,-1.767697781E-1,-2.368894368E-1,9.801869437E0
2.044061317E0,-9.833304405E0,-1.767697781E-1,-2.608176768E-1,9.838350926E0
2.046505536E0,-9.795019150E0,-1.671984792E-1,-2.632105052E-1,9.799981390E0
2.048949702E0,-9.799804688E0,-1.791625917E-1,-2.440679073E-1,9.804480623E0
2.051394754E0,-9.797411919E0,-1.552343667E-1,-2.632105052E-1,9.802176176E0
2.053838088E0,-9.806983948E0,-1.767697781E-1,-2.464607358E-1,9.811672875E0
2.056282306E0,-9.821340561E0,-1.839482337E-1,-2.775674164E-1,9.826983822E0
2.058727358E0,-9.821340561E0,-1.600200087E-1,-2.727817893E-1,9.826431027E0
2.061170692E0,-9.778269768E0,-1.600200087E-1,-2.584248483E-1,9.782992868E0
2.063614911E0,-9.792626381E0,-1.863410622E-1,-2.632105052E-1,9.797935201E0
2.066059077E0,-9.811769485E0,-1.719841212E-1,-2.632105052E-1,9.816805934E0
2.068503296E0,-9.823733330E0,-1.648056656E-1,-2.656033039E-1,9.828705030E0
2.070948348E0,-9.816555023E0,-1.767697781E-1,-2.656033039E-1,9.821738400E0
2.073391681E0,-9.799804688E0,-1.839482337E-1,-2.536391914E-1,9.804812171E0
2.075835900E0,-9.823733330E0,-1.719841212E-1,-2.512463629E-1,9.828450529E0
2.078280952E0,-9.804591179E0,-1.671984792E-1,-2.560320199E-1,9.809358588E0
2.080724286E0,-9.811769485E0,-1.695913076E-1,-2.799602449E-1,9.817227683E0
2.083168504E0,-9.816555023E0,-1.767697781E-1,-2.536391914E-1,9.821422143E0
2.085612671E0,-9.814162254E0,-1.839482337E-1,-2.632105052E-1,9.819414314E0
2.088056890E0,-9.811769485E0,-1.719841212E-1,-2.416750938E-1,9.816252127E0
2.090501942E0,-9.811769485E0,-1.695913076E-1,-2.727817893E-1,9.817025596E0
2.092945275E0,-9.806983948E0,-1.576271951E-1,-2.584248483E-1,9.811654493E0
2.095389494E0,-9.804591179E0,-1.671984792E-1,-2.512463629E-1,9.809234845E0
2.097834546E0,-9.804591179E0,-1.600200087E-1,-2.751746178E-1,9.809757166E0
2.100277879E0,-9.792626381E0,-1.528415531E-1,-2.775674164E-1,9.797751561E0
2.102722098E0,-9.814162254E0,-1.695913076E-1,-2.727817893E-1,9.819417084E0
2.105166265E0,-9.811769485E0,-1.381855011E-1,-2.536391914E-1,9.816019993E0
2.107610483E0,-9.799804688E0,-1.453639716E-1,-2.512463629E-1,9.804102577E0
2.110055536E0,-9.816555023E0,-1.719841212E-1,-2.440679073E-1,9.821094654E0
2.112498869E0,-9.816555023E0,-1.719841212E-1,-2.560320199E-1,9.821399262E0
2.114943088E0,-9.787840843E0,-1.624128371E-1,-2.440679073E-1,9.792230361E0
2.117388140E0,-9.778269768E0,-1.695913076E-1,-2.584248483E-1,9.783154106E0
2.119831473E0,-9.787840843E0,-1.671984792E-1,-2.488535494E-1,9.792431352E0
2.122275692E0,-9.795019150E0,-1.624128371E-1,-2.464607358E-1,9.799465341E0
2.124719911E0,-9.811769485E0,-1.504487246E-1,-2.608176768E-1,9.816388395E0
2.127164077E0,-9.816555023E0,-1.743769497E-1,-2.512463629E-1,9.821317864E0
2.129609129E0,-9.783055305E0,-1.767697781E-1,-2.560320199E-1,9.788001382E0
2.132052463E0,-9.766305923E0,-1.552343667E-1,-2.679961324E-1,9.771215432E0
2.134496681E0,-9.785448074E0,-1.671984792E-1,-2.727817893E-1,9.790677160E0
2.136941733E0,-9.809376717E0,-1.695913076E-1,-2.512463629E-1,9.814059176E0
2.139385067E0,-9.838089943E0,-1.719841212E-1,-2.703889608E-1,9.843307496E0
2.141829286E0,-9.818947792E0,-1.695913076E-1,-2.584248483E-1,9.823811906E0
2.144273452E0,-9.792626381E0,-1.695913076E-1,-2.632105052E-1,9.797630959E0
2.146717671E0,-9.806983948E0,-1.719841212E-1,-2.464607358E-1,9.811587822E0
2.149162723E0,-9.823733330E0,-1.815554202E-1,-2.560320199E-1,9.828746171E0
2.151606056E0,-9.804591179E0,-1.624128371E-1,-2.584248483E-1,9.809340932E0
2.154050275E0,-9.828518867E0,-1.624128371E-1,-2.656033039E-1,9.833448336E0
2.156495327E0,-9.811769485E0,-1.504487246E-1,-2.488535494E-1,9.816077798E0
2.158938661E0,-9.795019150E0,-1.576271951E-1,-2.679961324E-1,9.799952469E0
2.161382879E0,-9.809376717E0,-1.671984792E-1,-2.560320199E-1,9.814141801E0
2.163827046E0,-9.792626381E0,-1.887338907E-1,-2.632105052E-1,9.797981001E0
2.166271265E0,-9.830911636E0,-1.552343667E-1,-2.416750938E-1,9.835106922E0
2.168716317E0,-9.814162254E0,-1.528415531E-1,-2.368894368E-1,9.818210524E0
2.171159650E0,-9.804591179E0,-1.695913076E-1,-2.440679073E-1,9.809094685E0
2.173603869E0,-9.790233612E0,-1.719841212E-1,-2.608176768E-1,9.795217128E0
2.176048921E0,-9.790233612E0,-1.624128371E-1,-2.488535494E-1,9.794742477E0
2.178492254E0,-9.816555023E0,-1.839482337E-1,-2.488535494E-1,9.821431544E0
2.180936473E0,-9.840482712E0,-1.791625917E-1,-2.679961324E-1,9.845761584E0
2.183380640E0,-9.821340561E0,-1.719841212E-1,-2.392822653E-1,9.825760274E0
2.185824858E0,-9.804591179E0,-1.695913076E-1,-2.560320199E-1,9.809399665E0
2.188269911E0,-9.814162254E0,-1.528415531E-1,-2.679961324E-1,9.819010297E0
2.190713244E0,-9.821340561E0,-1.719841212E-1,-2.536391914E-1,9.826120383E0
2.193157463E0,-9.816555023E0,-1.648056656E-1,-2.440679073E-1,9.820971570E0
2.195602515E0,-9.806983948E0,-1.719841212E-1,-2.632105052E-1,9.812022853E0
2.198045848E0,-9.830911636E0,-1.695913076E-1,-2.727817893E-1,9.836157518E0
2.200490067E0,-9.811769485E0,-1.935195327E-1,-2.512463629E-1,9.816893347E0
2.202934286E0,-9.811769485E0,-1.791625917E-1,-2.512463629E-1,9.816620824E0
2.205378452E0,-9.799804688E0,-1.504487246E-1,-2.584248483E-1,9.804365871E0
2.207823504E0,-9.802198410E0,-1.576271951E-1,-2.416750938E-1,9.806444149E0
2.210266838E0,-9.830911636E0,-1.935195327E-1,-2.656033039E-1,9.836402723E0
2.212711056E0,-9.816555023E0,-1.600200087E-1,-2.560320199E-1,9.821197041E0
2.215156108E0,-9.804591179E0,-1.695913076E-1,-2.632105052E-1,9.809589653E0
2.217599442E0,-9.823733330E0,-1.528415531E-1,-2.608176768E-1,9.828383536E0
2.220043661E0,-9.811769485E0,-1.648056656E-1,-2.823530734E-1,9.817214707E0
2.222487827E0,-9.792626381E0,-1.671984792E-1,-2.536391914E-1,9.797337373E0
2.224932046E0,-9.802198410E0,-1.671984792E-1,-2.584248483E-1,9.807029744E0
2.227377098E0,-9.814162254E0,-1.719841212E-1,-2.584248483E-1,9.819070358E0
2.229820431E0,-9.802198410E0,-1.624128371E-1,-2.321037948E-1,9.806291030E0
2.232264650E0,-9.809376717E0,-1.671984792E-1,-2.584248483E-1,9.814204517E0
2.234709702E0,-9.804591179E0,-1.552343667E-1,-2.512463629E-1,9.809038211E0
2.237153036E0,-9.828518867E0,-1.815554202E-1,-2.703889608E-1,9.833913549E0
2.239597254E0,-9.806983948E0,-1.695913076E-1,-2.584248483E-1,9.811853992E0
2.242041421E0,-9.816555023E0,-1.600200087E-1,-2.656033039E-1,9.821451219E0
2.244485640E0,-9.780662537E0,-1.552343667E-1,-2.751746178E-1,9.785764070E0
2.246930692E0,-9.814162254E0,-1.791625917E-1,-2.679961324E-1,9.819455276E0
2.249374025E0,-9.804591179E0,-1.743769497E-1,-2.679961324E-1,9.809803129E0
2.251818244E0,-9.814162254E0,-1.600200087E-1,-2.679961324E-1,9.819124660E0
2.254263296E0,-9.816555023E0,-1.624128371E-1,-2.727817893E-1,9.821687246E0
2.256706629E0,-9.792626381E0,-1.911267042E-1,-2.488535494E-1,9.797652216E0
2.259150848E0,-9.795019150E0,-1.648056656E-1,-2.464607358E-1,9.799505291E0
2.261595015E0,-9.783055305E0,-1.743769497E-1,-2.536391914E-1,9.787896162E0
2.264039233E0,-9.804591179E0,-1.648056656E-1,-2.440679073E-1,9.809013112E0
2.266484286E0,-9.818947792E0,-1.767697781E-1,-2.703889608E-1,9.824260455E0
2.268927619E0,-9.809376717E0,-1.528415531E-1,-2.703889608E-1,9.814292756E0
2.271371838E0,-9.835697174E0,-1.648056656E-1,-2.392822653E-1,9.839987592E0
2.273816890E0,-9.809376717E0,-1.767697781E-1,-2.464607358E-1,9.814064500E0
2.276260223E0,-9.787840843E0,-1.624128371E-1,-2.321037948E-1,9.791939464E0
2.278704442E0,-9.814162254E0,-1.767697781E-1,-2.871387303E-1,9.819953002E0
2.281148608E0,-9.809376717E0,-1.695913076E-1,-2.799602449E-1,9.814836245E0
2.283592827E0,-9.823733330E0,-1.600200087E-1,-2.464607358E-1,9.828127280E0
2.286037879E0,-9.814162254E0,-1.767697781E-1,-2.656033039E-1,9.819346894E0
2.288481213E0,-9.826126099E0,-1.552343667E-1,-2.727817893E-1,9.831137356E0
2.290925431E0,-9.804591179E0,-1.887338907E-1,-2.536391914E-1,9.809687126E0
2.293370483E0,-9.814162254E0,-1.791625917E-1,-2.440679073E-1,9.818831353E0
2.295813817E0,-9.809376717E0,-1.911267042E-1,-2.727817893E-1,9.815029847E0
2.298258036E0,-9.811769485E0,-1.453639716E-1,-2.512463629E-1,9.816062136E0
2.300702202E0,-9.833304405E0,-1.624128371E-1,-2.656033039E-1,9.838231476E0
2.303146421E0,-9.826126099E0,-1.671984792E-1,-2.584248483E-1,9.830945674E0
2.305591473E0,-9.802198410E0,-1.576271951E-1,-2.727817893E-1,9.807260061E0
2.308034806E0,-9.809376717E0,-1.743769497E-1,-2.679961324E-1,9.814586126E0
2.310479025E0,-9.795019150E0,-1.791625917E-1,-2.488535494E-1,9.799817726E0
2.312924077E0,-9.792626381E0,-1.719841212E-1,-2.799602449E-1,9.798136951E0
2.315367411E0,-9.804591179E0,-1.648056656E-1,-2.344966233E-1,9.808779626E0
2.317811629E0,-9.804591179E0,-1.743769497E-1,-2.512463629E-1,9.809359828E0
2.320255796E0,-9.811769485E0,-1.815554202E-1,-2.656033039E-1,9.817042728E0
2.322700015E0,-9.811769485E0,-1.600200087E-1,-2.536391914E-1,9.816351648E0
2.325145067E0,-9.804591179E0,-1.767697781E-1,-2.512463629E-1,9.809402656E0
2.327588400E0,-9.823733330E0,-1.743769497E-1,-2.632105052E-1,9.828805809E0
2.330032619E0,-9.806983948E0,-1.839482337E-1,-2.632105052E-1,9.812239850E0
2.332477671E0,-9.799804688E0,-1.935195327E-1,-2.847459018E-1,9.805850394E0
2.334921004E0,-9.809376717E0,-1.624128371E-1,-2.656033039E-1,9.814315800E0
2.337365223E0,-9.778269768E0,-1.600200087E-1,-2.536391914E-1,9.782867621E0
2.339809390E0,-9.816555023E0,-1.405783296E-1,-2.799602449E-1,9.821552450E0
2.342253608E0,-9.806983948E0,-1.528415531E-1,-2.488535494E-1,9.811331346E0
2.344698661E0,-9.806983948E0,-1.743769497E-1,-2.727817893E-1,9.812326502E0
2.347141994E0,-9.809376717E0,-1.405783296E-1,-2.536391914E-1,9.813662246E0
2.349586213E0,-9.809376717E0,-1.528415531E-1,-2.344966233E-1,9.813369491E0
2.352031265E0,-9.811769485E0,-1.767697781E-1,-2.488535494E-1,9.816516494E0
2.354474598E0,-9.809376717E0,-1.600200087E-1,-2.632105052E-1,9.814212029E0
2.356918817E0,-9.809376717E0,-1.719841212E-1,-2.560320199E-1,9.814224498E0
2.359362983E0,-9.806983948E0,-1.815554202E-1,-2.584248483E-1,9.812068076E0
2.361807202E0,-9.806983948E0,-1.719841212E-1,-2.703889608E-1,9.812218041E0
2.364252254E0,-9.802198410E0,-1.767697781E-1,-2.464607358E-1,9.806889625E0
2.366695588E0,-9.809376717E0,-1.671984792E-1,-2.584248483E-1,9.814204517E0
2.369139806E0,-9.804591179E0,-1.791625917E-1,-2.584248483E-1,9.809632553E0
2.371584858E0,-9.821340561E0,-1.624128371E-1,-2.632105052E-1,9.826209244E0
2.374028192E0,-9.799804688E0,-1.576271951E-1,-2.536391914E-1,9.804353680E0
2.376472411E0,-9.826126099E0,-1.719841212E-1,-2.751746178E-1,9.831482783E0
2.378916629E0,-9.802198410E0,-1.695913076E-1,-2.632105052E-1,9.807198104E0
2.381360796E0,-9.809376717E0,-1.624128371E-1,-2.751746178E-1,9.814579490E0
2.383805848E0,-9.816555023E0,-1.528415531E-1,-2.656033039E-1,9.821336883E0
2.386249181E0,-9.799804688E0,-1.743769497E-1,-2.656033039E-1,9.804954072E0
2.388693400E0,-9.814162254E0,-1.624128371E-1,-2.751746178E-1,9.819362492E0
2.391138452E0,-9.802198410E0,-1.719841212E-1,-2.560320199E-1,9.807049740E0
2.393581786E0,-9.833304405E0,-1.695913076E-1,-2.679961324E-1,9.838417488E0
2.396026004E0,-9.802198410E0,-1.648056656E-1,-2.632105052E-1,9.807116515E0
2.398470171E0,-9.818947792E0,-1.648056656E-1,-2.679961324E-1,9.823986898E0
2.400914390E0,-9.823733330E0,-1.504487246E-1,-2.632105052E-1,9.828410407E0
2.403359442E0,-9.814162254E0,-1.791625917E-1,-2.488535494E-1,9.818951475E0
2.405802775E0,-9.816555023E0,-1.815554202E-1,-2.560320199E-1,9.821571528E0
2.408246994E0,-9.806983948E0,-1.648056656E-1,-2.608176768E-1,9.811835757E0
2.410692046E0,-9.809376717E0,-1.719841212E-1,-2.512463629E-1,9.814100817E0
2.413135379E0,-9.818947792E0,-1.648056656E-1,-2.584248483E-1,9.823730455E0
2.415579598E0,-9.809376717E0,-1.528415531E-1,-2.560320199E-1,9.813907708E0
2.418023765E0,-9.830911636E0,-1.695913076E-1,-2.344966233E-1,9.835170231E0
2.420467983E0,-9.804591179E0,-1.671984792E-1,-2.632105052E-1,9.809548577E0
2.422913036E0,-9.792626381E0,-1.719841212E-1,-2.632105052E-1,9.797672670E0
2.425356369E0,-9.802198410E0,-1.600200087E-1,-2.416750938E-1,9.806482903E0
2.427800588E0,-9.814162254E0,-1.600200087E-1,-2.608176768E-1,9.818931358E0
2.430245640E0,-9.792626381E0,-1.576271951E-1,-2.512463629E-1,9.797117051E0
2.432688973E0,-9.802198410E0,-1.576271951E-1,-2.751746178E-1,9.807326908E0
2.435133192E0,-9.814162254E0,-1.671984792E-1,-2.464607358E-1,9.818680104E0
2.437577358E0,-9.806983948E0,-1.791625917E-1,-2.488535494E-1,9.811776673E0
2.440021577E0,-9.799804688E0,-1.648056656E-1,-2.584248483E-1,9.804596688E0
2.442466629E0,-9.811769485E0,-1.767697781E-1,-2.584248483E-1,9.816763794E0
2.444909963E0,-9.816555023E0,-1.600200087E-1,-2.584248483E-1,9.821259712E0
2.447354181E0,-9.806983948E0,-1.791625917E-1,-2.703889608E-1,9.812346487E0
2.449799233E0,-9.802198410E0,-1.624128371E-1,-2.632105052E-1,9.807076596E0
2.452242567E0,-9.795019150E0,-1.552343667E-1,-2.536391914E-1,9.799532167E0
2.454686786E0,-9.804591179E0,-1.719841212E-1,-2.297109663E-1,9.808789622E0
2.457130952E0,-9.823733330E0,-1.624128371E-1,-2.416750938E-1,9.828047686E0
2.459575171E0,-9.804591179E0,-1.480558962E-1,-2.775674164E-1,9.809636711E0
2.462020223E0,-9.809376717E0,-1.624128371E-1,-2.727817893E-1,9.814512693E0
2.464463556E0,-9.802198410E0,-1.695913076E-1,-2.560320199E-1,9.807008070E0
2.466907775E0,-9.811769485E0,-1.767697781E-1,-2.632105052E-1,9.816890942E0
2.469352827E0,-9.795019150E0,-1.648056656E-1,-2.799602449E-1,9.800405032E0
2.471796161E0,-9.811769485E0,-1.671984792E-1,-2.751746178E-1,9.817051331E0
2.474240379E0,-9.811769485E0,-1.743769497E-1,-2.584248483E-1,9.816720998E0
2.476684546E0,-9.814162254E0,-1.671984792E-1,-2.656033039E-1,9.819179253E0
2.479128765E0,-9.814162254E0,-1.791625917E-1,-2.632105052E-1,9.819325830E0
2.481573817E0,-9.811769485E0,-1.767697781E-1,-2.608176768E-1,9.816827077E0
2.484017150E0,-9.816555023E0,-1.791625917E-1,-2.656033039E-1,9.821781757E0
2.486461369E0,-9.816555023E0,-1.504487246E-1,-2.679961324E-1,9.821364939E0
2.488906421E0,-9.806983948E0,-1.648056656E-1,-2.608176768E-1,9.811835757E0
2.491349754E0,-9.806983948E0,-1.791625917E-1,-2.751746178E-1,9.812479526E0
2.493793973E0,-9.828518867E0,-1.648056656E-1,-2.656033039E-1,9.833488148E0
2.496238140E0,-9.826126099E0,-1.528415531E-1,-2.608176768E-1,9.830775173E0
2.498682358E0,-9.821340561E0,-1.767697781E-1,-2.584248483E-1,9.826330005E0
2.501127411E0,-9.814162254E0,-1.695913076E-1,-2.775674164E-1,9.819551193E0
2.503570744E0,-9.821340561E0,-1.648056656E-1,-2.727817893E-1,9.826510124E0
2.506014963E0,-9.802198410E0,-1.695913076E-1,-2.464607358E-1,9.806762859E0
2.508460015E0,-9.809376717E0,-1.767697781E-1,-2.416750938E-1,9.813945485E0
2.510903348E0,-9.806983948E0,-1.839482337E-1,-2.584248483E-1,9.812112642E0
2.513347567E0,-9.821340561E0,-1.863410622E-1,-2.560320199E-1,9.826444209E0
2.515791733E0,-9.809376717E0,-1.815554202E-1,-2.536391914E-1,9.814334760E0
2.518235952E0,-9.795019150E0,-1.504487246E-1,-2.584248483E-1,9.799582561E0
2.520681004E0,-9.799804688E0,-1.671984792E-1,-2.464607358E-1,9.804329153E0
2.523124338E0,-9.804591179E0,-1.743769497E-1,-2.584248483E-1,9.809546315E0
2.525568556E0,-9.804591179E0,-1.791625917E-1,-2.512463629E-1,9.809446068E0
2.528013608E0,-9.790233612E0,-1.767697781E-1,-2.584248483E-1,9.795238901E0
2.530456942E0,-9.811769485E0,-1.624128371E-1,-2.608176768E-1,9.816579049E0
2.532901161E0,-9.811769485E0,-1.815554202E-1,-2.560320199E-1,9.816788436E0
2.535345327E0,-9.823733330E0,-1.624128371E-1,-2.632105052E-1,9.828600828E0
2.537789546E0,-9.802198410E0,-1.719841212E-1,-2.632105052E-1,9.807239774E0
2.540234598E0,-9.821340561E0,-1.600200087E-1,-2.632105052E-1,9.826169986E0
2.542677931E0,-9.816555023E0,-1.695913076E-1,-2.799602449E-1,9.822010562E0
2.545122150E0,-9.806983948E0,-1.743769497E-1,-2.584248483E-1,9.811937876E0
2.547567202E0,-9.806983948E0,-1.576271951E-1,-2.703889608E-1,9.811976899E0
2.550010536E0,-9.802198410E0,-1.719841212E-1,-2.536391914E-1,9.806987562E0
2.552454754E0,-9.797411919E0,-1.791625917E-1,-2.488535494E-1,9.802209324E0
2.554898921E0,-9.806983948E0,-1.719841212E-1,-2.464607358E-1,9.811587822E0
2.557343140E0,-9.821340561E0,-1.624128371E-1,-2.560320199E-1,9.826019578E0
2.559788192E0,-9.816555023E0,-1.504487246E-1,-2.775674164E-1,9.821630772E0
2.562231525E0,-9.816555023E0,-1.695913076E-1,-2.656033039E-1,9.821611825E0
2.564675744E0,-9.809376717E0,-1.695913076E-1,-2.656033039E-1,9.814437217E0
2.567120796E0,-9.818947792E0,-1.671984792E-1,-2.847459018E-1,9.824498527E0
2.569564129E0,-9.804591179E0,-1.671984792E-1,-2.608176768E-1,9.809484664E0
2.572008348E0,-9.818947792E0,-1.648056656E-1,-2.512463629E-1,9.823544237E0
2.574452515E0,-9.821340561E0,-1.552343667E-1,-2.536391914E-1,9.825841489E0
2.576896733E0,-9.814162254E0,-1.719841212E-1,-2.344966233E-1,9.818469736E0
2.579341786E0,-9.816555023E0,-1.648056656E-1,-2.416750938E-1,9.820912396E0
2.581785119E0,-9.814162254E0,-1.648056656E-1,-2.632105052E-1,9.819074367E0
2.584229338E0,-9.811769485E0,-1.504487246E-1,-2.536391914E-1,9.816200288E0
2.586674390E0,-9.821340561E0,-1.719841212E-1,-2.440679073E-1,9.825877981E0
2.589117723E0,-9.797411919E0,-1.743769497E-1,-2.512463629E-1,9.802184061E0
2.591561942E0,-9.795019150E0,-1.695913076E-1,-2.727817893E-1,9.800284244E0
2.594006108E0,-9.809376717E0,-1.671984792E-1,-2.608176768E-1,9.814267816E0
2.596450327E0,-9.816555023E0,-1.600200087E-1,-2.751746178E-1,9.821714718E0
2.598895379E0,-9.802198410E0,-1.815554202E-1,-2.799602449E-1,9.807876109E0
2.601338713E0,-9.799804688E0,-1.767697781E-1,-2.895315289E-1,9.805674274E0
2.603782931E0,-9.799804688E0,-1.815554202E-1,-2.608176768E-1,9.804955897E0
2.606227983E0,-9.795019150E0,-1.791625917E-1,-2.656033039E-1,9.800257369E0
2.608671317E0,-9.816555023E0,-1.624128371E-1,-2.656033039E-1,9.821490496E0
2.611115536E0,-9.814162254E0,-1.648056656E-1,-2.512463629E-1,9.818760940E0
2.613559754E0,-9.816555023E0,-1.624128371E-1,-2.321037948E-1,9.820641661E0
2.616003921E0,-9.814162254E0,-1.719841212E-1,-2.464607358E-1,9.818762763E0
2.618448973E0,-9.816555023E0,-1.648056656E-1,-2.823530734E-1,9.821997592E0
2.620892306E0,-9.804591179E0,-1.791625917E-1,-2.608176768E-1,9.809695881E0
2.623336525E0,-9.814162254E0,-1.695913076E-1,-2.679961324E-1,9.819285305E0
2.625781577E0,-9.809376717E0,-1.863410622E-1,-2.560320199E-1,9.814486586E0
2.628224911E0,-9.802198410E0,-1.839482337E-1,-2.297109663E-1,9.806615000E0
2.630669129E0,-9.809376717E0,-1.648056656E-1,-2.440679073E-1,9.813796494E0
2.633113296E0,-9.804591179E0,-1.815554202E-1,-2.584248483E-1,9.809676547E0
2.635557515E0,-9.806983948E0,-1.600200087E-1,-2.512463629E-1,9.811506780E0
2.638002567E0,-9.797411919E0,-1.815554202E-1,-2.560320199E-1,9.802438221E0
2.640445900E0,-9.838089943E0,-1.576271951E-1,-2.608176768E-1,9.842808843E0
2.642890119E0,-9.806983948E0,-1.624128371E-1,-2.727817893E-1,9.812121177E0
2.645335171E0,-9.802198410E0,-1.743769497E-1,-2.632105052E-1,9.807282027E0
2.647778504E0,-9.792626381E0,-1.600200087E-1,-2.703889608E-1,9.797665438E0
2.650222723E0,-9.816555023E0,-1.528415531E-1,-2.632105052E-1,9.821272465E0
2.652666890E0,-9.811769485E0,-1.719841212E-1,-2.679961324E-1,9.816935413E0
2.655111108E0,-9.809376717E0,-1.600200087E-1,-2.464607358E-1,9.813777095E0
2.657556161E0,-9.806983948E0,-1.743769497E-1,-2.656033039E-1,9.812129564E0
2.659999494E0,-9.787840843E0,-1.743769497E-1,-2.488535494E-1,9.792556550E0
2.662443713E0,-9.818947792E0,-1.863410622E-1,-2.584248483E-1,9.824115336E0
2.664888765E0,-9.811769485E0,-1.648056656E-1,-2.512463629E-1,9.816369292E0
2.667332098E0,-9.828518867E0,-1.480558962E-1,-2.440679073E-1,9.832663567E0
2.669776317E0,-9.804591179E0,-1.648056656E-1,-2.512463629E-1,9.809194352E0
2.672220483E0,-9.804591179E0,-1.719841212E-1,-2.703889608E-1,9.809826549E0
2.674664702E0,-9.804591179E0,-1.600200087E-1,-2.656033039E-1,9.809493346E0
2.677109754E0,-9.799804688E0,-1.815554202E-1,-2.416750938E-1,9.804465367E0
2.679553088E0,-9.823733330E0,-1.767697781E-1,-2.632105052E-1,9.828848552E0
2.681997306E0,-9.814162254E0,-1.504487246E-1,-2.560320199E-1,9.818654081E0
2.684442358E0,-9.809376717E0,-1.624128371E-1,-2.679961324E-1,9.814380848E0
2.686885692E0,-9.826126099E0,-1.695913076E-1,-2.679961324E-1,9.831242915E0
2.689329911E0,-9.821340561E0,-1.743769497E-1,-2.392822653E-1,9.825802447E0
2.691774077E0,-9.809376717E0,-1.576271951E-1,-2.608176768E-1,9.814109423E0
2.694218296E0,-9.795019150E0,-1.576271951E-1,-2.679961324E-1,9.799952469E0
2.696663348E0,-9.816555023E0,-1.624128371E-1,-2.368894368E-1,9.820755931E0
2.699106681E0,-9.802198410E0,-1.695913076E-1,-2.584248483E-1,9.807070831E0
2.701550900E0,-9.806983948E0,-1.671984792E-1,-2.584248483E-1,9.811812926E0
2.703995952E0,-9.818947792E0,-1.719841212E-1,-2.560320199E-1,9.823790851E0
2.706439286E0,-9.802198410E0,-1.671984792E-1,-2.608176768E-1,9.807093089E0
2.708883504E0,-9.814162254E0,-1.671984792E-1,-2.703889608E-1,9.819309868E0
2.711327723E0,-9.814162254E0,-1.719841212E-1,-2.679961324E-1,9.819326923E0
2.713771890E0,-9.799804688E0,-1.648056656E-1,-2.344966233E-1,9.803995180E0
2.716216942E0,-9.826126099E0,-1.719841212E-1,-2.584248483E-1,9.831028229E0
2.718660275E0,-9.821340561E0,-1.624128371E-1,-2.416750938E-1,9.825655968E0
2.721104494E0,-9.814162254E0,-1.719841212E-1,-2.464607358E-1,9.818762763E0
2.723549546E0,-9.792626381E0,-1.624128371E-1,-2.536391914E-1,9.797256871E0
2.725992879E0,-9.802198410E0,-1.624128371E-1,-2.560320199E-1,9.806886560E0
2.728437098E0,-9.797411919E0,-1.648056656E-1,-2.679961324E-1,9.802462096E0
2.730881317E0,-9.811769485E0,-1.743769497E-1,-2.679961324E-1,9.816977625E0
2.733325483E0,-9.823733330E0,-1.648056656E-1,-2.536391914E-1,9.828388997E0
2.735770536E0,-9.809376717E0,-1.576271951E-1,-2.679961324E-1,9.814302819E0
2.738213921E0,-9.799804688E0,-1.695913076E-1,-2.488535494E-1,9.804430693E0
2.740658088E0,-9.830911636E0,-1.576271951E-1,-2.608176768E-1,9.835633980E0
2.743103140E0,-9.792626381E0,-1.671984792E-1,-2.536391914E-1,9.797337373E0
2.745546473E0,-9.804591179E0,-1.600200087E-1,-2.895315289E-1,9.810170391E0
2.747990692E0,-9.816555023E0,-1.624128371E-1,-2.584248483E-1,9.821298990E0
2.750434911E0,-9.790233612E0,-1.576271951E-1,-2.321037948E-1,9.794253044E0
2.752879077E0,-9.799804688E0,-1.719841212E-1,-2.464607358E-1,9.804411933E0
2.755324129E0,-9.804591179E0,-1.695913076E-1,-2.703889608E-1,9.809784890E0
2.757767463E0,-9.818947792E0,-1.887338907E-1,-2.608176768E-1,9.824224249E0
2.760211681E0,-9.795019150E0,-1.648056656E-1,-2.727817893E-1,9.800202598E0
2.762656733E0,-9.797411919E0,-1.863410622E-1,-2.536391914E-1,9.802465819E0
2.765100067E0,-9.802198410E0,-1.600200087E-1,-2.416750938E-1,9.806482903E0
2.767544286E0,-9.811769485E0,-1.504487246E-1,-2.488535494E-1,9.816077798E0
2.769988504E0,-9.811769485E0,-1.648056656E-1,-2.368894368E-1,9.816012324E0
2.772432671E0,-9.811769485E0,-1.743769497E-1,-2.392822653E-1,9.816235722E0
2.774877723E0,-9.814162254E0,-1.743769497E-1,-2.536391914E-1,9.818987774E0
2.777321056E0,-9.811769485E0,-1.504487246E-1,-2.512463629E-1,9.816138752E0
2.779765275E0,-9.814162254E0,-1.719841212E-1,-2.703889608E-1,9.819392521E0
2.782210327E0,-9.828518867E0,-1.552343667E-1,-2.823530734E-1,9.833799067E0
2.784653661E0,-9.814162254E0,-1.767697781E-1,-2.464607358E-1,9.818847753E0
2.787097879E0,-9.828518867E0,-1.743769497E-1,-2.344966233E-1,9.832862204E0
2.789542098E0,-9.811769485E0,-1.576271951E-1,-2.440679073E-1,9.816070289E0
2.791986265E0,-9.809376717E0,-1.648056656E-1,-2.608176768E-1,9.814227343E0
2.794431317E0,-9.799804688E0,-1.839482337E-1,-2.656033039E-1,9.805128963E0
2.796874650E0,-9.818947792E0,-1.576271951E-1,-2.656033039E-1,9.823804110E0
2.799318869E0,-9.814162254E0,-1.671984792E-1,-2.632105052E-1,9.819114820E0
2.801763921E0,-9.821340561E0,-1.791625917E-1,-2.512463629E-1,9.826187174E0
2.804207254E0,-9.814162254E0,-1.528415531E-1,-2.632105052E-1,9.818880846E0
2.806651473E0,-9.799804688E0,-1.576271951E-1,-2.560320199E-1,9.804415875E0
2.809095692E0,-9.823733330E0,-1.743769497E-1,-2.584248483E-1,9.828678815E0
2.811539858E0,-9.804591179E0,-1.648056656E-1,-2.632105052E-1,9.809508085E0
2.813984911E0,-9.792626381E0,-1.815554202E-1,-2.656033039E-1,9.797909926E0
2.816428244E0,-9.799804688E0,-1.791625917E-1,-2.799602449E-1,9.805439760E0
2.818872463E0,-9.804591179E0,-1.576271951E-1,-2.895315289E-1,9.810131652E0
2.821317515E0,-9.806983948E0,-1.624128371E-1,-2.679961324E-1,9.811989299E0
2.823760848E0,-9.804591179E0,-1.624128371E-1,-2.703889608E-1,9.809663414E0
2.826205067E0,-9.797411919E0,-1.671984792E-1,-2.679961324E-1,9.802502617E0
2.828649286E0,-9.823733330E0,-1.863410622E-1,-2.775674164E-1,9.829420288E0
2.831093452E0,-9.804591179E0,-1.695913076E-1,-2.536391914E-1,9.809337502E0
2.833538504E0,-9.802198410E0,-1.743769497E-1,-2.560320199E-1,9.807091994E0
2.835981838E0,-9.797411919E0,-1.839482337E-1,-2.608176768E-1,9.802608995E0
2.838426056E0,-9.814162254E0,-1.839482337E-1,-2.656033039E-1,9.819478745E0
2.840871108E0,-9.787840843E0,-1.743769497E-1,-2.584248483E-1,9.792804455E0
2.843314442E0,-9.818947792E0,-1.552343667E-1,-2.488535494E-1,9.823327417E0
2.845758661E0,-9.818947792E0,-1.576271951E-1,-2.703889608E-1,9.823934663E0
2.848202879E0,-9.814162254E0,-1.695913076E-1,-2.703889608E-1,9.819350903E0
2.850647046E0,-9.814162254E0,-1.767697781E-1,-2.584248483E-1,9.819155346E0
2.853092098E0,-9.823733330E0,-1.743769497E-1,-2.632105052E-1,9.828805809E0
2.855535483E0,-9.809376717E0,-1.624128371E-1,-2.679961324E-1,9.814380848E0
2.857979650E0,-9.804591179E0,-1.671984792E-1,-2.727817893E-1,9.809810060E0
2.860424702E0,-9.809376717E0,-1.719841212E-1,-2.464607358E-1,9.813979468E0
2.862868036E0,-9.809376717E0,-1.648056656E-1,-2.560320199E-1,9.814101328E0
2.865312254E0,-9.809376717E0,-1.743769497E-1,-2.608176768E-1,9.814392735E0
2.867756473E0,-9.811769485E0,-1.648056656E-1,-2.560320199E-1,9.816492945E0
2.870200640E0,-9.792626381E0,-1.600200087E-1,-2.584248483E-1,9.797342560E0
2.872645692E0,-9.790233612E0,-1.648056656E-1,-2.703889608E-1,9.795353249E0
2.875089025E0,-9.826126099E0,-1.695913076E-1,-2.608176768E-1,9.831049851E0
2.877533244E0,-9.809376717E0,-1.600200087E-1,-2.440679073E-1,9.813717293E0
2.879978296E0,-9.806983948E0,-1.624128371E-1,-2.584248483E-1,9.811732542E0
2.882421629E0,-9.816555023E0,-1.695913076E-1,-2.656033039E-1,9.821611825E0
2.884865848E0,-9.814162254E0,-1.791625917E-1,-2.560320199E-1,9.819136030E0
2.887310067E0,-9.795019150E0,-1.552343667E-1,-2.679961324E-1,9.799914274E0
2.889754233E0,-9.816555023E0,-1.719841212E-1,-2.608176768E-1,9.821525183E0
2.892199286E0,-9.830911636E0,-1.695913076E-1,-2.584248483E-1,9.835769833E0
2.894642671E0,-9.799804688E0,-1.863410622E-1,-2.608176768E-1,9.805045679E0
2.897086838E0,-9.799804688E0,-1.648056656E-1,-2.632105052E-1,9.804723994E0
2.899531890E0,-9.830911636E0,-1.719841212E-1,-2.679961324E-1,9.836067510E0
2.901975223E0,-9.823733330E0,-1.695913076E-1,-2.679961324E-1,9.828851391E0
2.904419442E0,-9.818947792E0,-1.671984792E-1,-2.560320199E-1,9.823708234E0
2.906863661E0,-9.814162254E0,-1.528415531E-1,-2.895315289E-1,9.819621673E0
2.909307827E0,-9.842875481E0,-1.743769497E-1,-2.512463629E-1,9.847625591E0
2.911752879E0,-9.818947792E0,-1.648056656E-1,-2.560320199E-1,9.823667800E0
2.914196265E0,-9.787840843E0,-1.648056656E-1,-2.584248483E-1,9.792638699E0
2.916640431E0,-9.814162254E0,-1.863410622E-1,-2.751746178E-1,9.819787412E0
2.919085483E0,-9.804591179E0,-1.767697781E-1,-2.584248483E-1,9.809589142E0
2.921528817E0,-9.785448074E0,-1.695913076E-1,-2.536391914E-1,9.790203679E0
2.923973036E0,-9.792626381E0,-1.743769497E-1,-2.560320199E-1,9.797524746E0
2.926417254E0,-9.811769485E0,-1.839482337E-1,-2.488535494E-1,9.816648383E0
2.928861421E0,-9.833304405E0,-1.719841212E-1,-2.703889608E-1,9.838524496E0
2.931306473E0,-9.823733330E0,-1.671984792E-1,-2.895315289E-1,9.829421162E0
2.933749858E0,-9.804591179E0,-1.791625917E-1,-2.727817893E-1,9.810021270E0
2.936194025E0,-9.809376717E0,-1.600200087E-1,-2.727817893E-1,9.814473388E0
2.938639077E0,-9.816555023E0,-1.600200087E-1,-2.560320199E-1,9.821197041E0
2.941082463E0,-9.802198410E0,-1.887338907E-1,-2.608176768E-1,9.807483878E0
2.943526629E0,-9.804591179E0,-1.600200087E-1,-2.560320199E-1,9.809238859E0
2.945970848E0,-9.811769485E0,-1.887338907E-1,-2.488535494E-1,9.816739225E0
2.948415015E0,-9.833304405E0,-1.743769497E-1,-2.536391914E-1,9.838120536E0
2.950860067E0,-9.818947792E0,-1.600200087E-1,-2.632105052E-1,9.823778393E0
2.953303452E0,-9.804591179E0,-1.624128371E-1,-2.703889608E-1,9.809663414E0
2.955747619E0,-9.814162254E0,-1.815554202E-1,-2.560320199E-1,9.819179982E0
2.958192671E0,-9.799804688E0,-1.695913076E-1,-2.464607358E-1,9.804370251E0
2.960636056E0,-9.802198410E0,-1.743769497E-1,-2.608176768E-1,9.807218099E0
2.963080223E0,-9.818947792E0,-1.528415531E-1,-2.584248483E-1,9.823537025E0
2.965524442E0,-9.816555023E0,-1.695913076E-1,-2.608176768E-1,9.821483574E0
2.967968608E0,-9.809376717E0,-1.552343667E-1,-2.608176768E-1,9.814071282E0
2.970413661E0,-9.818947792E0,-1.624128371E-1,-2.679961324E-1,9.823947048E0
2.972857046E0,-9.806983948E0,-1.671984792E-1,-2.703889608E-1,9.812135327E0
2.975301213E0,-9.792626381E0,-1.719841212E-1,-2.584248483E-1,9.797545273E0
2.977746265E0,-9.806983948E0,-1.552343667E-1,-2.895315289E-1,9.812484923E0
2.980189650E0,-9.797411919E0,-1.648056656E-1,-2.656033039E-1,9.802396968E0
2.982633817E0,-9.806983948E0,-1.600200087E-1,-2.560320199E-1,9.811630494E0
2.985078036E0,-9.823733330E0,-1.671984792E-1,-2.727817893E-1,9.828942047E0
2.987522202E0,-9.802198410E0,-1.648056656E-1,-2.512463629E-1,9.806802706E0
2.989967254E0,-9.809376717E0,-1.767697781E-1,-2.560320199E-1,9.814309528E0
2.992410640E0,-9.797411919E0,-1.480558962E-1,-2.464607358E-1,9.801629647E0
2.994854806E0,-9.809376717E0,-1.576271951E-1,-2.656033039E-1,9.814237771E0
2.997299858E0,-9.816555023E0,-1.429711580E-1,-2.775674164E-1,9.821519075E0
2.999743244E0,-9.811769485E0,-1.719841212E-1,-2.440679073E-1,9.816311329E0
3.002187411E0,-9.783055305E0,-1.719841212E-1,-2.679961324E-1,9.788236387E0
3.004631629E0,-9.826126099E0,-1.695913076E-1,-2.392822653E-1,9.830502089E0
3.007075796E0,-9.792626381E0,-1.671984792E-1,-2.440679073E-1,9.797094259E0
3.009520848E0,-9.797411919E0,-1.576271951E-1,-2.440679073E-1,9.801719022E0
3.011964233E0,-9.795019150E0,-1.695913076E-1,-2.656033039E-1,9.800087064E0
3.014408400E0,-9.816555023E0,-1.552343667E-1,-2.560320199E-1,9.821120233E0
3.016853452E0,-9.799804688E0,-1.624128371E-1,-2.488535494E-1,9.804309151E0
3.019296838E0,-9.806983948E0,-1.648056656E-1,-2.632105052E-1,9.811899654E0
3.021741004E0,-9.816555023E0,-1.767697781E-1,-2.751746178E-1,9.822001891E0
3.024185223E0,-9.806983948E0,-1.839482337E-1,-2.632105052E-1,9.812239850E0
3.026629390E0,-9.823733330E0,-1.600200087E-1,-2.488535494E-1,9.828187576E0
3.029074442E0,-9.799804688E0,-1.767697781E-1,-2.536391914E-1,9.804680123E0
3.031517827E0,-9.818947792E0,-1.624128371E-1,-2.847459018E-1,9.824418247E0
3.033961994E0,-9.818947792E0,-1.648056656E-1,-2.464607358E-1,9.823423005E0
3.036407046E0,-9.790233612E0,-1.648056656E-1,-2.679961324E-1,9.795287490E0
3.038850431E0,-9.792626381E0,-1.480558962E-1,-2.703889608E-1,9.797477337E0
3.041294598E0,-9.785448074E0,-1.600200087E-1,-2.656033039E-1,9.790359827E0
3.043738817E0,-9.814162254E0,-1.648056656E-1,-2.656033039E-1,9.819138800E0
3.046183036E0,-9.826126099E0,-1.719841212E-1,-2.703889608E-1,9.831350001E0
3.048628036E0,-9.818947792E0,-1.600200087E-1,-2.632105052E-1,9.823778393E0
3.051071421E0,-9.818947792E0,-1.480558962E-1,-2.560320199E-1,9.823401075E0
3.053515588E0,-9.823733330E0,-1.719841212E-1,-2.584248483E-1,9.828636654E0
3.055960640E0,-9.806983948E0,-1.600200087E-1,-2.584248483E-1,9.811693226E0
3.058404025E0,-9.838089943E0,-1.767697781E-1,-2.488535494E-1,9.842824258E0
3.060848192E0,-9.792626381E0,-1.600200087E-1,-2.632105052E-1,9.797469960E0
3.063292411E0,-9.806983948E0,-1.671984792E-1,-2.608176768E-1,9.811876240E0
3.065736629E0,-9.816555023E0,-1.648056656E-1,-2.799602449E-1,9.821929096E0
3.068181629E0,-9.804591179E0,-1.671984792E-1,-2.584248483E-1,9.809421335E0
3.070625015E0,-9.814162254E0,-1.600200087E-1,-2.751746178E-1,9.819323206E0
3.073069181E0,-9.797411919E0,-1.528415531E-1,-2.727817893E-1,9.802400254E0
3.075514233E0,-9.809376717E0,-1.429711580E-1,-2.488535494E-1,9.813574293E0
3.077957619E0,-9.804591179E0,-1.791625917E-1,-2.656033039E-1,9.809824287E0
3.080401786E0,-9.821340561E0,-1.743769497E-1,-2.823530734E-1,9.826945659E0
3.082846004E0,-9.806983948E0,-1.624128371E-1,-2.656033039E-1,9.811924235E0
3.085290223E0,-9.799804688E0,-1.552343667E-1,-2.632105052E-1,9.804567782E0
3.087735223E0,-9.804591179E0,-1.791625917E-1,-2.703889608E-1,9.809955026E0
3.090178608E0,-9.797411919E0,-1.695913076E-1,-2.751746178E-1,9.802742605E0
3.092622775E0,-9.797411919E0,-1.624128371E-1,-2.727817893E-1,9.802554164E0
3.095067827E0,-9.814162254E0,-1.743769497E-1,-2.775674164E-1,9.819635011E0
3.097511213E0,-9.816555023E0,-1.791625917E-1,-2.584248483E-1,9.821590256E0
3.099955379E0,-9.816555023E0,-1.648056656E-1,-2.488535494E-1,9.821091666E0
3.102399598E0,-9.818947792E0,-1.648056656E-1,-2.368894368E-1,9.823187530E0
3.104843765E0,-9.811769485E0,-1.480558962E-1,-2.488535494E-1,9.816041416E0
3.107288817E0,-9.783055305E0,-1.528415531E-1,-2.632105052E-1,9.787788893E0
3.109732202E0,-9.799804688E0,-1.671984792E-1,-2.656033039E-1,9.804829033E0
3.112176421E0,-9.809376717E0,-1.648056656E-1,-2.679961324E-1,9.814420737E0
3.114621421E0,-9.790233612E0,-1.887338907E-1,-2.584248483E-1,9.795462116E0
3.117064806E0,-9.802198410E0,-1.815554202E-1,-2.536391914E-1,9.807160082E0
3.119508973E0,-9.818947792E0,-1.695913076E-1,-2.679961324E-1,9.824068347E0
3.121953192E0,-9.816555023E0,-1.624128371E-1,-2.632105052E-1,9.821426079E0
3.124397411E0,-9.809376717E0,-1.624128371E-1,-2.440679073E-1,9.813756602E0
3.126842411E0,-9.823733330E0,-1.648056656E-1,-2.488535494E-1,9.828266660E0
3.129285796E0,-9.814162254E0,-1.743769497E-1,-2.632105052E-1,9.819239678E0
3.131729963E0,-9.826126099E0,-1.695913076E-1,-2.536391914E-1,9.830862025E0
3.134175015E0,-9.804591179E0,-1.791625917E-1,-2.536391914E-1,9.809507646E0
3.136618400E0,-9.806983948E0,-1.767697781E-1,-2.656033039E-1,9.812172380E0
3.139062567E0,-9.811769485E0,-1.743769497E-1,-2.512463629E-1,9.816534648E0
3.141506786E0,-9.809376717E0,-1.743769497E-1,-2.560320199E-1,9.814266722E0
3.143951004E0,-9.806983948E0,-1.719841212E-1,-2.632105052E-1,9.812022853E0
3.146396056E0,-9.811769485E0,-1.743769497E-1,-2.679961324E-1,9.816977625E0
3.148839390E0,-9.821340561E0,-1.552343667E-1,-2.751746178E-1,9.826420976E0
3.151283556E0,-9.806983948E0,-1.767697781E-1,-2.536391914E-1,9.811855816E0
3.153728608E0,-9.799804688E0,-1.552343667E-1,-2.679961324E-1,9.804697423E0
3.156171994E0,-9.809376717E0,-1.719841212E-1,-2.321037948E-1,9.813629414E0
3.158616161E0,-9.802198410E0,-1.624128371E-1,-2.584248483E-1,9.806949322E0
3.161060379E0,-9.818947792E0,-1.600200087E-1,-2.584248483E-1,9.823651335E0
3.163504598E0,-9.818947792E0,-1.791625917E-1,-2.512463629E-1,9.823795586E0
3.165949650E0,-9.816555023E0,-1.743769497E-1,-2.560320199E-1,9.821441454E0
3.168392983E0,-9.804591179E0,-1.719841212E-1,-2.488535494E-1,9.809256588E0
3.170837202E0,-9.809376717E0,-1.695913076E-1,-2.632105052E-1,9.814372754E0
3.173282202E0,-9.806983948E0,-1.648056656E-1,-2.560320199E-1,9.811709711E0
3.175725588E0,-9.816555023E0,-1.743769497E-1,-2.584248483E-1,9.821504123E0
3.178169754E0,-9.804591179E0,-1.815554202E-1,-2.632105052E-1,9.809803786E0
3.180613973E0,-9.802198410E0,-1.791625917E-1,-2.584248483E-1,9.807241014E0
3.183058192E0,-9.814162254E0,-1.552343667E-1,-2.584248483E-1,9.818791263E0
3.185503244E0,-9.809376717E0,-1.624128371E-1,-2.632105052E-1,9.814251335E0
3.187946577E0,-9.826126099E0,-1.743769497E-1,-2.512463629E-1,9.830884302E0
3.190390796E0,-9.809376717E0,-1.528415531E-1,-2.679961324E-1,9.814227124E0
3.192835848E0,-9.802198410E0,-1.767697781E-1,-2.679961324E-1,9.807454468E0
3.195279181E0,-9.809376717E0,-1.504487246E-1,-2.584248483E-1,9.813933451E0
3.197723348E0,-9.804591179E0,-1.695913076E-1,-2.703889608E-1,9.809784890E0
3.200167567E0,-9.814162254E0,-1.600200087E-1,-2.775674164E-1,9.819390553E0
3.202611786E0,-9.809376717E0,-1.648056656E-1,-2.656033039E-1,9.814355689E0
3.205056838E0,-9.816555023E0,-1.648056656E-1,-2.464607358E-1,9.821031327E0
3.207500171E0,-9.806983948E0,-1.648056656E-1,-2.536391914E-1,9.811647563E0
3.209944390E0,-9.799804688E0,-1.959123611E-1,-2.512463629E-1,9.804982320E0
3.212389442E0,-9.809376717E0,-1.743769497E-1,-2.488535494E-1,9.814082075E0
3.214832775E0,-9.814162254E0,-1.791625917E-1,-2.512463629E-1,9.819012411E0
3.217276942E0,-9.783055305E0,-1.624128371E-1,-2.584248483E-1,9.787815509E0
3.219721161E0,-9.799804688E0,-1.648056656E-1,-2.608176768E-1,9.804660049E0
3.222165379E0,-9.802198410E0,-1.528415531E-1,-2.703889608E-1,9.807118048E0
3.224610431E0,-9.821340561E0,-1.648056656E-1,-2.703889608E-1,9.826443991E0
3.227053765E0,-9.799804688E0,-1.695913076E-1,-2.703889608E-1,9.805000934E0
3.229497983E0,-9.828518867E0,-1.743769497E-1,-2.464607358E-1,9.833154801E0
3.231943036E0,-9.790233612E0,-1.695913076E-1,-2.560320199E-1,9.795049147E0
3.234386369E0,-9.806983948E0,-1.743769497E-1,-2.679961324E-1,9.812194627E0
3.236830588E0,-9.814162254E0,-1.648056656E-1,-2.608176768E-1,9.819010516E0
3.239274754E0,-9.814162254E0,-1.743769497E-1,-2.536391914E-1,9.818987774E0
3.241718973E0,-9.818947792E0,-1.480558962E-1,-2.679961324E-1,9.823720182E0
3.244164025E0,-9.818947792E0,-1.576271951E-1,-2.512463629E-1,9.823426429E0
3.246607358E0,-9.809376717E0,-1.815554202E-1,-2.679961324E-1,9.814716291E0
3.249051577E0,-9.799804688E0,-1.719841212E-1,-2.679961324E-1,9.804976919E0
3.251496629E0,-9.821340561E0,-1.719841212E-1,-2.751746178E-1,9.826699854E0
3.253939963E0,-9.802198410E0,-1.719841212E-1,-2.608176768E-1,9.807175846E0
3.256384181E0,-9.806983948E0,-1.719841212E-1,-2.679961324E-1,9.812152395E0
3.258828348E0,-9.799804688E0,-1.815554202E-1,-2.488535494E-1,9.804644939E0
3.261272567E0,-9.811769485E0,-1.671984792E-1,-2.703889608E-1,9.816918353E0
3.263717619E0,-9.804591179E0,-1.648056656E-1,-2.823530734E-1,9.810040385E0
3.266160952E0,-9.804591179E0,-1.600200087E-1,-2.512463629E-1,9.809115114E0
3.268605171E0,-9.818947792E0,-1.576271951E-1,-2.679961324E-1,9.823869095E0
3.271050223E0,-9.809376717E0,-1.624128371E-1,-2.656033039E-1,9.814315800E0
3.273493556E0,-9.809376717E0,-1.528415531E-1,-2.679961324E-1,9.814227124E0
3.275937775E0,-9.804591179E0,-1.671984792E-1,-2.632105052E-1,9.809548577E0
3.278381942E0,-9.799804688E0,-1.815554202E-1,-2.560320199E-1,9.804829763E0
3.280826161E0,-9.809376717E0,-1.791625917E-1,-2.560320199E-1,9.814352918E0
3.283271213E0,-9.811769485E0,-1.839482337E-1,-2.632105052E-1,9.817022826E0
3.285714546E0,-9.795019150E0,-1.719841212E-1,-2.679961324E-1,9.800193907E0
3.288158765E0,-9.804591179E0,-1.695913076E-1,-2.536391914E-1,9.809337502E0
3.290603817E0,-9.809376717E0,-1.600200087E-1,-2.608176768E-1,9.814148146E0
3.293047150E0,-9.806983948E0,-1.576271951E-1,-2.512463629E-1,9.811468046E0
3.295491369E0,-9.804591179E0,-1.791625917E-1,-2.632105052E-1,9.809759793E0
3.297935536E0,-9.804591179E0,-1.839482337E-1,-2.321037948E-1,9.809063019E0
3.300379754E0,-9.816555023E0,-1.815554202E-1,-2.560320199E-1,9.821571528E0
3.302824806E0,-9.828518867E0,-1.719841212E-1,-2.440679073E-1,9.833052975E0
3.305268140E0,-9.806983948E0,-1.863410622E-1,-2.608176768E-1,9.812221104E0
3.307712358E0,-9.818947792E0,-1.767697781E-1,-2.392822653E-1,9.823453532E0
3.310157411E0,-9.811769485E0,-1.695913076E-1,-2.512463629E-1,9.816450804E0
3.312600744E0,-9.818947792E0,-1.695913076E-1,-2.560320199E-1,9.823749251E0
3.315044963E0,-9.802198410E0,-1.552343667E-1,-2.440679073E-1,9.806465241E0
3.317489129E0,-9.818947792E0,-1.648056656E-1,-2.297109663E-1,9.823017041E0
3.319933348E0,-9.826126099E0,-1.624128371E-1,-2.512463629E-1,9.830679365E0
3.322378400E0,-9.802198410E0,-1.791625917E-1,-2.799602449E-1,9.807832107E0
3.324821733E0,-9.814162254E0,-1.648056656E-1,-2.823530734E-1,9.819606149E0
3.327265952E0,-9.821340561E0,-1.671984792E-1,-2.464607358E-1,9.825855110E0
3.329711004E0,-9.795019150E0,-1.624128371E-1,-2.727817893E-1,9.800162651E0
3.332154338E0,-9.806983948E0,-1.552343667E-1,-2.560320199E-1,9.811553611E0
3.334598556E0,-9.814162254E0,-1.648056656E-1,-2.727817893E-1,9.819335597E0
3.337042723E0,-9.804591179E0,-1.791625917E-1,-2.608176768E-1,9.809695881E0
3.339486942E0,-9.821340561E0,-1.624128371E-1,-2.727817893E-1,9.826470284E0
3.341931994E0,-9.799804688E0,-1.528415531E-1,-2.536391914E-1,9.804277908E0
3.344375327E0,-9.816555023E0,-1.624128371E-1,-2.440679073E-1,9.820931707E0
3.346819546E0,-9.787840843E0,-1.839482337E-1,-2.560320199E-1,9.792916712E0
3.349264598E0,-9.814162254E0,-1.453639716E-1,-2.703889608E-1,9.818962350E0
3.351707931E0,-9.809376717E0,-1.719841212E-1,-2.632105052E-1,9.814414393E0
3.354152150E0,-9.783055305E0,-1.671984792E-1,-2.703889608E-1,9.788219278E0
3.356596369E0,-9.806983948E0,-1.767697781E-1,-2.584248483E-1,9.811980692E0
3.359040536E0,-9.823733330E0,-1.887338907E-1,-2.727817893E-1,9.829331967E0
3.361485588E0,-9.814162254E0,-1.695913076E-1,-2.679961324E-1,9.819285305E0
3.363928921E0,-9.806983948E0,-1.767697781E-1,-2.632105052E-1,9.812107902E0
3.366373140E0,-9.826126099E0,-1.839482337E-1,-2.608176768E-1,9.831307996E0
3.368818192E0,-9.790233612E0,-1.552343667E-1,-2.464607358E-1,9.794565574E0
3.371261525E0,-9.790233612E0,-1.576271951E-1,-2.368894368E-1,9.794367622E0
3.373705744E0,-9.806983948E0,-1.695913076E-1,-2.584248483E-1,9.811853992E0
3.376149911E0,-9.818947792E0,-1.767697781E-1,-2.823530734E-1,9.824597017E0
3.378594129E0,-9.797411919E0,-1.719841212E-1,-2.847459018E-1,9.803057639E0
3.381039181E0,-9.802198410E0,-1.600200087E-1,-2.799602449E-1,9.807501099E0
3.383482515E0,-9.804591179E0,-1.671984792E-1,-2.512463629E-1,9.809234845E0
3.385926733E0,-9.821340561E0,-1.695913076E-1,-2.464607358E-1,9.825896118E0
3.388371786E0,-9.804591179E0,-1.504487246E-1,-2.679961324E-1,9.809406961E0
3.390815119E0,-9.816555023E0,-1.453639716E-1,-2.679961324E-1,9.821288364E0
3.393259338E0,-9.823733330E0,-1.600200087E-1,-2.703889608E-1,9.828756439E0
3.395703504E0,-9.799804688E0,-1.504487246E-1,-2.679961324E-1,9.804622821E0
3.398147723E0,-9.826126099E0,-1.576271951E-1,-2.632105052E-1,9.830914515E0
3.400592775E0,-9.814162254E0,-1.600200087E-1,-2.679961324E-1,9.819124660E0
3.403036108E0,-9.780662537E0,-1.695913076E-1,-2.656033039E-1,9.785737886E0
3.405480327E0,-9.804591179E0,-1.624128371E-1,-2.632105052E-1,9.809468175E0
3.407925379E0,-9.797411919E0,-1.453639716E-1,-2.775674164E-1,9.802420857E0
3.410368713E0,-9.792626381E0,-1.791625917E-1,-2.608176768E-1,9.797737317E0
3.412812931E0,-9.814162254E0,-1.648056656E-1,-2.799602449E-1,9.819537637E0
3.415257150E0,-9.802198410E0,-1.719841212E-1,-2.727817893E-1,9.807501318E0
3.417701317E0,-9.811769485E0,-1.791625917E-1,-2.799602449E-1,9.817397690E0
3.420146369E0,-9.818947792E0,-1.743769497E-1,-2.632105052E-1,9.824022742E0
3.422589702E0,-9.811769485E0,-1.743769497E-1,-2.679961324E-1,9.816977625E0
3.425033921E0,-9.797411919E0,-1.671984792E-1,-2.440679073E-1,9.801877615E0
3.427478973E0,-9.804591179E0,-1.719841212E-1,-2.560320199E-1,9.809441325E0
3.429922306E0,-9.797411919E0,-1.648056656E-1,-2.560320199E-1,9.802142297E0
3.432366525E0,-9.818947792E0,-1.405783296E-1,-2.608176768E-1,9.823417118E0
3.434810744E0,-9.802198410E0,-1.648056656E-1,-2.560320199E-1,9.806926479E0
3.437254911E0,-9.799804688E0,-1.624128371E-1,-2.440679073E-1,9.804188849E0
3.439699963E0,-9.797411919E0,-1.839482337E-1,-2.536391914E-1,9.802420624E0
3.442143296E0,-9.806983948E0,-1.791625917E-1,-2.727817893E-1,9.812412715E0
3.444587515E0,-9.806983948E0,-1.624128371E-1,-2.775674164E-1,9.812255386E0
3.447032567E0,-9.806983948E0,-1.719841212E-1,-2.608176768E-1,9.811958956E0
3.449475900E0,-9.828518867E0,-1.576271951E-1,-2.703889608E-1,9.833500885E0
3.451920119E0,-9.814162254E0,-1.839482337E-1,-2.751746178E-1,9.819742297E0
3.454364338E0,-9.806983948E0,-1.576271951E-1,-2.775674164E-1,9.812177340E0
3.456808504E0,-9.797411919E0,-1.719841212E-1,-2.321037948E-1,9.801669807E0
3.459253556E0,-9.804591179E0,-1.887338907E-1,-2.656033039E-1,9.810003761E0
3.461696942E0,-9.823733330E0,-1.648056656E-1,-2.751746178E-1,9.828968334E0
3.464141108E0,-9.814162254E0,-1.552343667E-1,-2.727817893E-1,9.819179618E0
3.466586161E0,-9.821340561E0,-1.743769497E-1,-2.512463629E-1,9.826101082E0
3.469029494E0,-9.823733330E0,-1.959123611E-1,-2.679961324E-1,9.829340777E0
3.471473713E0,-9.816555023E0,-1.719841212E-1,-2.656033039E-1,9.821653434E0
3.473917931E0,-9.806983948E0,-1.528415531E-1,-2.488535494E-1,9.811331346E0
3.476362098E0,-9.797411919E0,-1.648056656E-1,-2.608176768E-1,9.802268466E0
3.478807150E0,-9.804591179E0,-1.480558962E-1,-2.536391914E-1,9.808988815E0
3.481250536E0,-9.792626381E0,-1.648056656E-1,-2.560320199E-1,9.797359070E0
3.483694702E0,-9.821340561E0,-1.719841212E-1,-2.679961324E-1,9.826501457E0
3.486139754E0,-9.792626381E0,-1.743769497E-1,-2.584248483E-1,9.797587568E0
3.488583088E0,-9.797411919E0,-1.624128371E-1,-2.632105052E-1,9.802292487E0
3.491027306E0,-9.821340561E0,-1.648056656E-1,-2.775674164E-1,9.826644137E0
3.493471525E0,-9.811769485E0,-1.863410622E-1,-2.440679073E-1,9.816573362E0
3.495915692E0,-9.806983948E0,-1.600200087E-1,-2.608176768E-1,9.811756541E0
3.498360744E0,-9.799804688E0,-1.576271951E-1,-2.512463629E-1,9.804292069E0
3.500804129E0,-9.797411919E0,-1.504487246E-1,-2.512463629E-1,9.801787585E0
3.503248296E0,-9.804591179E0,-1.624128371E-1,-2.608176768E-1,9.809404262E0
3.505693348E0,-9.787840843E0,-1.695913076E-1,-2.512463629E-1,9.792533601E0
3.508136733E0,-9.809376717E0,-1.648056656E-1,-2.823530734E-1,9.814823266E0
3.510580900E0,-9.797411919E0,-1.648056656E-1,-2.488535494E-1,9.801957422E0
3.513025119E0,-9.818947792E0,-1.791625917E-1,-2.512463629E-1,9.823795586E0
3.515469286E0,-9.809376717E0,-1.719841212E-1,-2.679961324E-1,9.814543903E0
3.517914338E0,-9.797411919E0,-1.671984792E-1,-2.703889608E-1,9.802568328E0
3.520357723E0,-9.790233612E0,-1.671984792E-1,-2.656033039E-1,9.795262867E0
3.522801890E0,-9.816555023E0,-1.695913076E-1,-2.632105052E-1,9.821547409E0
3.525246942E0,-9.809376717E0,-1.719841212E-1,-2.632105052E-1,9.814414393E0
3.527690327E0,-9.806983948E0,-1.695913076E-1,-2.512463629E-1,9.811667549E0
3.530134494E0,-9.797411919E0,-1.576271951E-1,-2.392822653E-1,9.801601024E0
3.532578713E0,-9.806983948E0,-1.815554202E-1,-2.727817893E-1,9.812456697E0
3.535022879E0,-9.806983948E0,-1.552343667E-1,-2.751746178E-1,9.812071796E0
3.537467931E0,-9.816555023E0,-1.695913076E-1,-2.656033039E-1,9.821611825E0
3.539911317E0,-9.806983948E0,-1.552343667E-1,-2.656033039E-1,9.811808038E0
3.542355483E0,-9.806983948E0,-1.624128371E-1,-2.727817893E-1,9.812121177E0
3.544800536E0,-9.792626381E0,-1.839482337E-1,-2.584248483E-1,9.797762591E0
3.547243921E0,-9.802198410E0,-1.767697781E-1,-2.560320199E-1,9.807134832E0
3.549688088E0,-9.814162254E0,-1.815554202E-1,-2.751746178E-1,9.819697765E0
3.552132306E0,-9.806983948E0,-1.600200087E-1,-2.608176768E-1,9.811756541E0
3.554576473E0,-9.804591179E0,-1.528415531E-1,-2.344966233E-1,9.808585902E0
3.557021525E0,-9.811769485E0,-1.719841212E-1,-2.608176768E-1,9.816742068E0
3.559464911E0,-9.795019150E0,-1.528415531E-1,-2.536391914E-1,9.799494555E0
3.561909077E0,-9.823733330E0,-1.648056656E-1,-2.536391914E-1,9.828388997E0
3.564354129E0,-9.811769485E0,-1.695913076E-1,-2.608176768E-1,9.816700439E0
3.566797515E0,-9.799804688E0,-1.600200087E-1,-2.440679073E-1,9.804149502E0
3.569241681E0,-9.804591179E0,-1.719841212E-1,-2.751746178E-1,9.809959622E0
3.571685900E0,-9.792626381E0,-1.648056656E-1,-2.536391914E-1,9.797296830E0
3.574130119E0,-9.821340561E0,-1.648056656E-1,-2.416750938E-1,9.825695811E0
3.576575119E0,-9.816555023E0,-1.624128371E-1,-2.656033039E-1,9.821490496E0
3.579018504E0,-9.795019150E0,-1.743769497E-1,-2.536391914E-1,9.799854096E0
3.581462671E0,-9.826126099E0,-1.576271951E-1,-2.656033039E-1,9.830978871E0
3.583907723E0,-9.811769485E0,-1.671984792E-1,-2.656033039E-1,9.816787707E0
3.586351108E0,-9.795019150E0,-1.671984792E-1,-2.344966233E-1,9.799252224E0
3.588795275E0,-9.814162254E0,-1.791625917E-1,-2.751746178E-1,9.819653816E0
3.591239494E0,-9.809376717E0,-1.743769497E-1,-2.608176768E-1,9.814392735E0
3.593683713E0,-9.823733330E0,-1.480558962E-1,-2.608176768E-1,9.828310279E0
3.596128713E0,-9.809376717E0,-1.815554202E-1,-2.679961324E-1,9.814716291E0
3.598572098E0,-9.792626381E0,-1.767697781E-1,-2.703889608E-1,9.797953316E0
3.601016317E0,-9.811769485E0,-1.719841212E-1,-2.775674164E-1,9.817201365E0
3.603461317E0,-9.804591179E0,-1.767697781E-1,-2.536391914E-1,9.809464235E0
3.605904702E0,-9.802198410E0,-1.648056656E-1,-2.703889608E-1,9.807311801E0
3.608348869E0,-9.799804688E0,-1.695913076E-1,-2.464607358E-1,9.804370251E0
3.610793088E0,-9.809376717E0,-1.600200087E-1,-2.560320199E-1,9.814022130E0
3.613237306E0,-9.806983948E0,-1.624128371E-1,-2.608176768E-1,9.811795857E0
3.615682306E0,-9.835697174E0,-1.528415531E-1,-2.584248483E-1,9.840278596E0
3.618125692E0,-9.821340561E0,-1.576271951E-1,-2.656033039E-1,9.826195696E0
3.620569858E0,-9.806983948E0,-1.719841212E-1,-2.656033039E-1,9.812087332E0
3.623014911E0,-9.816555023E0,-1.743769497E-1,-2.608176768E-1,9.821567375E0
3.625458296E0,-9.797411919E0,-1.743769497E-1,-2.656033039E-1,9.802562560E0
3.627902463E0,-9.790233612E0,-1.743769497E-1,-2.608176768E-1,9.795259433E0
3.630346681E0,-9.814162254E0,-1.743769497E-1,-2.416750938E-1,9.818686008E0
3.632790900E0,-9.821340561E0,-1.743769497E-1,-2.560320199E-1,9.826224612E0
3.635235952E0,-9.806983948E0,-1.648056656E-1,-2.416750938E-1,9.811345571E0
3.637679286E0,-9.797411919E0,-1.671984792E-1,-2.464607358E-1,9.801937489E0
3.640123504E0,-9.818947792E0,-1.791625917E-1,-2.416750938E-1,9.823555458E0
3.642568504E0,-9.818947792E0,-1.648056656E-1,-2.608176768E-1,9.823793692E0
3.645011890E0,-9.814162254E0,-1.743769497E-1,-2.703889608E-1,9.819434722E0
3.647456056E0,-9.823733330E0,-1.767697781E-1,-2.392822653E-1,9.828236876E0
3.649900275E0,-9.787840843E0,-1.719841212E-1,-2.536391914E-1,9.792637017E0
3.652344494E0,-9.826126099E0,-1.767697781E-1,-2.751746178E-1,9.831567664E0
3.654789546E0,-9.804591179E0,-1.576271951E-1,-2.775674164E-1,9.809785838E0
3.657232879E0,-9.806983948E0,-1.671984792E-1,-2.727817893E-1,9.812201557E0
3.659677098E0,-9.799804688E0,-1.648056656E-1,-2.632105052E-1,9.804723994E0
3.662122098E0,-9.809376717E0,-1.695913076E-1,-2.608176768E-1,9.814308872E0
3.664565483E0,-9.811769485E0,-1.695913076E-1,-2.656033039E-1,9.816828753E0
3.667009702E0,-9.792626381E0,-1.576271951E-1,-2.656033039E-1,9.797495746E0
3.669453869E0,-9.823733330E0,-1.671984792E-1,-2.632105052E-1,9.828681073E0
3.671898088E0,-9.828518867E0,-1.480558962E-1,-2.368894368E-1,9.832488001E0
3.674343140E0,-9.799804688E0,-1.624128371E-1,-2.560320199E-1,9.804493982E0
3.676786473E0,-9.814162254E0,-1.453639716E-1,-2.632105052E-1,9.818767296E0
3.679230692E0,-9.806983948E0,-1.480558962E-1,-2.560320199E-1,9.811442661E0
3.681675744E0,-9.809376717E0,-1.624128371E-1,-2.632105052E-1,9.814251335E0
3.684119077E0,-9.802198410E0,-1.863410622E-1,-2.584248483E-1,9.807374779E0
3.686563296E0,-9.797411919E0,-1.480558962E-1,-2.703889608E-1,9.802260507E0
3.689007463E0,-9.792626381E0,-1.648056656E-1,-2.440679073E-1,9.797053715E0
3.691451681E0,-9.780662537E0,-1.381855011E-1,-2.440679073E-1,9.784683134E0
3.693896733E0,-9.809376717E0,-1.453639716E-1,-2.584248483E-1,9.813856819E0
3.696340067E0,-9.806983948E0,-1.743769497E-1,-2.512463629E-1,9.811751434E0
3.698784286E0,-9.816555023E0,-1.695913076E-1,-2.703889608E-1,9.821742408E0
3.701229338E0,-9.802198410E0,-1.528415531E-1,-2.488535494E-1,9.806547930E0
3.703672671E0,-9.814162254E0,-1.429711580E-1,-2.656033039E-1,9.818796597E0
3.706116890E0,-9.816555023E0,-1.624128371E-1,-2.536391914E-1,9.821174232E0
3.708561056E0,-9.809376717E0,-1.767697781E-1,-2.536391914E-1,9.814247397E0
3.711005275E0,-9.804591179E0,-1.648056656E-1,-2.679961324E-1,9.809637660E0
3.713450327E0,-9.792626381E0,-1.695913076E-1,-2.488535494E-1,9.797255776E0
3.715893661E0,-9.818947792E0,-1.528415531E-1,-2.464607358E-1,9.823229570E0
3.718337879E0,-9.821340561E0,-1.624128371E-1,-2.751746178E-1,9.826537000E0
3.720782931E0,-9.814162254E0,-1.695913076E-1,-2.679961324E-1,9.819285305E0
3.723226265E0,-9.806983948E0,-1.624128371E-1,-2.751746178E-1,9.812187990E0
3.725670483E0,-9.783055305E0,-1.600200087E-1,-2.368894368E-1,9.787231177E0
3.728114650E0,-9.806983948E0,-1.815554202E-1,-2.536391914E-1,9.811943200E0
3.730558869E0,-9.809376717E0,-1.624128371E-1,-2.751746178E-1,9.814579490E0
3.733003921E0,-9.802198410E0,-1.528415531E-1,-2.871387303E-1,9.807594142E0
3.735447254E0,-9.816555023E0,-1.648056656E-1,-2.536391914E-1,9.821214093E0
3.737891473E0,-9.818947792E0,-1.576271951E-1,-2.488535494E-1,9.823365521E0
3.740336525E0,-9.818947792E0,-1.767697781E-1,-2.656033039E-1,9.824129906E0
3.742779858E0,-9.828518867E0,-1.671984792E-1,-2.751746178E-1,9.833791717E0
3.745224077E0,-9.821340561E0,-1.624128371E-1,-2.703889608E-1,9.826404151E0
3.747668244E0,-9.809376717E0,-1.695913076E-1,-2.679961324E-1,9.814502265E0
3.750112463E0,-9.806983948E0,-1.671984792E-1,-2.632105052E-1,9.811940137E0
3.752557515E0,-9.816555023E0,-1.600200087E-1,-2.512463629E-1,9.821073448E0
3.755000848E0,-9.811769485E0,-1.504487246E-1,-2.584248483E-1,9.816325110E0
3.757445067E0,-9.804591179E0,-1.624128371E-1,-2.656033039E-1,9.809532671E0
3.759890119E0,-9.816555023E0,-1.743769497E-1,-2.656033039E-1,9.821695625E0
3.762333452E0,-9.806983948E0,-1.719841212E-1,-2.656033039E-1,9.812087332E0
3.764777671E0,-9.811769485E0,-1.648056656E-1,-2.703889608E-1,9.816877891E0
3.767221838E0,-9.799804688E0,-1.695913076E-1,-2.584248483E-1,9.804678298E0
3.769666056E0,-9.811769485E0,-1.671984792E-1,-2.656033039E-1,9.816787707E0
3.772111108E0,-9.811769485E0,-1.767697781E-1,-2.608176768E-1,9.816827077E0
3.774554442E0,-9.811769485E0,-1.743769497E-1,-2.679961324E-1,9.816977625E0
3.776998661E0,-9.826126099E0,-1.767697781E-1,-2.608176768E-1,9.831176304E0
3.779443713E0,-9.816555023E0,-1.743769497E-1,-2.751746178E-1,9.821959118E0
3.781887046E0,-9.816555023E0,-1.576271951E-1,-2.727817893E-1,9.821609276E0
3.784331265E0,-9.816555023E0,-1.671984792E-1,-2.584248483E-1,9.821379295E0
3.786775431E0,-9.823733330E0,-1.767697781E-1,-2.847459018E-1,9.829448831E0
3.789219650E0,-9.802198410E0,-1.695913076E-1,-2.632105052E-1,9.807198104E0
3.791664702E0,-9.816555023E0,-1.911267042E-1,-2.512463629E-1,9.821629533E0
3.794108036E0,-9.802198410E0,-1.600200087E-1,-2.416750938E-1,9.806482903E0
3.796552254E0,-9.816555023E0,-1.648056656E-1,-2.512463629E-1,9.821152588E0
3.798997306E0,-9.814162254E0,-1.695913076E-1,-2.584248483E-1,9.819028739E0
3.801440640E0,-9.816555023E0,-1.648056656E-1,-2.656033039E-1,9.821530357E0
3.803884858E0,-9.809376717E0,-1.648056656E-1,-2.584248483E-1,9.814164044E0
3.806329025E0,-9.804591179E0,-1.480558962E-1,-2.632105052E-1,9.809240975E0
3.808773244E0,-9.804591179E0,-1.624128371E-1,-2.679961324E-1,9.809597751E0
3.811218296E0,-9.806983948E0,-1.911267042E-1,-2.751746178E-1,9.812705266E0
3.813661629E0,-9.806983948E0,-1.743769497E-1,-2.632105052E-1,9.812065086E0
3.816105848E0,-9.814162254E0,-1.504487246E-1,-2.584248483E-1,9.818716768E0
3.818550900E0,-9.814162254E0,-1.528415531E-1,-2.656033039E-1,9.818945280E0
3.820994233E0,-9.792626381E0,-1.671984792E-1,-2.584248483E-1,9.797462435E0
3.823438452E0,-9.806983948E0,-1.791625917E-1,-2.584248483E-1,9.812024092E0
3.825882671E0,-9.802198410E0,-1.719841212E-1,-2.751746178E-1,9.807568163E0
3.828326838E0,-9.809376717E0,-1.528415531E-1,-2.727817893E-1,9.814358971E0
3.830771890E0,-9.797411919E0,-1.719841212E-1,-2.895315289E-1,9.803197812E0
3.833215223E0,-9.806983948E0,-1.624128371E-1,-2.464607358E-1,9.811424717E0
3.835659442E0,-9.811769485E0,-1.576271951E-1,-2.608176768E-1,9.816501038E0
3.838104494E0,-9.795019150E0,-1.719841212E-1,-2.368894368E-1,9.799392598E0
3.840547827E0,-9.823733330E0,-1.743769497E-1,-2.488535494E-1,9.828431815E0
3.842992046E0,-9.809376717E0,-1.624128371E-1,-2.536391914E-1,9.813999304E0
3.845436265E0,-9.806983948E0,-1.381855011E-1,-2.727817893E-1,9.811750062E0
3.847880431E0,-9.816555023E0,-1.600200087E-1,-2.608176768E-1,9.821322965E0
3.850325483E0,-9.804591179E0,-1.815554202E-1,-2.727817893E-1,9.810065263E0
3.852768817E0,-9.802198410E0,-1.791625917E-1,-2.560320199E-1,9.807178254E0
3.855213036E0,-9.826126099E0,-1.648056656E-1,-2.608176768E-1,9.830968461E0
3.857658088E0,-9.790233612E0,-1.576271951E-1,-2.632105052E-1,9.795039575E0
3.860101421E0,-9.814162254E0,-1.719841212E-1,-2.632105052E-1,9.819197475E0
3.862545640E0,-9.811769485E0,-1.648056656E-1,-2.560320199E-1,9.816492945E0
3.864989858E0,-9.802198410E0,-1.576271951E-1,-2.656033039E-1,9.807063022E0
3.867434025E0,-9.804591179E0,-1.815554202E-1,-2.775674164E-1,9.810199500E0
3.869879077E0,-9.826126099E0,-1.839482337E-1,-2.512463629E-1,9.831058732E0
3.872322463E0,-9.814162254E0,-1.719841212E-1,-2.488535494E-1,9.818823116E0
3.874766629E0,-9.828518867E0,-1.815554202E-1,-2.464607358E-1,9.833284720E0
3.877211681E0,-9.799804688E0,-1.671984792E-1,-2.799602449E-1,9.805228451E0
3.879655015E0,-9.814162254E0,-1.791625917E-1,-2.703889608E-1,9.819520873E0
3.882099233E0,-9.811769485E0,-1.671984792E-1,-2.560320199E-1,9.816533409E0
3.884543452E0,-9.802198410E0,-1.624128371E-1,-2.632105052E-1,9.807076596E0
3.886987619E0,-9.809376717E0,-1.600200087E-1,-2.584248483E-1,9.814084846E0
3.889432671E0,-9.818947792E0,-1.815554202E-1,-2.536391914E-1,9.823901005E0
3.891876056E0,-9.828518867E0,-1.504487246E-1,-2.584248483E-1,9.833066732E0
3.894320223E0,-9.802198410E0,-1.743769497E-1,-2.608176768E-1,9.807218099E0
3.896765275E0,-9.809376717E0,-1.815554202E-1,-2.464607358E-1,9.814151865E0
3.899208608E0,-9.826126099E0,-1.719841212E-1,-2.656033039E-1,9.831219546E0
3.901652827E0,-9.804591179E0,-1.648056656E-1,-2.608176768E-1,9.809444171E0
3.904097046E0,-9.806983948E0,-1.624128371E-1,-2.703889608E-1,9.812054946E0
3.906541213E0,-9.804591179E0,-1.743769497E-1,-2.679961324E-1,9.809803129E0
3.908986265E0,-9.818947792E0,-1.624128371E-1,-2.656033039E-1,9.823882063E0
3.911429650E0,-9.804591179E0,-1.719841212E-1,-2.656033039E-1,9.809695808E0
3.913873817E0,-9.818947792E0,-1.648056656E-1,-2.656033039E-1,9.823921914E0
3.916318869E0,-9.814162254E0,-1.767697781E-1,-2.392822653E-1,9.818670191E0
