"Time (s)","Acceleration x (m/s^2)","Acceleration y (m/s^2)","Acceleration z (m/s^2)","Absolute acceleration (m/s^2)"
2.636463800E-2,1.854437590E-2,9.584152222E0,-4.091726840E-1,9.592900499E0
2.880833600E-2,-7.776673418E-3,9.562616348E0,-4.115654826E-1,9.571472094E0
3.125297100E-2,-2.931207791E-2,9.560223579E0,-4.450650215E-1,9.570622600E0
3.369755400E-2,-4.366901144E-2,9.555438042E0,-4.091726840E-1,9.564294299E0
3.614213800E-2,-5.982056609E-4,9.586544991E0,-4.426721931E-1,9.596760072E0
3.858750200E-2,1.136590727E-2,9.600901604E0,-4.354937077E-1,9.610780174E0
4.103120000E-2,5.204389244E-2,9.572187424E0,-4.307080805E-1,9.582013885E0
4.347583600E-2,4.965107143E-2,9.543474197E0,-4.187439680E-1,9.552785536E0
4.592120000E-2,-5.383851007E-3,9.557830811E0,-4.139583111E-1,9.566792580E0
4.836495000E-2,-4.127619043E-2,9.586544991E0,-4.402793646E-1,9.596738743E0
5.080958600E-2,-3.649054468E-2,9.591330528E0,-4.474578202E-1,9.601831667E0
5.325416900E-2,-1.734796353E-2,9.584152222E0,-4.091726840E-1,9.592898261E0
5.569864800E-2,3.050848842E-2,9.588937759E0,-4.378865361E-1,9.598979255E0
5.814411700E-2,5.682953820E-2,9.567401886E0,-4.163511395E-1,9.576625539E0
6.058781500E-2,2.333002165E-2,9.569794655E0,-4.115654826E-1,9.578669019E0
6.303245000E-2,-1.016949583E-2,9.572187424E0,-4.402793646E-1,9.582312947E0
6.547781500E-2,-3.409772366E-2,9.576973915E0,-4.474578202E-1,9.587481970E0
6.792156500E-2,-2.452643216E-2,9.588937759E0,-4.402793646E-1,9.599071560E0
7.036614800E-2,-1.734796353E-2,9.557830811E0,-4.450650215E-1,9.568203260E0
7.281073100E-2,1.136590727E-2,9.569794655E0,-4.259224236E-1,9.579274964E0
7.525531500E-2,1.854437590E-2,9.581759453E0,-4.019941986E-1,9.590206329E0
7.770067900E-2,1.854437590E-2,9.588937759E0,-3.924229145E-1,9.596982181E0
8.014442900E-2,-7.776673418E-3,9.598508835E0,-4.043870270E-1,9.607026657E0
8.258906500E-2,-5.982056609E-4,9.579366684E0,-4.091726840E-1,9.588101413E0
8.503442900E-2,6.580262445E-3,9.572187424E0,-4.115654826E-1,9.581033427E0
8.747812700E-2,-5.383851007E-3,9.584152222E0,-4.067798555E-1,9.592782320E0
8.992276300E-2,-5.982056609E-4,9.588937759E0,-4.283152521E-1,9.598498928E0
9.236734600E-2,-2.991028363E-3,9.579366684E0,-4.426721931E-1,9.589589860E0
9.481192900E-2,2.333002165E-2,9.567401886E0,-4.259224236E-1,9.576906236E0
9.725729400E-2,8.973085321E-3,9.557830811E0,-4.283152521E-1,9.567427255E0
9.970104400E-2,-2.691925503E-2,9.562616348E0,-4.307080805E-1,9.572349007E0
1.021456270E-1,-1.734796353E-2,9.584152222E0,-4.043870270E-1,9.592695327E0
1.045910440E-1,6.580262445E-3,9.596116066E0,-4.307080805E-1,9.605779318E0
1.070347420E-1,3.768695518E-2,9.581759453E0,-4.259224236E-1,9.591295243E0
1.094793770E-1,4.965107143E-2,9.581759453E0,-4.163511395E-1,9.590929450E0
1.119239610E-1,3.290131316E-2,9.562616348E0,-4.067798555E-1,9.571320900E0
1.143685440E-1,-1.734796353E-2,9.560223579E0,-4.354937077E-1,9.570153113E0
1.168139080E-1,-1.016949583E-2,9.569794655E0,-4.187439680E-1,9.578957128E0
1.192576060E-1,-1.016949583E-2,9.581759453E0,-4.235295951E-1,9.591120630E0
1.217022420E-1,-5.383851007E-3,9.586544991E0,-4.067798555E-1,9.595172937E0
1.241476060E-1,2.811566554E-2,9.581759453E0,-4.474578202E-1,9.592242866E0
1.265913560E-1,4.247260094E-2,9.574581146E0,-4.211367965E-1,9.583932609E0
1.290359920E-1,3.290131316E-2,9.567401886E0,-4.115654826E-1,9.576306568E0
1.314805750E-1,6.580262445E-3,9.550652504E0,-4.091726840E-1,9.559415716E0
1.339250540E-1,-3.409772366E-2,9.565009117E0,-4.259224236E-1,9.574548134E0
1.363704710E-1,-2.691925503E-2,9.574581146E0,-4.067798555E-1,9.583256160E0
1.388142210E-1,-5.383851007E-3,9.574581146E0,-4.283152521E-1,9.584158130E0
1.412588560E-1,3.050848842E-2,9.565009117E0,-4.187439680E-1,9.574219378E0
1.437042210E-1,4.007977992E-2,9.550652504E0,-4.307080805E-1,9.560443457E0
1.461479710E-1,-5.982056609E-4,9.572187424E0,-4.067798555E-1,9.580826806E0
1.485925540E-1,-1.734796353E-2,9.596116066E0,-4.211367965E-1,9.605368327E0
1.510371380E-1,-1.734796353E-2,9.572187424E0,-4.211367965E-1,9.581462792E0
1.534817210E-1,-1.016949583E-2,9.567401886E0,-4.043870270E-1,9.575949620E0
1.559270860E-1,3.529413417E-2,9.567401886E0,-4.163511395E-1,9.576521957E0
1.583708360E-1,1.854437590E-2,9.548259735E0,-4.307080805E-1,9.557987095E0
1.608154710E-1,1.854437590E-2,9.560223579E0,-4.211367965E-1,9.569512787E0
1.632608360E-1,2.333002165E-2,9.574581146E0,-4.187439680E-1,9.583762045E0
1.657045330E-1,6.580262445E-3,9.584152222E0,-4.259224236E-1,9.593613866E0
1.681491690E-1,-1.256231871E-2,9.555438042E0,-4.474578202E-1,9.565917232E0
1.705937520E-1,-5.982056609E-4,9.572187424E0,-4.426721931E-1,9.582417811E0
1.730383360E-1,-2.991028363E-3,9.596116066E0,-4.115654826E-1,9.604938243E0
1.754837000E-1,1.854437590E-2,9.584152222E0,-4.115654826E-1,9.593002859E0
1.779274500E-1,2.572284266E-2,9.591330528E0,-4.187439680E-1,9.600501522E0
1.803720330E-1,2.093719877E-2,9.555438042E0,-4.331009090E-1,9.565271085E0
1.828174500E-1,-2.991028363E-3,9.543474197E0,-4.211367965E-1,9.552762161E0
1.852611480E-1,-3.170489892E-2,9.576973915E0,-4.331009090E-1,9.586814433E0
1.877057830E-1,-3.649054468E-2,9.608079910E0,-4.163511395E-1,9.617165871E0
1.901503670E-1,1.794616925E-3,9.579366684E0,-4.043870270E-1,9.587898526E0
1.925949500E-1,3.768695518E-2,9.562616348E0,-4.187439680E-1,9.571854483E0
1.950403150E-1,5.204389244E-2,9.555438042E0,-4.235295951E-1,9.564961163E0
1.974840130E-1,1.136590727E-2,9.579366684E0,-4.139583111E-1,9.588313550E0
1.999286480E-1,-2.691925503E-2,9.536295891E0,-4.354937077E-1,9.546272505E0
2.023740130E-1,-2.931207791E-2,9.579366684E0,-4.235295951E-1,9.588769607E0
2.048177630E-1,-3.409772366E-2,9.586544991E0,-4.235295951E-1,9.595956692E0
2.072623980E-1,6.580262445E-3,9.588937759E0,-4.259224236E-1,9.598394687E0
2.097069810E-1,4.007977992E-2,9.553045273E0,-4.259224236E-1,9.562619426E0
2.121514610E-1,4.965107143E-2,9.553045273E0,-3.996013701E-1,9.561528145E0
2.145968770E-1,1.794616925E-3,9.569794655E0,-3.900300860E-1,9.577739630E0
2.170406270E-1,-2.213360928E-2,9.579366684E0,-4.139583111E-1,9.588332360E0
2.194852630E-1,-4.366901144E-2,9.588937759E0,-4.187439680E-1,9.598175912E0
2.219306270E-1,-7.776673418E-3,9.581759453E0,-4.259224236E-1,9.591224354E0
2.243743770E-1,3.290131316E-2,9.550652504E0,-4.115654826E-1,9.559572788E0
2.268190130E-1,4.247260094E-2,9.579366684E0,-4.307080805E-1,9.589138618E0
2.292634920E-1,2.811566554E-2,9.565009117E0,-4.211367965E-1,9.574317005E0
2.317081270E-1,1.375873014E-2,9.596116066E0,-4.163511395E-1,9.605153884E0
2.341534920E-1,-2.213360928E-2,9.598508835E0,-4.139583111E-1,9.607456647E0
2.365972420E-1,-1.256231871E-2,9.574581146E0,-4.307080805E-1,9.584272084E0
2.390418770E-1,4.187439568E-3,9.574581146E0,-4.139583111E-1,9.583526655E0
2.414872420E-1,1.615155302E-2,9.584152222E0,-4.259224236E-1,9.593625206E0
2.439309400E-1,1.615155302E-2,9.584152222E0,-4.163511395E-1,9.593205041E0
2.463755750E-1,6.580262445E-3,9.581759453E0,-4.283152521E-1,9.591330016E0
2.488201580E-1,1.136590727E-2,9.588937759E0,-4.259224236E-1,9.598399161E0
2.512647420E-1,-7.776673418E-3,9.572187424E0,-4.402793646E-1,9.582310706E0
2.537101060E-1,-5.383851007E-3,9.572187424E0,-4.211367965E-1,9.581448599E0
2.561538560E-1,2.811566554E-2,9.562616348E0,-4.139583111E-1,9.571613417E0
2.585984400E-1,4.187439568E-3,9.557830811E0,-4.259224236E-1,9.567317140E0
2.610438040E-1,8.973085321E-3,9.576973915E0,-4.235295951E-1,9.586338571E0
2.634875540E-1,6.580262445E-3,9.555438042E0,-4.139583111E-1,9.564402802E0
2.659321900E-1,-2.452643216E-2,9.565009117E0,-4.307080805E-1,9.574732916E0
2.683767730E-1,-1.495514158E-2,9.586544991E0,-4.139583111E-1,9.595490086E0
2.708213560E-1,4.187439568E-3,9.569794655E0,-4.259224236E-1,9.579269136E0
2.732667210E-1,2.333002165E-2,9.584152222E0,-4.235295951E-1,9.593534042E0
2.757104190E-1,1.854437590E-2,9.584152222E0,-4.235295951E-1,9.593523598E0
2.781550540E-1,8.973085321E-3,9.576973915E0,-4.139583111E-1,9.585920476E0
2.806004190E-1,-2.991028363E-3,9.567401886E0,-4.283152521E-1,9.576985003E0
2.830441690E-1,6.580262445E-3,9.569794655E0,-4.187439680E-1,9.578953990E0
2.854888040E-1,4.187439568E-3,9.574581146E0,-4.402793646E-1,9.584699660E0
2.879333880E-1,2.333002165E-2,9.562616348E0,-4.187439680E-1,9.571808723E0
2.903778670E-1,3.290131316E-2,9.555438042E0,-4.091726840E-1,9.564251197E0
2.928233360E-1,2.333002165E-2,9.569794655E0,-4.115654826E-1,9.578669019E0
2.952670330E-1,-2.991028363E-3,9.574581146E0,-4.235295951E-1,9.583944407E0
2.977116690E-1,-1.256231871E-2,9.574581146E0,-4.163511395E-1,9.583637629E0
3.001570330E-1,-5.383851007E-3,9.581759453E0,-4.019941986E-1,9.590189911E0
3.026007830E-1,6.580262445E-3,9.588937759E0,-4.115654826E-1,9.597768324E0
3.050454190E-1,-1.016949583E-2,9.581759453E0,-4.378865361E-1,9.591765335E0
3.074898980E-1,1.794616925E-3,9.569794655E0,-4.283152521E-1,9.579375079E0
3.099345330E-1,3.050848842E-2,9.567401886E0,-4.259224236E-1,9.576926413E0
3.123798980E-1,6.580262445E-3,9.555438042E0,-4.283152521E-1,9.565034941E0
3.148236480E-1,1.375873014E-2,9.581759453E0,-4.091726840E-1,9.590501853E0
3.172682830E-1,-1.734796353E-2,9.576973915E0,-4.426721931E-1,9.587214872E0
3.197136480E-1,1.854437590E-2,9.565009117E0,-4.187439680E-1,9.574188729E0
3.221573460E-1,-5.383851007E-3,9.576973915E0,-4.259224236E-1,9.586441898E0
3.246019810E-1,6.580262445E-3,9.588937759E0,-4.283152521E-1,9.598501165E0
3.270465650E-1,4.187439568E-3,9.579366684E0,-4.259224236E-1,9.588831707E0
3.294911480E-1,-7.776673418E-3,9.565009117E0,-4.307080805E-1,9.574704661E0
3.319365130E-1,-3.170489892E-2,9.562616348E0,-4.163511395E-1,9.571728417E0
3.343802630E-1,-3.170489892E-2,9.553045273E0,-4.283152521E-1,9.562694868E0
3.368248460E-1,1.136590727E-2,9.569794655E0,-4.115654826E-1,9.578647351E0
3.392702630E-1,1.136590727E-2,9.596116066E0,-4.307080805E-1,9.605783788E0
3.417139610E-1,4.247260094E-2,9.581759453E0,-4.283152521E-1,9.591421797E0
3.441585960E-1,1.854437590E-2,9.567401886E0,-4.019941986E-1,9.575861427E0
3.466031790E-1,1.794616925E-3,9.557830811E0,-4.187439680E-1,9.566999505E0
3.490477630E-1,-1.495514158E-2,9.572187424E0,-3.948157430E-1,9.580337948E0
3.514931270E-1,-1.974078640E-2,9.560223579E0,-4.259224236E-1,9.569726981E0
3.539368250E-1,-1.256231871E-2,9.579366684E0,-4.378865361E-1,9.589377899E0
3.563814610E-1,-2.991028363E-3,9.574581146E0,-4.211367965E-1,9.583838963E0
3.588268250E-1,2.333002165E-2,9.572187424E0,-4.163511395E-1,9.581266338E0
3.612705750E-1,2.811566554E-2,9.579366684E0,-4.115654826E-1,9.588245027E0
3.637152110E-1,6.580262445E-3,9.565009117E0,-4.235295951E-1,9.574383533E0
3.661597940E-1,-1.495514158E-2,9.572187424E0,-4.331009090E-1,9.581992075E0
3.686042730E-1,-1.974078640E-2,9.572187424E0,-4.307080805E-1,9.581892883E0
3.710496900E-1,-2.991028363E-3,9.572187424E0,-4.283152521E-1,9.581765755E0
3.734934400E-1,-5.982056609E-4,9.579366684E0,-4.307080805E-1,9.589044576E0
3.759380750E-1,1.375873014E-2,9.560223579E0,-4.187439680E-1,9.569399704E0
3.783834400E-1,1.854437590E-2,9.567401886E0,-4.235295951E-1,9.576789653E0
3.808271380E-1,-2.991028363E-3,9.576973915E0,-4.163511395E-1,9.586020373E0
3.832717730E-1,-5.982056609E-4,9.569794655E0,-4.163511395E-1,9.578847445E0
3.857163560E-1,-1.495514158E-2,9.562616348E0,-4.139583111E-1,9.571583806E0
3.881609400E-1,-7.776673418E-3,9.562616348E0,-4.331009090E-1,9.572422280E0
3.906063040E-1,-2.991028363E-3,9.569794655E0,-4.139583111E-1,9.578744185E0
3.930500540E-1,3.290131316E-2,9.596116066E0,-4.331009090E-1,9.605940997E0
3.954946900E-1,1.794616925E-3,9.584152222E0,-4.354937077E-1,9.594041474E0
3.979400540E-1,-5.982056609E-4,9.588937759E0,-4.091726840E-1,9.597663778E0
4.003837520E-1,-1.016949583E-2,9.565009117E0,-4.450650215E-1,9.575363476E0
4.028283880E-1,-3.409772366E-2,9.557830811E0,-4.235295951E-1,9.567270759E0
4.052729710E-1,-2.213360928E-2,9.569794655E0,-4.307080805E-1,9.579507768E0
4.077175540E-1,6.580262445E-3,9.572187424E0,-4.259224236E-1,9.581660883E0
4.101629190E-1,1.375873014E-2,9.584152222E0,-4.139583111E-1,9.593097758E0
4.126066690E-1,1.136590727E-2,9.576973915E0,-4.091726840E-1,9.585717544E0
4.150512520E-1,1.854437590E-2,9.562616348E0,-4.211367965E-1,9.571903234E0
4.174966170E-1,1.794616925E-3,9.574581146E0,-4.163511395E-1,9.583629564E0
4.199403670E-1,-1.495514158E-2,9.567401886E0,-4.115654826E-1,9.576261726E0
4.223850020E-1,-7.776673418E-3,9.569794655E0,-4.187439680E-1,9.578954887E0
4.248295860E-1,-1.734796353E-2,9.572187424E0,-4.283152521E-1,9.581780992E0
4.272741690E-1,1.794616925E-3,9.576973915E0,-3.996013701E-1,9.585307186E0
4.297195330E-1,1.615155302E-2,9.565009117E0,-4.211367965E-1,9.574289346E0
4.321632310E-1,1.854437590E-2,9.562616348E0,-4.187439680E-1,9.571798255E0
4.346078670E-1,8.973085321E-3,9.569794655E0,-4.115654826E-1,9.578644810E0
4.370532310E-1,-2.931207791E-2,9.576973915E0,-4.259224236E-1,9.586485199E0
4.394969810E-1,-5.383851007E-3,9.576973915E0,-4.163511395E-1,9.586021418E0
4.419416170E-1,-7.776673418E-3,9.567401886E0,-4.211367965E-1,9.576669334E0
4.443860960E-1,-2.991028363E-3,9.565009117E0,-4.402793646E-1,9.575137298E0
4.468307310E-1,1.854437590E-2,9.576973915E0,-4.331009090E-1,9.586779942E0
4.492760960E-1,1.854437590E-2,9.560223579E0,-4.115654826E-1,9.569096349E0
4.517198460E-1,-5.383851007E-3,9.574581146E0,-4.187439680E-1,9.583735160E0
4.541644810E-1,-2.991028363E-3,9.560223579E0,-4.307080805E-1,9.569921279E0
4.566098460E-1,8.973085321E-3,9.576973915E0,-4.378865361E-1,9.586983598E0
4.590535440E-1,-1.734796353E-2,9.569794655E0,-4.163511395E-1,9.578863135E0
4.614981790E-1,-1.734796353E-2,9.581759453E0,-4.331009090E-1,9.591558349E0
4.639427630E-1,1.794616925E-3,9.584152222E0,-4.307080805E-1,9.593825435E0
4.663873460E-1,2.333002165E-2,9.591330528E0,-4.235295951E-1,9.600705334E0
4.688327110E-1,-1.495514158E-2,9.576973915E0,-4.187439680E-1,9.586135798E0
4.712764610E-1,-5.982056609E-4,9.574581146E0,-4.115654826E-1,9.583422699E0
4.737210960E-1,-2.991028363E-3,9.565009117E0,-4.211367965E-1,9.574276190E0
4.761664610E-1,4.187439568E-3,9.569794655E0,-4.235295951E-1,9.579163042E0
4.786101580E-1,4.187439568E-3,9.572187424E0,-4.498506486E-1,9.582753008E0
4.810547940E-1,1.794616925E-3,9.562616348E0,-3.996013701E-1,9.570962120E0
4.834993770E-1,2.333002165E-2,9.557830811E0,-3.828516304E-1,9.565524004E0
4.859439610E-1,4.187439568E-3,9.574581146E0,-4.091726840E-1,9.583321133E0
4.883893250E-1,4.187439568E-3,9.593723297E0,-4.354937077E-1,9.603603439E0
4.908330230E-1,-1.495514158E-2,9.584152222E0,-4.187439680E-1,9.593307249E0
4.932776580E-1,-5.383851007E-3,9.567401886E0,-4.259224236E-1,9.576879332E0
4.957230230E-1,1.136590727E-2,9.574581146E0,-4.139583111E-1,9.583532480E0
4.981667730E-1,-5.383851007E-3,9.588937759E0,-4.115654826E-1,9.597767578E0
5.006114080E-1,1.854437590E-2,9.588937759E0,-3.996013701E-1,9.597278390E0
5.030559920E-1,1.375873014E-2,9.574581146E0,-4.402793646E-1,9.584708621E0
5.055005750E-1,-5.383851007E-3,9.569794655E0,-4.354937077E-1,9.579700073E0
5.079459400E-1,-1.256231871E-2,9.576973915E0,-4.378865361E-1,9.586987629E0
5.103896380E-1,-1.734796353E-2,9.565009117E0,-4.474578202E-1,9.575485307E0
5.128342730E-1,-1.495514158E-2,9.576973915E0,-4.163511395E-1,9.586031572E0
5.152796380E-1,-7.776673418E-3,9.579366684E0,-4.163511395E-1,9.588413571E0
5.177233880E-1,-2.991028363E-3,9.557830811E0,-4.378865361E-1,9.567856780E0
5.201680230E-1,1.375873014E-2,9.572187424E0,-3.924229145E-1,9.580237843E0
5.226125020E-1,1.375873014E-2,9.579366684E0,-4.259224236E-1,9.588840664E0
5.250571380E-1,-2.991028363E-3,9.574581146E0,-4.307080805E-1,9.584264318E0
5.275025020E-1,-1.974078640E-2,9.581759453E0,-4.235295951E-1,9.591135555E0
5.299462520E-1,1.375873014E-2,9.567401886E0,-4.259224236E-1,9.576887702E0
5.323908880E-1,6.580262445E-3,9.576973915E0,-4.378865361E-1,9.586981657E0
5.348362520E-1,1.136590727E-2,9.579366684E0,-4.259224236E-1,9.588837529E0
5.372799500E-1,-5.982056609E-4,9.574581146E0,-4.259224236E-1,9.584050000E0
5.397245860E-1,-1.016949583E-2,9.576973915E0,-4.211367965E-1,9.586234349E0
5.421691690E-1,-1.256231871E-2,9.588937759E0,-4.259224236E-1,9.598400652E0
5.446137520E-1,-1.016949583E-2,9.581759453E0,-4.235295951E-1,9.591120630E0
5.470591170E-1,6.580262445E-3,9.574581146E0,-4.235295951E-1,9.583946199E0
5.495028670E-1,-1.256231871E-2,9.567401886E0,-4.211367965E-1,9.576674416E0
5.519475020E-1,8.973085321E-3,9.581759453E0,-4.283152521E-1,9.591331956E0
5.543928670E-1,1.615155302E-2,9.574581146E0,-4.187439680E-1,9.583747258E0
5.568365650E-1,1.794616925E-3,9.581759453E0,-4.402793646E-1,9.591869648E0
5.592812000E-1,-1.256231871E-2,9.565009117E0,-4.354937077E-1,9.574926213E0
5.617257830E-1,-5.982056609E-4,9.581759453E0,-4.474578202E-1,9.592201680E0
5.641703670E-1,4.187439568E-3,9.584152222E0,-4.211367965E-1,9.593401250E0
5.666157310E-1,1.375873014E-2,9.598508835E0,-4.211367965E-1,9.607752982E0
5.690594290E-1,1.375873014E-2,9.565009117E0,-4.307080805E-1,9.574711388E0
5.715040650E-1,1.136590727E-2,9.593723297E0,-4.163511395E-1,9.602760236E0
5.739494290E-1,2.333002165E-2,9.588937759E0,-4.283152521E-1,9.598527262E0
5.763931790E-1,6.580262445E-3,9.567401886E0,-4.211367965E-1,9.576668437E0
5.788378150E-1,-1.495514158E-2,9.574581146E0,-4.283152521E-1,9.584168286E0
5.812823980E-1,8.973085321E-3,9.572187424E0,-4.378865361E-1,9.582202106E0
5.837268770E-1,1.136590727E-2,9.567401886E0,-4.187439680E-1,9.576567994E0
5.861723460E-1,1.136590727E-2,9.567401886E0,-4.187439680E-1,9.576567994E0
5.886160440E-1,1.136590727E-2,9.579366684E0,-4.187439680E-1,9.588521354E0
5.910606790E-1,-7.776673418E-3,9.572187424E0,-4.283152521E-1,9.581768444E0
5.935060440E-1,-2.991028363E-3,9.574581146E0,-4.019941986E-1,9.583016874E0
5.959497940E-1,-5.383851007E-3,9.588937759E0,-4.402793646E-1,9.599041736E0
5.983943770E-1,-5.982056609E-4,9.572187424E0,-4.283152521E-1,9.581765306E0
6.008389610E-1,-5.383851007E-3,9.584152222E0,-4.187439680E-1,9.593297103E0
6.032835440E-1,1.794616925E-3,9.584152222E0,-4.115654826E-1,9.592985102E0
6.057289080E-1,1.136590727E-2,9.598508835E0,-4.235295951E-1,9.607855034E0
6.081726580E-1,-5.982056609E-4,9.572187424E0,-4.283152521E-1,9.581765306E0
6.106172940E-1,-1.256231871E-2,9.576973915E0,-3.948157430E-1,9.585116935E0
6.130626580E-1,1.136590727E-2,9.574581146E0,-3.900300860E-1,9.582528726E0
6.155063560E-1,-5.383851007E-3,9.593723297E0,-4.211367965E-1,9.602963703E0
6.179509920E-1,-7.776673418E-3,9.581759453E0,-4.259224236E-1,9.591224354E0
6.203955750E-1,4.187439568E-3,9.574581146E0,-4.354937077E-1,9.584481020E0
6.228401580E-1,-1.016949583E-2,9.569794655E0,-4.259224236E-1,9.579273619E0
6.252855230E-1,-7.776673418E-3,9.588937759E0,-4.331009090E-1,9.598716801E0
6.277292730E-1,1.794616925E-3,9.581759453E0,-4.187439680E-1,9.590905272E0
6.301738560E-1,8.973085321E-3,9.557830811E0,-4.115654826E-1,9.566692034E0
6.326192730E-1,1.375873014E-2,9.569794655E0,-4.163511395E-1,9.578857307E0
6.350629710E-1,-5.383851007E-3,9.584152222E0,-4.283152521E-1,9.593719651E0
6.375076060E-1,-5.383851007E-3,9.557830811E0,-4.235295951E-1,9.567211512E0
6.399521900E-1,-5.982056609E-4,9.567401886E0,-4.235295951E-1,9.576771717E0
6.423967730E-1,-1.495514158E-2,9.584152222E0,-4.211367965E-1,9.593411993E0
6.448421380E-1,-2.991028363E-3,9.588937759E0,-4.426721931E-1,9.599150742E0
6.472858360E-1,4.187439568E-3,9.572187424E0,-4.259224236E-1,9.581659539E0
6.497304710E-1,-1.256231871E-2,9.557830811E0,-4.307080805E-1,9.567538715E0
6.521758360E-1,1.375873014E-2,9.562616348E0,-4.115654826E-1,9.571478824E0
6.546195860E-1,1.794616925E-3,9.586544991E0,-4.307080805E-1,9.596215792E0
6.570642210E-1,1.794616925E-3,9.593723297E0,-4.115654826E-1,9.602547374E0
6.595088040E-1,-5.982056609E-4,9.584152222E0,-4.378865361E-1,9.594150238E0
6.619532830E-1,4.187439568E-3,9.576973915E0,-4.091726840E-1,9.585711721E0
6.643987000E-1,4.187439568E-3,9.562616348E0,-4.235295951E-1,9.571991761E0
6.668424500E-1,1.375873014E-2,9.569794655E0,-4.307080805E-1,9.579492079E0
6.692870860E-1,1.794616925E-3,9.574581146E0,-4.139583111E-1,9.583525908E0
6.717324500E-1,-5.982056609E-4,9.562616348E0,-4.474578202E-1,9.573079457E0
6.741762000E-1,-2.452643216E-2,9.569794655E0,-4.331009090E-1,9.579621479E0
6.766207830E-1,-1.495514158E-2,9.567401886E0,-4.354937077E-1,9.577319942E0
6.790653670E-1,-5.383851007E-3,9.572187424E0,-4.163511395E-1,9.581239447E0
6.815099500E-1,6.580262445E-3,9.569794655E0,-4.259224236E-1,9.579270481E0
6.839553150E-1,6.580262445E-3,9.569794655E0,-4.115654826E-1,9.578642867E0
6.863990650E-1,-5.982056609E-4,9.560223579E0,-4.211367965E-1,9.569494838E0
6.888437000E-1,-7.776673418E-3,9.572187424E0,-4.139583111E-1,9.581137408E0
6.912890650E-1,1.136590727E-2,9.574581146E0,-4.211367965E-1,9.583845236E0
6.937327630E-1,-5.383851007E-3,9.574581146E0,-4.259224236E-1,9.584051493E0
6.961773980E-1,1.854437590E-2,9.574581146E0,-4.211367965E-1,9.583856438E0
6.986219810E-1,4.187439568E-3,9.574581146E0,-4.091726840E-1,9.583321133E0
7.010665650E-1,1.854437590E-2,9.574581146E0,-4.067798555E-1,9.583236294E0
7.035119290E-1,-5.982056609E-4,9.584152222E0,-4.354937077E-1,9.594041324E0
7.059556270E-1,4.187439568E-3,9.579366684E0,-4.115654826E-1,9.588204720E0
7.084002630E-1,1.375873014E-2,9.555438042E0,-4.211367965E-1,9.564723816E0
7.108456270E-1,4.187439568E-3,9.569794655E0,-4.115654826E-1,9.578641523E0
7.132893770E-1,-2.991028363E-3,9.586544991E0,-4.259224236E-1,9.596002486E0
7.157340130E-1,-7.776673418E-3,9.588937759E0,-4.331009090E-1,9.598716801E0
7.181785960E-1,-5.982056609E-4,9.569794655E0,-4.163511395E-1,9.578847445E0
7.206230750E-1,1.794616925E-3,9.576973915E0,-4.259224236E-1,9.586440554E0
7.230685440E-1,-2.213360928E-2,9.569794655E0,-3.996013701E-1,9.578159577E0
7.255122420E-1,-3.170489892E-2,9.576973915E0,-4.259224236E-1,9.586492814E0
7.279568770E-1,-5.982056609E-4,9.579366684E0,-4.187439680E-1,9.588514636E0
7.304022420E-1,4.187439568E-3,9.572187424E0,-4.259224236E-1,9.581659539E0
7.328459920E-1,1.794616925E-3,9.586544991E0,-4.235295951E-1,9.595896279E0
7.352906270E-1,1.794616925E-3,9.565009117E0,-4.426721931E-1,9.575247323E0
7.377351060E-1,-1.495514158E-2,9.586544991E0,-4.235295951E-1,9.595907765E0
7.401797420E-1,-1.016949583E-2,9.560223579E0,-4.331009090E-1,9.570034206E0
7.426251060E-1,-2.991028363E-3,9.579366684E0,-4.331009090E-1,9.589152799E0
7.450688560E-1,-5.982056609E-4,9.584152222E0,-4.307080805E-1,9.593825286E0
7.475134920E-1,-1.734796353E-2,9.569794655E0,-4.354937077E-1,9.579714268E0
7.499588560E-1,2.572284266E-2,9.581759453E0,-4.307080805E-1,9.591469404E0
7.524025540E-1,1.794616925E-3,9.569794655E0,-4.187439680E-1,9.578951898E0
7.548471900E-1,1.794616925E-3,9.581759453E0,-4.139583111E-1,9.590697520E0
7.572917730E-1,1.794616925E-3,9.572187424E0,-4.283152521E-1,9.581765456E0
7.597363560E-1,-2.991028363E-3,9.562616348E0,-4.211367965E-1,9.571885737E0
7.621817210E-1,1.615155302E-2,9.567401886E0,-4.187439680E-1,9.576574870E0
7.646254710E-1,6.580262445E-3,9.596116066E0,-4.187439680E-1,9.605250302E0
7.670700540E-1,4.187439568E-3,9.569794655E0,-4.378865361E-1,9.579808552E0
7.695154710E-1,-1.016949583E-2,9.533903122E0,-4.115654826E-1,9.542787764E0
7.719591690E-1,1.854437590E-2,9.603294373E0,-4.570291340E-1,9.614181314E0
7.744038040E-1,-8.464609832E-2,9.567401886E0,-3.158525825E-1,9.572988387E0
7.768483880E-1,5.443671346E-2,9.588937759E0,-5.243272781E-1,9.603416569E0
7.792929710E-1,-7.776673418E-3,9.569794655E0,-3.445664644E-1,9.575998969E0
7.817383360E-1,5.204389244E-2,9.572187424E0,-4.713860750E-1,9.583928499E0
7.841820330E-1,-2.991028363E-3,9.600901604E0,-3.924229145E-1,9.608918581E0
7.866266690E-1,-1.256231871E-2,9.567401886E0,-4.474578202E-1,9.577867986E0
7.890720330E-1,-1.495514158E-2,9.569794655E0,-4.187439680E-1,9.578963404E0
7.915157830E-1,-7.776673418E-3,9.572187424E0,-4.163511395E-1,9.581241090E0
7.939604190E-1,4.187439568E-3,9.581759453E0,-4.307080805E-1,9.591435826E0
7.964050020E-1,1.854437590E-2,9.581759453E0,-4.307080805E-1,9.591452839E0
7.988494810E-1,1.615155302E-2,9.579366684E0,-3.948157430E-1,9.587513046E0
8.012948980E-1,1.375873014E-2,9.562616348E0,-4.354937077E-1,9.572537568E0
8.037386480E-1,-1.734796353E-2,9.579366684E0,-4.139583111E-1,9.588322507E0
8.061832830E-1,-1.256231871E-2,9.567401886E0,-4.235295951E-1,9.576779938E0
8.086286480E-1,1.615155302E-2,9.567401886E0,-4.067798555E-1,9.576059188E0
8.110723980E-1,-2.991028363E-3,9.584152222E0,-4.331009090E-1,9.593933456E0
8.135169810E-1,1.854437590E-2,9.574581146E0,-4.115654826E-1,9.583440623E0
8.159615650E-1,1.854437590E-2,9.567401886E0,-4.283152521E-1,9.577002490E0
8.184061480E-1,-5.383851007E-3,9.576973915E0,-4.402793646E-1,9.587090501E0
8.208515130E-1,1.375873014E-2,9.574581146E0,-4.474578202E-1,9.585041050E0
8.232952630E-1,-5.383851007E-3,9.584152222E0,-4.354937077E-1,9.594042816E0
8.257398980E-1,-1.256231871E-2,9.569794655E0,-4.354937077E-1,9.579706797E0
8.281852630E-1,6.580262445E-3,9.572187424E0,-4.091726840E-1,9.580930939E0
8.306289610E-1,-5.383851007E-3,9.576973915E0,-4.067798555E-1,9.585610477E0
8.330735960E-1,1.375873014E-2,9.579366684E0,-4.187439680E-1,9.588524489E0
8.355181790E-1,1.136590727E-2,9.560223579E0,-4.235295951E-1,9.569607170E0
8.379627630E-1,4.187439568E-3,9.557830811E0,-4.283152521E-1,9.567423963E0
8.404081270E-1,-7.776673418E-3,9.572187424E0,-4.426721931E-1,9.582420948E0
8.428518250E-1,-5.982056609E-4,9.586544991E0,-4.259224236E-1,9.596002039E0
8.452964610E-1,1.375873014E-2,9.581759453E0,-4.139583111E-1,9.590707221E0
8.477418250E-1,-7.776673418E-3,9.584152222E0,-4.354937077E-1,9.594044458E0
8.501855750E-1,1.375873014E-2,9.596116066E0,-4.378865361E-1,9.606111465E0
8.526302110E-1,6.580262445E-3,9.562616348E0,-4.474578202E-1,9.573081699E0
8.550747940E-1,-1.734796353E-2,9.574581146E0,-4.378865361E-1,9.584604827E0
8.575193770E-1,4.187439568E-3,9.555438042E0,-4.139583111E-1,9.564401455E0
8.599647420E-1,-2.991028363E-3,9.579366684E0,-4.115654826E-1,9.588204272E0
8.624084400E-1,8.973085321E-3,9.557830811E0,-4.211367965E-1,9.567108577E0
8.648530750E-1,8.973085321E-3,9.574581146E0,-4.115654826E-1,9.583426881E0
8.672984400E-1,6.580262445E-3,9.579366684E0,-4.211367965E-1,9.588621672E0
8.697421900E-1,3.050848842E-2,9.584152222E0,-4.283152521E-1,9.593766650E0
8.721868250E-1,1.615155302E-2,9.584152222E0,-4.235295951E-1,9.593519271E0
8.746313040E-1,-7.776673418E-3,9.572187424E0,-4.402793646E-1,9.582310706E0
8.770759400E-1,-7.776673418E-3,9.579366684E0,-4.283152521E-1,9.588940531E0
8.795213040E-1,1.375873014E-2,9.572187424E0,-4.283152521E-1,9.581775166E0
8.819650540E-1,8.973085321E-3,9.562616348E0,-4.139583111E-1,9.571576329E0
8.844096900E-1,-2.991028363E-3,9.584152222E0,-4.115654826E-1,9.592985401E0
8.868550540E-1,4.187439568E-3,9.581759453E0,-4.522434771E-1,9.592427008E0
8.892987520E-1,1.615155302E-2,9.591330528E0,-3.996013701E-1,9.599664756E0
8.917433880E-1,1.794616925E-3,9.574581146E0,-4.378865361E-1,9.584589296E0
8.941879710E-1,1.136590727E-2,9.565009117E0,-4.283152521E-1,9.574600908E0
8.966325540E-1,2.093719877E-2,9.574581146E0,-4.331009090E-1,9.584394550E0
8.990779190E-1,-5.982056609E-4,9.569794655E0,-4.331009090E-1,9.579590100E0
9.015216690E-1,-5.383851007E-3,9.567401886E0,-4.187439680E-1,9.576562763E0
9.039662520E-1,-2.213360928E-2,9.565009117E0,-4.426721931E-1,9.575272736E0
9.064116690E-1,1.794616925E-3,9.588937759E0,-4.354937077E-1,9.598822081E0
9.088553670E-1,4.187439568E-3,9.567401886E0,-4.331009090E-1,9.577200676E0
9.113000020E-1,-1.495514158E-2,9.565009117E0,-4.019941986E-1,9.573464493E0
9.137445860E-1,-1.016949583E-2,9.562616348E0,-4.235295951E-1,9.571996247E0
9.161891690E-1,-1.495514158E-2,9.572187424E0,-4.043870270E-1,9.580737164E0
9.186345330E-1,-5.982056609E-4,9.565009117E0,-4.187439680E-1,9.574170788E0
9.210782310E-1,-1.016949583E-2,9.569794655E0,-4.067798555E-1,9.578441575E0
9.235228670E-1,1.375873014E-2,9.598508835E0,-4.283152521E-1,9.608070311E0
9.259682310E-1,1.615155302E-2,9.596116066E0,-4.259224236E-1,9.605577252E0
9.284119810E-1,2.572284266E-2,9.576973915E0,-4.426721931E-1,9.587233684E0
9.308566170E-1,8.973085321E-3,9.591330528E0,-4.331009090E-1,9.601108176E0
9.333010960E-1,4.187439568E-3,9.574581146E0,-4.378865361E-1,9.584590042E0
9.357457310E-1,-5.982056609E-4,9.576973915E0,-4.235295951E-1,9.586334390E0
9.381910960E-1,-1.256231871E-2,9.593723297E0,-4.450650215E-1,9.604049531E0
9.406348460E-1,-1.256231871E-2,9.572187424E0,-4.235295951E-1,9.581560792E0
9.430794810E-1,1.854437590E-2,9.560223579E0,-4.259224236E-1,9.569724588E0
9.455248460E-1,6.580262445E-3,9.574581146E0,-4.115654826E-1,9.583424940E0
9.479685960E-1,-7.776673418E-3,9.584152222E0,-4.235295951E-1,9.593508826E0
9.504131790E-1,-5.982056609E-4,9.569794655E0,-4.211367965E-1,9.579056650E0
9.528577630E-1,-1.256231871E-2,9.588937759E0,-4.211367965E-1,9.598189484E0
9.553023460E-1,4.187439568E-3,9.584152222E0,-4.163511395E-1,9.593192358E0
9.577477110E-1,-2.991028363E-3,9.569794655E0,-4.498506486E-1,9.580362430E0
9.601914610E-1,2.093719877E-2,9.557830811E0,-4.091726840E-1,9.566608096E0
9.626360960E-1,1.375873014E-2,9.560223579E0,-4.211367965E-1,9.569504710E0
9.650814610E-1,6.580262445E-3,9.574581146E0,-4.235295951E-1,9.583946199E0
9.675251580E-1,-2.991028363E-3,9.591330528E0,-4.331009090E-1,9.601104449E0
9.699697940E-1,4.187439568E-3,9.591330528E0,-4.067798555E-1,9.599953577E0
9.724143770E-1,6.580262445E-3,9.581759453E0,-4.307080805E-1,9.591437169E0
9.748589610E-1,-5.383851007E-3,9.572187424E0,-4.331009090E-1,9.581981917E0
9.773043250E-1,1.854437590E-2,9.576973915E0,-4.307080805E-1,9.586672140E0
9.797480230E-1,1.794616925E-3,9.569794655E0,-4.283152521E-1,9.579375079E0
9.821926580E-1,6.580262445E-3,9.581759453E0,-4.331009090E-1,9.591544918E0
9.846380230E-1,6.580262445E-3,9.581759453E0,-4.115654826E-1,9.590596627E0
9.870817730E-1,-2.213360928E-2,9.567401886E0,-4.259224236E-1,9.576903396E0
9.895264080E-1,8.973085321E-3,9.569794655E0,-3.996013701E-1,9.578138207E0
9.919709920E-1,4.187439568E-3,9.569794655E0,-4.187439680E-1,9.578952645E0
9.944155750E-1,1.794616925E-3,9.593723297E0,-4.187439680E-1,9.602857722E0
9.968609400E-1,1.794616925E-3,9.572187424E0,-4.402793646E-1,9.582307719E0
9.993046380E-1,1.794616925E-3,9.579366684E0,-4.019941986E-1,9.587797903E0
1.001749273E0,6.580262445E-3,9.567401886E0,-4.235295951E-1,9.576773959E0
1.004194638E0,8.973085321E-3,9.569794655E0,-4.283152521E-1,9.579379114E0
1.006638388E0,1.375873014E-2,9.588937759E0,-4.235295951E-1,9.598296410E0
1.009082971E0,1.375873014E-2,9.579366684E0,-4.331009090E-1,9.589162204E0
1.011527554E0,2.093719877E-2,9.567401886E0,-4.163511395E-1,9.576479807E0
1.013972138E0,-5.982056609E-4,9.574581146E0,-4.235295951E-1,9.583943959E0
1.016417502E0,8.973085321E-3,9.574581146E0,-4.139583111E-1,9.583529941E0
1.018861252E0,-2.991028363E-3,9.593723297E0,-4.307080805E-1,9.603387168E0
1.021305888E0,-5.982056609E-4,9.586544991E0,-4.163511395E-1,9.595581977E0
1.023751252E0,-2.991028363E-3,9.574581146E0,-4.235295951E-1,9.583944407E0
1.026194950E0,-1.016949583E-2,9.572187424E0,-4.019941986E-1,9.580630190E0
1.028639586E0,1.794616925E-3,9.574581146E0,-4.211367965E-1,9.583838665E0
1.031084169E0,4.187439568E-3,9.586544991E0,-4.187439680E-1,9.595686995E0
1.033528752E0,1.136590727E-2,9.574581146E0,-4.187439680E-1,9.583740388E0
1.035974117E0,6.580262445E-3,9.591330528E0,-4.331009090E-1,9.601106238E0
1.038417867E0,-1.734796353E-2,9.574581146E0,-4.283152521E-1,9.584172319E0
1.040862450E0,-1.256231871E-2,9.581759453E0,-4.187439680E-1,9.590913332E0
1.043307867E0,6.580262445E-3,9.567401886E0,-4.283152521E-1,9.576986797E0
1.045751565E0,1.136590727E-2,9.572187424E0,-4.067798555E-1,9.580833529E0
1.048196200E0,4.187439568E-3,9.581759453E0,-4.378865361E-1,9.591760858E0
1.050640783E0,6.580262445E-3,9.569794655E0,-4.307080805E-1,9.579484458E0
1.053085367E0,8.973085321E-3,9.584152222E0,-4.354937077E-1,9.594045502E0
1.055530731E0,4.187439568E-3,9.574581146E0,-4.187439680E-1,9.583734563E0
1.057974429E0,2.093719877E-2,9.581759453E0,-4.259224236E-1,9.591244053E0
1.060419065E0,-2.991028363E-3,9.567401886E0,-4.043870270E-1,9.575944688E0
1.062864429E0,4.187439568E-3,9.565009117E0,-4.235295951E-1,9.574382187E0
1.065308179E0,-7.776673418E-3,9.565009117E0,-4.331009090E-1,9.574812598E0
1.067752815E0,6.580262445E-3,9.565009117E0,-4.283152521E-1,9.574596423E0
1.070197294E0,1.136590727E-2,9.581759453E0,-3.948157430E-1,9.589896916E0
1.072641929E0,-5.982056609E-4,9.576973915E0,-4.378865361E-1,9.586979417E0
1.075087294E0,4.187439568E-3,9.588937759E0,-4.139583111E-1,9.597869887E0
1.077531044E0,-1.256231871E-2,9.572187424E0,-4.307080805E-1,9.581880783E0
1.079975679E0,6.580262445E-3,9.574581146E0,-4.019941986E-1,9.583018666E0
1.082421044E0,-5.982056609E-4,9.569794655E0,-4.091726840E-1,9.578538113E0
1.084864742E0,1.794616925E-3,9.576973915E0,-4.211367965E-1,9.586229123E0
1.087309377E0,-5.982056609E-4,9.586544991E0,-4.139583111E-1,9.595478451E0
1.089753961E0,-5.383851007E-3,9.588937759E0,-4.163511395E-1,9.597973985E0
1.092198544E0,-7.776673418E-3,9.579366684E0,-4.115654826E-1,9.588206959E0
1.094643908E0,1.794616925E-3,9.579366684E0,-4.354937077E-1,9.589260871E0
1.097087658E0,3.050848842E-2,9.555438042E0,-4.307080805E-1,9.565188779E0
1.099532242E0,6.580262445E-3,9.586544991E0,-4.283152521E-1,9.596110780E0
1.101977658E0,-2.991028363E-3,9.562616348E0,-4.115654826E-1,9.571469402E0
1.104421356E0,-5.982056609E-4,9.579366684E0,-4.091726840E-1,9.588101413E0
1.106865992E0,4.187439568E-3,9.581759453E0,-4.235295951E-1,9.591116153E0
1.109310575E0,-5.982056609E-4,9.581759453E0,-4.187439680E-1,9.590905123E0
1.111755158E0,-5.982056609E-4,9.560223579E0,-4.211367965E-1,9.569494838E0
1.114200523E0,1.136590727E-2,9.557830811E0,-4.139583111E-1,9.566797817E0
1.116644221E0,-1.256231871E-2,9.586544991E0,-4.354937077E-1,9.596439831E0
1.119088856E0,1.615155302E-2,9.560223579E0,-4.331009090E-1,9.570042432E0
1.121534221E0,1.136590727E-2,9.572187424E0,-4.378865361E-1,9.582204646E0
1.123977971E0,4.187439568E-3,9.574581146E0,-4.235295951E-1,9.583944855E0
1.126422606E0,1.136590727E-2,9.579366684E0,-3.972085714E-1,9.587605014E0
1.128867190E0,-5.982056609E-4,9.567401886E0,-4.378865361E-1,9.577417388E0
1.131311669E0,-5.383851007E-3,9.562616348E0,-4.091726840E-1,9.571367859E0
1.133757138E0,-1.016949583E-2,9.576973915E0,-4.019941986E-1,9.585412465E0
1.136200836E0,4.187439568E-3,9.557830811E0,-4.259224236E-1,9.567317140E0
1.138645471E0,4.187439568E-3,9.569794655E0,-4.211367965E-1,9.579057546E0
1.141090836E0,-5.383851007E-3,9.572187424E0,-4.163511395E-1,9.581239447E0
1.143534586E0,1.136590727E-2,9.576973915E0,-4.283152521E-1,9.586553735E0
1.145979169E0,1.136590727E-2,9.586544991E0,-4.354937077E-1,9.596438340E0
1.148423752E0,1.615155302E-2,9.553045273E0,-4.354937077E-1,9.562980165E0
1.150868336E0,1.615155302E-2,9.567401886E0,-4.283152521E-1,9.576998156E0
1.153313700E0,-5.383851007E-3,9.565009117E0,-4.307080805E-1,9.574703016E0
1.155757450E0,-1.016949583E-2,9.569794655E0,-4.402793646E-1,9.579922707E0
1.158202086E0,-1.256231871E-2,9.576973915E0,-4.426721931E-1,9.587207406E0
1.160647450E0,6.580262445E-3,9.560223579E0,-4.139583111E-1,9.569183856E0
1.163091148E0,6.580262445E-3,9.581759453E0,-4.139583111E-1,9.590699609E0
1.165535783E0,8.973085321E-3,9.565009117E0,-4.187439680E-1,9.574174974E0
1.167980367E0,1.794616925E-3,9.553045273E0,-4.354937077E-1,9.562966693E0
1.170424950E0,-1.974078640E-2,9.574581146E0,-4.163511395E-1,9.583649727E0
1.172870315E0,1.794616925E-3,9.579366684E0,-4.331009090E-1,9.589152501E0
1.175314013E0,8.973085321E-3,9.586544991E0,-4.187439680E-1,9.595690277E0
1.177758648E0,-7.776673418E-3,9.584152222E0,-4.283152521E-1,9.593721293E0
1.180204013E0,1.794616925E-3,9.586544991E0,-4.163511395E-1,9.595582127E0
1.182647763E0,1.794616925E-3,9.576973915E0,-4.235295951E-1,9.586334540E0
1.185092398E0,-1.016949583E-2,9.588937759E0,-4.163511395E-1,9.597977862E0
1.187536981E0,1.794616925E-3,9.555438042E0,-4.067798555E-1,9.564092703E0
1.189981461E0,1.615155302E-2,9.567401886E0,-4.235295951E-1,9.576785319E0
1.192426929E0,1.136590727E-2,9.596116066E0,-4.354937077E-1,9.605999558E0
1.194870627E0,-1.495514158E-2,9.579366684E0,-4.115654826E-1,9.588215468E0
1.197315263E0,1.375873014E-2,9.576973915E0,-4.163511395E-1,9.586029780E0
1.199760627E0,-7.776673418E-3,9.574581146E0,-4.211367965E-1,9.583841652E0
1.202204377E0,-1.734796353E-2,9.569794655E0,-4.259224236E-1,9.579283929E0
1.204649013E0,-7.776673418E-3,9.576973915E0,-4.283152521E-1,9.586550151E0
1.207093492E0,-5.982056609E-4,9.569794655E0,-4.211367965E-1,9.579056650E0
1.209538127E0,-7.776673418E-3,9.576973915E0,-4.307080805E-1,9.586657358E0
1.211983492E0,-1.495514158E-2,9.579366684E0,-4.235295951E-1,9.588736467E0
1.214427242E0,8.973085321E-3,9.581759453E0,-4.283152521E-1,9.591331956E0
1.216871877E0,1.794616925E-3,9.591330528E0,-4.426721931E-1,9.601540668E0
1.219317242E0,2.333002165E-2,9.584152222E0,-4.426721931E-1,9.594398197E0
1.221760940E0,-7.776673418E-3,9.598508835E0,-4.259224236E-1,9.607957236E0
1.224205575E0,2.572284266E-2,9.600901604E0,-4.187439680E-1,9.610063464E0
1.226650158E0,1.854437590E-2,9.579366684E0,-4.115654826E-1,9.588221738E0
1.229094742E0,-1.734796353E-2,9.565009117E0,-4.354937077E-1,9.574933688E0
1.231540106E0,2.333002165E-2,9.567401886E0,-4.474578202E-1,9.577888162E0
1.233983804E0,-2.991028363E-3,9.593723297E0,-4.187439680E-1,9.602858020E0
1.236428440E0,-1.734796353E-2,9.569794655E0,-4.259224236E-1,9.579283929E0
1.238873856E0,6.580262445E-3,9.584152222E0,-4.307080805E-1,9.593827524E0
1.241317554E0,4.187439568E-3,9.579366684E0,-4.139583111E-1,9.588307728E0
1.243762190E0,6.580262445E-3,9.576973915E0,-4.211367965E-1,9.586231213E0
1.246206773E0,1.136590727E-2,9.560223579E0,-4.211367965E-1,9.569501569E0
1.248651252E0,1.794616925E-3,9.572187424E0,-4.139583111E-1,9.581134420E0
1.251096721E0,8.973085321E-3,9.572187424E0,-3.972085714E-1,9.580429387E0
1.253540419E0,-7.776673418E-3,9.576973915E0,-4.331009090E-1,9.586765161E0
1.255985054E0,2.093719877E-2,9.569794655E0,-4.235295951E-1,9.579185008E0
1.258430419E0,-5.982056609E-4,9.591330528E0,-4.235295951E-1,9.600677006E0
1.260874169E0,-2.991028363E-3,9.567401886E0,-4.187439680E-1,9.576561716E0
1.263318804E0,2.811566554E-2,9.567401886E0,-4.259224236E-1,9.576919090E0
1.265763283E0,-7.776673418E-3,9.574581146E0,-4.115654826E-1,9.583425836E0
1.268207919E0,6.580262445E-3,9.586544991E0,-4.139583111E-1,9.595480688E0
1.270653283E0,4.187439568E-3,9.572187424E0,-4.139583111E-1,9.581135167E0
1.273097033E0,1.615155302E-2,9.581759453E0,-4.139583111E-1,9.590710952E0
1.275541669E0,-5.982056609E-4,9.581759453E0,-4.163511395E-1,9.590800949E0
1.277987033E0,1.854437590E-2,9.569794655E0,-4.259224236E-1,9.579286171E0
1.280430731E0,-2.991028363E-3,9.584152222E0,-4.115654826E-1,9.592985401E0
1.282875367E0,-1.256231871E-2,9.574581146E0,-3.996013701E-1,9.582924564E0
1.285319950E0,-1.495514158E-2,9.572187424E0,-4.211367965E-1,9.581458758E0
1.287764533E0,-5.982056609E-4,9.562616348E0,-4.187439680E-1,9.571780309E0
1.290209898E0,1.854437590E-2,9.557830811E0,-4.163511395E-1,9.566912876E0
1.292653648E0,4.187439568E-3,9.565009117E0,-4.450650215E-1,9.575358992E0
1.295098231E0,1.136590727E-2,9.567401886E0,-4.235295951E-1,9.576778443E0
1.297543648E0,-2.991028363E-3,9.579366684E0,-4.139583111E-1,9.588307280E0
1.299987346E0,-5.982056609E-4,9.560223579E0,-4.402793646E-1,9.570356376E0
1.302431981E0,-1.016949583E-2,9.574581146E0,-4.307080805E-1,9.584269247E0
1.304876565E0,4.187439568E-3,9.584152222E0,-4.211367965E-1,9.593401250E0
1.307321148E0,1.615155302E-2,9.584152222E0,-4.187439680E-1,9.593309189E0
1.309766513E0,8.973085321E-3,9.576973915E0,-4.163511395E-1,9.586024106E0
1.312210211E0,1.794616925E-3,9.586544991E0,-4.235295951E-1,9.595896279E0
1.314654846E0,1.136590727E-2,9.572187424E0,-4.259224236E-1,9.581665365E0
1.317100211E0,-2.991028363E-3,9.567401886E0,-4.187439680E-1,9.576561716E0
1.319543961E0,8.973085321E-3,9.572187424E0,-4.163511395E-1,9.581242136E0
1.321988596E0,1.854437590E-2,9.574581146E0,-4.235295951E-1,9.583961881E0
1.324433075E0,1.375873014E-2,9.598508835E0,-4.259224236E-1,9.607963940E0
1.326877711E0,4.187439568E-3,9.593723297E0,-4.187439680E-1,9.602858468E0
1.329323075E0,1.375873014E-2,9.567401886E0,-4.091726840E-1,9.576157394E0
1.331766825E0,1.615155302E-2,9.576973915E0,-4.091726840E-1,9.585724413E0
1.334211461E0,-1.974078640E-2,9.576973915E0,-4.067798555E-1,9.585629292E0
1.336656825E0,1.136590727E-2,9.574581146E0,-4.235295951E-1,9.583950680E0
1.339100523E0,1.375873014E-2,9.579366684E0,-4.235295951E-1,9.588734676E0
1.341545158E0,1.794616925E-3,9.579366684E0,-4.163511395E-1,9.588410586E0
1.343989742E0,-5.383851007E-3,9.565009117E0,-4.139583111E-1,9.573964167E0
1.346434325E0,1.136590727E-2,9.562616348E0,-4.307080805E-1,9.572317904E0
1.348879690E0,-1.256231871E-2,9.565009117E0,-4.402793646E-1,9.575145072E0
1.351323440E0,1.136590727E-2,9.572187424E0,-4.235295951E-1,9.581559298E0
1.353768023E0,1.615155302E-2,9.586544991E0,-4.115654826E-1,9.595389094E0
1.356213440E0,2.093719877E-2,9.569794655E0,-4.115654826E-1,9.578663490E0
1.358657138E0,6.580262445E-3,9.572187424E0,-4.426721931E-1,9.582420052E0
1.361101773E0,6.580262445E-3,9.581759453E0,-4.163511395E-1,9.590803188E0
1.363546356E0,-1.734796353E-2,9.567401886E0,-4.283152521E-1,9.577000248E0
1.365990940E0,1.794616925E-3,9.576973915E0,-4.331009090E-1,9.586762174E0
1.368436304E0,1.794616925E-3,9.576973915E0,-4.307080805E-1,9.586654372E0
1.370880002E0,1.794616925E-3,9.588937759E0,-4.426721931E-1,9.599150444E0
1.373324638E0,-2.452643216E-2,9.584152222E0,-4.235295951E-1,9.593537026E0
1.375770002E0,8.973085321E-3,9.579366684E0,-4.402793646E-1,9.589483432E0
1.378213752E0,4.187439568E-3,9.562616348E0,-4.091726840E-1,9.571367261E0
1.380658388E0,-1.256231871E-2,9.584152222E0,-4.019941986E-1,9.592587292E0
1.383102867E0,-7.776673418E-3,9.591330528E0,-4.259224236E-1,9.600785993E0
1.385547502E0,-2.991028363E-3,9.576973915E0,-4.331009090E-1,9.586762473E0
1.387992867E0,-7.776673418E-3,9.565009117E0,-4.331009090E-1,9.574812598E0
1.390436617E0,-7.776673418E-3,9.565009117E0,-4.211367965E-1,9.574278881E0
1.392881252E0,-7.776673418E-3,9.567401886E0,-4.283152521E-1,9.576987693E0
1.395326617E0,8.973085321E-3,9.562616348E0,-4.067798555E-1,9.571268557E0
1.397770315E0,-1.256231871E-2,9.581759453E0,-4.354937077E-1,9.591659230E0
1.400214950E0,-2.991028363E-3,9.581759453E0,-4.259224236E-1,9.591221667E0
1.402659533E0,6.580262445E-3,9.574581146E0,-4.235295951E-1,9.583946199E0
1.405104117E0,-5.383851007E-3,9.574581146E0,-4.091726840E-1,9.583321731E0
1.407549481E0,-2.991028363E-3,9.562616348E0,-4.307080805E-1,9.572311624E0
1.409993231E0,-7.776673418E-3,9.560223579E0,-4.307080805E-1,9.569923971E0
1.412437867E0,1.136590727E-2,9.581759453E0,-4.259224236E-1,9.591227935E0
1.414883231E0,6.580262445E-3,9.574581146E0,-4.115654826E-1,9.583424940E0
1.417326929E0,1.794616925E-3,9.562616348E0,-4.115654826E-1,9.571469103E0
1.419771565E0,4.187439568E-3,9.567401886E0,-4.235295951E-1,9.576772614E0
1.422216148E0,8.973085321E-3,9.579366684E0,-4.235295951E-1,9.588729003E0
1.424660731E0,-1.734796353E-2,9.565009117E0,-4.331009090E-1,9.574825156E0
1.427106096E0,1.136590727E-2,9.591330528E0,-4.354937077E-1,9.601218946E0
1.429549794E0,-1.016949583E-2,9.579366684E0,-4.091726840E-1,9.588106788E0
1.431994429E0,1.375873014E-2,9.584152222E0,-4.139583111E-1,9.593097758E0
1.434439794E0,4.187439568E-3,9.584152222E0,-4.139583111E-1,9.593088805E0
1.436883544E0,1.615155302E-2,9.567401886E0,-4.139583111E-1,9.576366806E0
1.439328179E0,8.973085321E-3,9.596116066E0,-4.139583111E-1,9.605044797E0
1.441772763E0,4.187439568E-3,9.581759453E0,-4.211367965E-1,9.591010789E0
1.444217242E0,6.580262445E-3,9.562616348E0,-4.235295951E-1,9.571993107E0
1.446662658E0,1.375873014E-2,9.569794655E0,-4.402793646E-1,9.579927190E0
1.449106408E0,6.580262445E-3,9.562616348E0,-4.259224236E-1,9.572099280E0
1.451551044E0,6.580262445E-3,9.581759453E0,-4.235295951E-1,9.591117496E0
1.453996408E0,-1.734796353E-2,9.572187424E0,-4.307080805E-1,9.581888252E0
1.456440158E0,6.580262445E-3,9.569794655E0,-4.354937077E-1,9.579700820E0
1.458884742E0,-5.383851007E-3,9.574581146E0,-4.307080805E-1,9.584265364E0
1.461329325E0,4.187439568E-3,9.557830811E0,-4.163511395E-1,9.566895819E0
1.463773908E0,-2.991028363E-3,9.565009117E0,-4.331009090E-1,9.574809907E0
1.466219273E0,1.794616925E-3,9.588937759E0,-4.283152521E-1,9.598499077E0
1.468663023E0,4.187439568E-3,9.565009117E0,-4.235295951E-1,9.574382187E0
1.471107658E0,-1.256231871E-2,9.581759453E0,-4.354937077E-1,9.591659230E0
1.473553023E0,-7.776673418E-3,9.567401886E0,-4.211367965E-1,9.576669334E0
1.475996721E0,-5.383851007E-3,9.569794655E0,-4.211367965E-1,9.579058144E0
1.478441356E0,-7.776673418E-3,9.581759453E0,-4.283152521E-1,9.591330911E0
1.480885940E0,1.794616925E-3,9.576973915E0,-4.043870270E-1,9.585507887E0
1.483330523E0,-5.383851007E-3,9.574581146E0,-4.378865361E-1,9.584590640E0
1.485775888E0,-5.982056609E-4,9.581759453E0,-4.307080805E-1,9.591434930E0
1.488219586E0,-2.991028363E-3,9.565009117E0,-4.139583111E-1,9.573963121E0
1.490664221E0,-1.734796353E-2,9.579366684E0,-4.091726840E-1,9.588117089E0
1.493109586E0,4.187439568E-3,9.581759453E0,-4.235295951E-1,9.591116153E0
1.495553336E0,6.580262445E-3,9.574581146E0,-4.307080805E-1,9.584266110E0
1.497997971E0,-1.256231871E-2,9.574581146E0,-4.235295951E-1,9.583952173E0
1.500442554E0,8.973085321E-3,9.572187424E0,-4.211367965E-1,9.581451288E0
1.502887033E0,1.375873014E-2,9.579366684E0,-4.259224236E-1,9.588840664E0
1.505332450E0,4.187439568E-3,9.572187424E0,-4.115654826E-1,9.581032082E0
1.507776200E0,-1.256231871E-2,9.598508835E0,-4.283152521E-1,9.608068673E0
1.510220836E0,6.580262445E-3,9.572187424E0,-4.091726840E-1,9.580930939E0
1.512666200E0,1.794616925E-3,9.567401886E0,-4.307080805E-1,9.577092018E0
1.515109950E0,1.854437590E-2,9.569794655E0,-4.187439680E-1,9.578969681E0
1.517554533E0,1.794616925E-3,9.567401886E0,-4.091726840E-1,9.576147678E0
1.519999117E0,-1.256231871E-2,9.581759453E0,-4.283152521E-1,9.591335985E0
1.522443700E0,4.187439568E-3,9.567401886E0,-4.163511395E-1,9.576457834E0
1.524889065E0,-5.383851007E-3,9.569794655E0,-4.259224236E-1,9.579269734E0
1.527332815E0,-5.982056609E-4,9.555438042E0,-4.211367965E-1,9.564713939E0
1.529777450E0,-7.776673418E-3,9.581759453E0,-4.426721931E-1,9.591982765E0
1.532222815E0,2.093719877E-2,9.586544991E0,-4.283152521E-1,9.596131365E0
1.534666513E0,6.580262445E-3,9.567401886E0,-4.259224236E-1,9.576880080E0
1.537111148E0,-1.256231871E-2,9.569794655E0,-4.259224236E-1,9.579276458E0
1.539555731E0,6.580262445E-3,9.572187424E0,-4.139583111E-1,9.581136512E0
1.542000315E0,1.375873014E-2,9.586544991E0,-4.307080805E-1,9.596225488E0
1.544445679E0,6.580262445E-3,9.579366684E0,-4.259224236E-1,9.588833051E0
1.546889377E0,1.794616925E-3,9.581759453E0,-4.163511395E-1,9.590801098E0
1.549334013E0,-5.383851007E-3,9.569794655E0,-4.283152521E-1,9.579376424E0
1.551779377E0,1.136590727E-2,9.574581146E0,-4.211367965E-1,9.583845236E0
1.554223127E0,1.136590727E-2,9.565009117E0,-4.259224236E-1,9.574494164E0
1.556667763E0,-2.991028363E-3,9.565009117E0,-4.378865361E-1,9.575027570E0
1.559112346E0,-5.982056609E-4,9.576973915E0,-4.307080805E-1,9.586654222E0
1.561556825E0,1.615155302E-2,9.588937759E0,-4.594219327E-1,9.599950872E0
1.564002294E0,-7.776673418E-3,9.581759453E0,-4.307080805E-1,9.591438064E0
1.566445992E0,1.136590727E-2,9.572187424E0,-4.402793646E-1,9.582314291E0
1.568890627E0,6.580262445E-3,9.567401886E0,-4.283152521E-1,9.576986797E0
1.571335992E0,1.854437590E-2,9.581759453E0,-4.259224236E-1,9.591239128E0
1.573779742E0,-1.734796353E-2,9.584152222E0,-4.187439680E-1,9.593311278E0
1.576224325E0,-2.931207791E-2,9.574581146E0,-4.187439680E-1,9.583778474E0
1.578668908E0,-2.213360928E-2,9.576973915E0,-4.259224236E-1,9.586465938E0
1.581113492E0,2.333002165E-2,9.581759453E0,-4.307080805E-1,9.591463285E0
1.583558856E0,-5.982056609E-4,9.572187424E0,-4.331009090E-1,9.581980423E0
1.586002606E0,-1.016949583E-2,9.581759453E0,-4.378865361E-1,9.591765335E0
1.588447242E0,6.580262445E-3,9.579366684E0,-4.378865361E-1,9.589371929E0
1.590892606E0,-5.383851007E-3,9.572187424E0,-4.378865361E-1,9.582199418E0
1.593336304E0,1.136590727E-2,9.581759453E0,-4.067798555E-1,9.590396929E0
1.595780940E0,4.187439568E-3,9.576973915E0,-4.091726840E-1,9.585711721E0
1.598225523E0,1.375873014E-2,9.562616348E0,-4.235295951E-1,9.572000734E0
1.600670106E0,-5.383851007E-3,9.565009117E0,-4.259224236E-1,9.574488932E0
1.603115471E0,-7.776673418E-3,9.567401886E0,-4.354937077E-1,9.577311423E0
1.605559221E0,4.187439568E-3,9.567401886E0,-4.115654826E-1,9.576250964E0
1.608003804E0,1.136590727E-2,9.586544991E0,-3.876372576E-1,9.594385686E0
1.610449169E0,1.136590727E-2,9.560223579E0,-4.091726840E-1,9.568982514E0
1.612892919E0,-2.991028363E-3,9.584152222E0,-4.019941986E-1,9.592579533E0
1.615337554E0,-1.974078640E-2,9.560223579E0,-4.426721931E-1,9.570487096E0
1.617782138E0,-5.982056609E-4,9.569794655E0,-4.187439680E-1,9.578951749E0
1.620226617E0,1.136590727E-2,9.572187424E0,-4.139583111E-1,9.581140994E0
1.622672086E0,6.580262445E-3,9.560223579E0,-4.211367965E-1,9.569497081E0
1.625115783E0,1.375873014E-2,9.562616348E0,-4.115654826E-1,9.571478824E0
1.627560419E0,-1.495514158E-2,9.555438042E0,-4.235295951E-1,9.564831266E0
1.630005783E0,-5.982056609E-4,9.576973915E0,-4.235295951E-1,9.586334390E0
1.632449533E0,-2.991028363E-3,9.576973915E0,-4.211367965E-1,9.586229421E0
1.634894117E0,6.580262445E-3,9.584152222E0,-4.354937077E-1,9.594043562E0
1.637338700E0,2.333002165E-2,9.584152222E0,-4.283152521E-1,9.593746508E0
1.639783283E0,1.854437590E-2,9.584152222E0,-4.259224236E-1,9.593629533E0
1.642228648E0,1.375873014E-2,9.569794655E0,-4.402793646E-1,9.579927190E0
1.644672398E0,6.580262445E-3,9.562616348E0,-4.354937077E-1,9.572529942E0
1.647117033E0,-2.991028363E-3,9.565009117E0,-4.067798555E-1,9.573655426E0
1.649562398E0,1.615155302E-2,9.581759453E0,-4.139583111E-1,9.590710952E0
1.652006096E0,2.093719877E-2,9.584152222E0,-4.235295951E-1,9.593528521E0
1.654450731E0,-2.991028363E-3,9.574581146E0,-4.283152521E-1,9.584157085E0
1.656895315E0,4.187439568E-3,9.565009117E0,-4.187439680E-1,9.574171685E0
1.659339898E0,6.580262445E-3,9.562616348E0,-4.283152521E-1,9.572206051E0
1.661785263E0,4.187439568E-3,9.581759453E0,-4.139583111E-1,9.590698266E0
1.664228961E0,-1.974078640E-2,9.565009117E0,-4.163511395E-1,9.574086765E0
1.666673596E0,6.580262445E-3,9.567401886E0,-3.996013701E-1,9.575745579E0
1.669118961E0,-7.776673418E-3,9.567401886E0,-4.235295951E-1,9.576774856E0
1.671562711E0,-7.776673418E-3,9.574581146E0,-4.546363056E-1,9.585372125E0
1.674007346E0,6.580262445E-3,9.586544991E0,-4.211367965E-1,9.595793055E0
1.676451929E0,-1.016949583E-2,9.581759453E0,-4.235295951E-1,9.591120630E0
1.678896408E0,6.580262445E-3,9.593723297E0,-4.331009090E-1,9.603496572E0
1.681341877E0,1.854437590E-2,9.579366684E0,-4.187439680E-1,9.588532550E0
1.683785575E0,-5.383851007E-3,9.584152222E0,-4.450650215E-1,9.594482043E0
1.686230211E0,-1.256231871E-2,9.572187424E0,-4.283152521E-1,9.581773523E0
1.688675575E0,-1.016949583E-2,9.562616348E0,-4.283152521E-1,9.572209191E0
1.691119325E0,1.136590727E-2,9.569794655E0,-4.139583111E-1,9.578750461E0
1.693563908E0,-7.776673418E-3,9.574581146E0,-4.307080805E-1,9.584267007E0
1.696008492E0,4.187439568E-3,9.584152222E0,-4.163511395E-1,9.593192358E0
1.698453075E0,-2.991028363E-3,9.565009117E0,-4.354937077E-1,9.574918440E0
1.700898440E0,-5.383851007E-3,9.567401886E0,-4.139583111E-1,9.576354699E0
1.703342190E0,-1.256231871E-2,9.579366684E0,-4.115654826E-1,9.588212035E0
1.705786825E0,-5.383851007E-3,9.576973915E0,-4.211367965E-1,9.586230467E0
1.708232190E0,1.854437590E-2,9.574581146E0,-4.211367965E-1,9.583856438E0
1.710675888E0,-5.982056609E-4,9.581759453E0,-4.115654826E-1,9.590594388E0
1.713120523E0,-2.991028363E-3,9.557830811E0,-4.139583111E-1,9.566791533E0
1.715565106E0,-5.982056609E-4,9.593723297E0,-4.187439680E-1,9.602857573E0
1.718009690E0,-2.991028363E-3,9.572187424E0,-4.091726840E-1,9.580929146E0
1.720455054E0,1.794616925E-3,9.574581146E0,-4.163511395E-1,9.583629564E0
1.722898752E0,8.973085321E-3,9.586544991E0,-4.139583111E-1,9.595482628E0
1.725343388E0,4.187439568E-3,9.574581146E0,-4.187439680E-1,9.583734563E0
1.727788752E0,-5.982056609E-4,9.565009117E0,-4.235295951E-1,9.574381290E0
1.730232502E0,8.973085321E-3,9.574581146E0,-4.402793646E-1,9.584702946E0
1.732677138E0,-2.991028363E-3,9.562616348E0,-4.043870270E-1,9.571163421E0
1.735121721E0,6.580262445E-3,9.576973915E0,-4.139583111E-1,9.585918535E0
1.737566304E0,8.973085321E-3,9.567401886E0,-4.331009090E-1,9.577203964E0
1.740011669E0,1.794616925E-3,9.588937759E0,-4.259224236E-1,9.598392599E0
1.742455367E0,-1.016949583E-2,9.598508835E0,-4.043870270E-1,9.607028892E0
1.744900002E0,1.794616925E-3,9.591330528E0,-4.331009090E-1,9.601104151E0
1.747345367E0,8.973085321E-3,9.572187424E0,-4.354937077E-1,9.582093057E0
1.749789117E0,2.333002165E-2,9.543474197E0,-4.498506486E-1,9.554099102E0
1.752233752E0,-2.213360928E-2,9.555438042E0,-4.402793646E-1,9.565601496E0
1.754678231E0,-1.495514158E-2,9.560223579E0,-4.426721931E-1,9.570478421E0
1.757122867E0,-1.495514158E-2,9.574581146E0,-4.402793646E-1,9.584710413E0
1.759568231E0,-2.991028363E-3,9.565009117E0,-4.211367965E-1,9.574276190E0
1.762011981E0,1.375873014E-2,9.603294373E0,-4.163511395E-1,9.612325441E0
1.764456617E0,2.093719877E-2,9.576973915E0,-3.972085714E-1,9.585230429E0
1.766901981E0,1.136590727E-2,9.576973915E0,-4.163511395E-1,9.586026644E0
1.769345679E0,-7.776673418E-3,9.536295891E0,-4.235295951E-1,9.545699404E0
1.771790315E0,-2.691925503E-2,9.605687141E0,-4.187439680E-1,9.614847717E0
1.774234898E0,-1.734796353E-2,9.574581146E0,-4.235295951E-1,9.583959641E0
1.776679481E0,-5.982056609E-4,9.560223579E0,-4.618147612E-1,9.571371277E0
1.779124846E0,8.973085321E-3,9.615258217E0,-3.517449200E-1,9.621694008E0
1.781568544E0,2.572284266E-2,9.541081429E0,-4.785645306E-1,9.553110514E0
1.784013179E0,1.854437590E-2,9.591330528E0,-4.235295951E-1,9.600694897E0
1.786458544E0,-7.776673418E-3,9.557830811E0,-4.091726840E-1,9.566588345E0
1.788902294E0,-1.256231871E-2,9.600901604E0,-4.618147612E-1,9.612010315E0
1.791346929E0,-1.974078640E-2,9.581759453E0,-3.637090325E-1,9.588680210E0
1.793791513E0,-5.982056609E-4,9.576973915E0,-4.881358147E-1,9.589405941E0
1.796235992E0,2.093719877E-2,9.567401886E0,-3.876372576E-1,9.575274401E0
1.798681461E0,1.854437590E-2,9.567401886E0,-4.091726840E-1,9.576165466E0
1.801125158E0,6.580262445E-3,9.572187424E0,-4.618147612E-1,9.583323445E0
1.803569794E0,-2.991028363E-3,9.557830811E0,-4.187439680E-1,9.566999805E0
1.806015158E0,-4.845465720E-2,9.584152222E0,-4.426721931E-1,9.594492187E0
1.808458908E0,-1.016949583E-2,9.581759453E0,-4.115654826E-1,9.590599761E0
1.810903492E0,8.973085321E-3,9.576973915E0,-4.163511395E-1,9.586024106E0
1.813348075E0,2.811566554E-2,9.591330528E0,-4.283152521E-1,9.600930463E0
1.815792658E0,2.093719877E-2,9.584152222E0,-4.019941986E-1,9.592601916E0
1.818238023E0,8.973085321E-3,9.588937759E0,-4.259224236E-1,9.598396626E0
1.820681773E0,-7.776673418E-3,9.576973915E0,-4.139583111E-1,9.585919431E0
1.823126408E0,-1.256231871E-2,9.574581146E0,-4.354937077E-1,9.584488338E0
1.825571773E0,-2.691925503E-2,9.579366684E0,-4.378865361E-1,9.589407455E0
1.828015471E0,-7.776673418E-3,9.574581146E0,-4.091726840E-1,9.583323374E0
1.830460106E0,2.093719877E-2,9.579366684E0,-4.307080805E-1,9.589067415E0
1.832904690E0,2.572284266E-2,9.581759453E0,-4.378865361E-1,9.591794436E0
1.835349273E0,8.973085321E-3,9.560223579E0,-4.283152521E-1,9.569817624E0
1.837794638E0,-7.776673418E-3,9.569794655E0,-4.043870270E-1,9.578338012E0
1.840238336E0,-7.776673418E-3,9.584152222E0,-4.235295951E-1,9.593508826E0
1.842682971E0,-7.776673418E-3,9.593723297E0,-4.091726840E-1,9.602448097E0
1.845128336E0,-7.507480681E-2,9.404690742E0,-3.996013701E-1,9.413475737E0
1.847572086E0,1.956132501E-1,9.742077827E0,-6.200401783E-1,9.763749012E0
1.850016721E0,6.580262445E-3,9.684650421E0,-1.674975902E-1,9.686100997E0
1.852461304E0,6.580262445E-3,9.643972397E0,-4.594219327E-1,9.654911465E0
1.854905783E0,2.572284266E-2,9.459725380E0,-4.689932466E-1,9.471379023E0
1.857351252E0,1.794616925E-3,9.459725380E0,-3.541377485E-1,9.466352044E0
1.859794950E0,-1.085743308E-1,9.632008553E0,-4.498506486E-1,9.643118933E0
1.862239586E0,-1.420738399E-1,9.526723862E0,-3.589234054E-1,9.534541338E0
1.864684950E0,6.161518395E-2,9.620044708E0,-6.032904387E-1,9.639139794E0
1.867128700E0,6.161518395E-2,9.679864883E0,-2.751746178E-1,9.683971379E0
1.869573283E0,2.027917206E-1,9.584152222E0,-5.048855543E-1,9.599583726E0
1.872017867E0,3.290131316E-2,9.464510918E0,-4.091726840E-1,9.473408663E0
1.874462450E0,-4.127619043E-2,9.543474197E0,-4.546363056E-1,9.554386304E0
1.876907815E0,-1.564307809E-1,9.648757935E0,-4.043870270E-1,9.658495180E0
1.879351565E0,-7.986045629E-2,9.591330528E0,-4.618147612E-1,9.602774176E0
1.881796200E0,8.973085321E-3,9.555438042E0,-4.331009090E-1,9.565252379E0
1.884241565E0,1.501496136E-1,9.588937759E0,-4.187439680E-1,9.599250948E0
1.886685263E0,9.990034252E-2,9.605687141E0,-3.541377485E-1,9.612732134E0
1.889129898E0,3.529413417E-2,9.533903122E0,-4.402793646E-1,9.544129103E0
1.891574481E0,-8.225327730E-2,9.569794655E0,-3.541377485E-1,9.576698224E0
1.894019065E0,-1.229312643E-1,9.600901604E0,-4.666004181E-1,9.613019279E0
1.896464429E0,-6.311069429E-2,9.593723297E0,-3.876372576E-1,9.601758813E0
1.898908127E0,5.204389244E-2,9.517152786E0,-4.905286431E-1,9.529927811E0
1.901352763E0,1.166501045E-1,9.574581146E0,-4.019941986E-1,9.583726348E0
1.903798127E0,5.443671346E-2,9.593723297E0,-4.378865361E-1,9.603865611E0
1.906241877E0,6.580262445E-3,9.584152222E0,-4.043870270E-1,9.592681897E0
1.908686513E0,-3.649054468E-2,9.557830811E0,-4.570291340E-1,9.568821087E0
1.911131096E0,-8.703892678E-2,9.584152222E0,-4.522434771E-1,9.595210980E0
1.913575575E0,-1.495514158E-2,9.567401886E0,-4.163511395E-1,9.576468596E0
1.916021044E0,4.725824669E-2,9.572187424E0,-4.378865361E-1,9.582314440E0
1.918464742E0,6.161518395E-2,9.557830811E0,-4.139583111E-1,9.566989480E0
1.920909377E0,3.050848842E-2,9.588937759E0,-4.067798555E-1,9.597610535E0
1.923354742E0,-2.691925503E-2,9.586544991E0,-4.139583111E-1,9.595516192E0
1.925798492E0,-4.366901144E-2,9.555438042E0,-4.139583111E-1,9.564500229E0
1.928243075E0,-3.170489892E-2,9.576973915E0,-4.331009090E-1,9.586814433E0
1.930687658E0,-4.366901144E-2,9.605687141E0,-4.283152521E-1,9.615330800E0
1.933132242E0,2.572284266E-2,9.574581146E0,-4.809573591E-1,9.586687946E0
1.935577606E0,7.597211748E-2,9.576973915E0,-4.019941986E-1,9.585708136E0
1.938021356E0,4.247260094E-2,9.567401886E0,-4.761717021E-1,9.579338300E0
1.940465992E0,1.854437590E-2,9.584152222E0,-4.331009090E-1,9.593950912E0
1.942911356E0,-2.931207791E-2,9.555438042E0,-4.498506486E-1,9.566066118E0
1.945355054E0,-3.649054468E-2,9.576973915E0,-4.115654826E-1,9.585882697E0
1.947799690E0,-1.256231871E-2,9.574581146E0,-4.259224236E-1,9.584058214E0
1.950244273E0,6.580262445E-3,9.576973915E0,-4.283152521E-1,9.586549255E0
1.952688856E0,3.768695518E-2,9.576973915E0,-3.876372576E-1,9.584889792E0
1.955134221E0,3.768695518E-2,9.567401886E0,-4.211367965E-1,9.576740330E0
1.957577919E0,-1.256231871E-2,9.562616348E0,-4.187439680E-1,9.571788534E0
1.960022554E0,-4.606183618E-2,9.579366684E0,-4.283152521E-1,9.589048009E0
1.962467919E0,-2.931207791E-2,9.569794655E0,-4.235295951E-1,9.579206974E0
1.964911669E0,-1.734796353E-2,9.586544991E0,-4.259224236E-1,9.596017701E0
1.967356304E0,8.973085321E-3,9.591330528E0,-4.354937077E-1,9.601216412E0
1.969800888E0,4.247260094E-2,9.591330528E0,-4.043870270E-1,9.599945525E0
1.972245367E0,2.572284266E-2,9.565009117E0,-4.187439680E-1,9.574205324E0
1.974690783E0,-2.991028363E-3,9.567401886E0,-4.067798555E-1,9.576046034E0
1.977134533E0,-3.409772366E-2,9.560223579E0,-4.091726840E-1,9.569036515E0
1.979579169E0,-3.649054468E-2,9.569794655E0,-4.235295951E-1,9.579231630E0
1.982024533E0,-1.495514158E-2,9.581759453E0,-4.211367965E-1,9.591021534E0
1.984468283E0,6.580262445E-3,9.581759453E0,-4.522434771E-1,9.592428351E0
1.986912867E0,1.375873014E-2,9.579366684E0,-4.091726840E-1,9.588111266E0
1.989357450E0,2.572284266E-2,9.569794655E0,-4.163511395E-1,9.578881964E0
1.991802033E0,1.375873014E-2,9.567401886E0,-4.115654826E-1,9.576259933E0
1.994247398E0,-2.452643216E-2,9.565009117E0,-4.283152521E-1,9.574625576E0
1.996691148E0,-4.366901144E-2,9.576973915E0,-4.426721931E-1,9.587298630E0
1.999135783E0,-2.691925503E-2,9.581759453E0,-4.259224236E-1,9.591258977E0
2.001581148E0,1.854437590E-2,9.586544991E0,-4.259224236E-1,9.596019939E0
2.004024846E0,2.333002165E-2,9.584152222E0,-4.139583111E-1,9.593116260E0
2.006469481E0,2.572284266E-2,9.574581146E0,-4.211367965E-1,9.583873016E0
2.008914065E0,1.854437590E-2,9.579366684E0,-4.163511395E-1,9.588428350E0
2.011358648E0,-1.734796353E-2,9.581759453E0,-4.091726840E-1,9.590507674E0
2.013804013E0,-1.974078640E-2,9.581759453E0,-4.402793646E-1,9.591889794E0
2.016247711E0,-1.734796353E-2,9.572187424E0,-4.067798555E-1,9.580842493E0
2.018692346E0,1.854437590E-2,9.567401886E0,-4.378865361E-1,9.577435323E0
2.021137711E0,2.572284266E-2,9.572187424E0,-4.187439680E-1,9.581376741E0
2.023581461E0,1.375873014E-2,9.560223579E0,-4.115654826E-1,9.569088271E0
2.026026096E0,-7.776673418E-3,9.586544991E0,-4.235295951E-1,9.595899262E0
2.028470679E0,-3.170489892E-2,9.581759453E0,-4.354937077E-1,9.591703404E0
2.030915158E0,-1.256231871E-2,9.572187424E0,-4.115654826E-1,9.581039403E0
2.033360575E0,1.794616925E-3,9.569794655E0,-3.972085714E-1,9.578034642E0
2.035804325E0,1.615155302E-2,9.569794655E0,-4.354937077E-1,9.579712176E0
2.038248961E0,3.050848842E-2,9.576973915E0,-4.139583111E-1,9.585964825E0
2.040694325E0,1.794616925E-3,9.572187424E0,-4.307080805E-1,9.581872716E0
2.043138075E0,-2.691925503E-2,9.569794655E0,-4.378865361E-1,9.579845458E0
2.045582658E0,-3.170489892E-2,9.581759453E0,-4.259224236E-1,9.591273603E0
2.048027242E0,4.187439568E-3,9.588937759E0,-4.474578202E-1,9.599373073E0
2.050471825E0,-7.776673418E-3,9.579366684E0,-4.211367965E-1,9.588622568E0
2.052917190E0,2.093719877E-2,9.569794655E0,-4.235295951E-1,9.579185008E0
2.055360940E0,2.333002165E-2,9.569794655E0,-3.996013701E-1,9.578162417E0
2.057805575E0,6.580262445E-3,9.574581146E0,-4.139583111E-1,9.583527999E0
2.060250940E0,1.794616925E-3,9.579366684E0,-4.522434771E-1,9.590036155E0
2.062694638E0,4.187439568E-3,9.567401886E0,-4.115654826E-1,9.576250964E0
2.065139273E0,4.187439568E-3,9.581759453E0,-4.402793646E-1,9.591870395E0
2.067583856E0,1.794616925E-3,9.569794655E0,-4.211367965E-1,9.579056799E0
2.070028440E0,1.136590727E-2,9.584152222E0,-3.996013701E-1,9.592485822E0
2.072473804E0,-5.982056609E-4,9.567401886E0,-4.283152521E-1,9.576984555E0
2.074917502E0,1.136590727E-2,9.572187424E0,-4.378865361E-1,9.582204646E0
2.077362138E0,-1.495514158E-2,9.576973915E0,-4.259224236E-1,9.586452052E0
2.079807502E0,-2.452643216E-2,9.572187424E0,-4.187439680E-1,9.581373604E0
2.082251252E0,-3.170489892E-2,9.586544991E0,-4.331009090E-1,9.596375694E0
2.084695888E0,4.187439568E-3,9.579366684E0,-4.139583111E-1,9.588307728E0
2.087140367E0,4.187439568E-3,9.567401886E0,-3.876372576E-1,9.575252426E0
2.089585002E0,2.572284266E-2,9.565009117E0,-4.378865361E-1,9.575061655E0
2.092030367E0,4.187439568E-3,9.576973915E0,-4.283152521E-1,9.586547912E0
2.094474117E0,-1.495514158E-2,9.579366684E0,-4.307080805E-1,9.589056219E0
2.096918752E0,-7.776673418E-3,9.576973915E0,-4.091726840E-1,9.585713960E0
2.099364117E0,-1.974078640E-2,9.588937759E0,-4.283152521E-1,9.598519209E0
2.101807815E0,8.973085321E-3,9.576973915E0,-4.163511395E-1,9.586024106E0
2.104252450E0,8.973085321E-3,9.584152222E0,-4.235295951E-1,9.593509871E0
2.106697033E0,1.854437590E-2,9.572187424E0,-4.354937077E-1,9.582106801E0
2.109141617E0,4.187439568E-3,9.581759453E0,-4.259224236E-1,9.591222115E0
2.111586981E0,-2.452643216E-2,9.567401886E0,-4.307080805E-1,9.577123255E0
2.114030731E0,-1.016949583E-2,9.586544991E0,-4.474578202E-1,9.596987380E0
2.116475315E0,1.136590727E-2,9.567401886E0,-4.498506486E-1,9.577978578E0
2.118920731E0,1.794616925E-3,9.576973915E0,-4.115654826E-1,9.585813410E0
2.121364429E0,6.580262445E-3,9.581759453E0,-4.043870270E-1,9.590291256E0
2.123809065E0,-5.982056609E-4,9.569794655E0,-4.163511395E-1,9.578847445E0
2.126253648E0,-1.734796353E-2,9.569794655E0,-4.187439680E-1,9.578967439E0
2.128698231E0,-5.982056609E-4,9.569794655E0,-4.187439680E-1,9.578951749E0
2.131143596E0,-5.982056609E-4,9.572187424E0,-4.187439680E-1,9.581342231E0
2.133587294E0,1.375873014E-2,9.565009117E0,-4.474578202E-1,9.575479477E0
2.136031929E0,-1.734796353E-2,9.555438042E0,-4.163511395E-1,9.564520134E0
2.138477294E0,1.854437590E-2,9.565009117E0,-4.139583111E-1,9.573980614E0
2.140921044E0,1.375873014E-2,9.562616348E0,-4.139583111E-1,9.571582012E0
2.143365679E0,-5.982056609E-4,9.557830811E0,-4.139583111E-1,9.566791084E0
2.145810158E0,-5.982056609E-4,9.574581146E0,-4.354937077E-1,9.584480124E0
2.148254794E0,-1.016949583E-2,9.600901604E0,-4.331009090E-1,9.610670706E0
2.150700158E0,1.375873014E-2,9.572187424E0,-4.307080805E-1,9.581882426E0
2.153143908E0,1.854437590E-2,9.567401886E0,-4.283152521E-1,9.577002490E0
2.155588544E0,1.615155302E-2,9.567401886E0,-4.043870270E-1,9.575957842E0
2.158033908E0,-5.383851007E-3,9.586544991E0,-4.307080805E-1,9.596217134E0
2.160477658E0,6.580262445E-3,9.576973915E0,-4.378865361E-1,9.586981657E0
2.162922242E0,-5.383851007E-3,9.572187424E0,-4.235295951E-1,9.581554069E0
2.165366825E0,-2.691925503E-2,9.581759453E0,-4.378865361E-1,9.591797719E0
2.167811408E0,-5.982056609E-4,9.576973915E0,-4.115654826E-1,9.585813261E0
2.170256773E0,1.854437590E-2,9.572187424E0,-4.235295951E-1,9.581570502E0
2.172700523E0,1.615155302E-2,9.579366684E0,-4.091726840E-1,9.588114998E0
2.175145106E0,-7.776673418E-3,9.576973915E0,-4.522434771E-1,9.587649035E0
2.177590471E0,1.375873014E-2,9.572187424E0,-4.307080805E-1,9.581882426E0
2.180034221E0,-1.256231871E-2,9.572187424E0,-4.067798555E-1,9.580835023E0
2.182478856E0,6.580262445E-3,9.586544991E0,-4.283152521E-1,9.596110780E0
2.184923440E0,8.973085321E-3,9.567401886E0,-4.354937077E-1,9.577312469E0
2.187368023E0,1.136590727E-2,9.584152222E0,-4.043870270E-1,9.592686373E0
2.189813388E0,8.973085321E-3,9.557830811E0,-4.331009090E-1,9.567642694E0
2.192257086E0,1.136590727E-2,9.562616348E0,-4.522434771E-1,9.573311066E0
2.194701721E0,-2.991028363E-3,9.562616348E0,-4.402793646E-1,9.572747061E0
2.197147086E0,-2.213360928E-2,9.584152222E0,-4.283152521E-1,9.593743673E0
2.199590836E0,8.973085321E-3,9.562616348E0,-4.259224236E-1,9.572101224E0
2.202035419E0,6.580262445E-3,9.576973915E0,-4.187439680E-1,9.586126391E0
2.204480002E0,1.375873014E-2,9.596116066E0,-4.426721931E-1,9.606330804E0
2.206924586E0,8.973085321E-3,9.586544991E0,-4.235295951E-1,9.595900306E0
2.209369950E0,1.794616925E-3,9.572187424E0,-4.450650215E-1,9.582528798E0
2.211813700E0,1.136590727E-2,9.586544991E0,-4.187439680E-1,9.595692812E0
2.214258336E0,-1.734796353E-2,9.567401886E0,-4.307080805E-1,9.577107562E0
2.216703700E0,-2.213360928E-2,9.572187424E0,-4.187439680E-1,9.581367777E0
2.219147398E0,1.375873014E-2,9.581759453E0,-4.283152521E-1,9.591337627E0
2.221592033E0,8.973085321E-3,9.581759453E0,-4.115654826E-1,9.590598567E0
2.224036617E0,8.973085321E-3,9.588937759E0,-4.043870270E-1,9.597465120E0
2.226481200E0,4.187439568E-3,9.584152222E0,-4.402793646E-1,9.594260642E0
2.228926565E0,-1.495514158E-2,9.569794655E0,-4.426721931E-1,9.580039252E0
2.231370315E0,-1.734796353E-2,9.565009117E0,-4.307080805E-1,9.574717218E0
2.233814898E0,-7.776673418E-3,9.584152222E0,-4.187439680E-1,9.593298744E0
2.236260263E0,4.187439568E-3,9.569794655E0,-4.331009090E-1,9.579590997E0
2.238704013E0,2.333002165E-2,9.579366684E0,-4.283152521E-1,9.588965758E0
2.241148648E0,1.136590727E-2,9.593723297E0,-4.402793646E-1,9.603827456E0
2.243593231E0,8.973085321E-3,9.572187424E0,-4.259224236E-1,9.581662826E0
2.246037711E0,-1.016949583E-2,9.584152222E0,-4.474578202E-1,9.594597216E0
2.248483179E0,-1.016949583E-2,9.572187424E0,-4.259224236E-1,9.581664021E0
2.250926877E0,1.794616925E-3,9.555438042E0,-4.307080805E-1,9.565140294E0
2.253371513E0,4.187439568E-3,9.569794655E0,-4.187439680E-1,9.578952645E0
2.255816877E0,1.854437590E-2,9.581759453E0,-4.283152521E-1,9.591345686E0
2.258260627E0,1.375873014E-2,9.567401886E0,-4.211367965E-1,9.576676060E0
2.260705211E0,1.136590727E-2,9.581759453E0,-4.091726840E-1,9.590498719E0
2.263149794E0,2.093719877E-2,9.565009117E0,-4.283152521E-1,9.574617054E0
2.265594377E0,-2.213360928E-2,9.576973915E0,-4.163511395E-1,9.586045459E0
2.268039742E0,-2.991028363E-3,9.576973915E0,-4.331009090E-1,9.586762473E0
2.270483492E0,2.093719877E-2,9.565009117E0,-4.378865361E-1,9.575049994E0
2.272928127E0,-1.016949583E-2,9.576973915E0,-4.307080805E-1,9.586659598E0
2.275373492E0,8.973085321E-3,9.572187424E0,-4.259224236E-1,9.581662826E0
2.277817190E0,-2.213360928E-2,9.572187424E0,-4.283152521E-1,9.581790852E0
2.280261825E0,-2.991028363E-3,9.562616348E0,-4.354937077E-1,9.572528148E0
2.282706408E0,2.093719877E-2,9.569794655E0,-4.235295951E-1,9.579185008E0
2.285150992E0,4.187439568E-3,9.576973915E0,-4.283152521E-1,9.586547912E0
2.287596356E0,6.580262445E-3,9.586544991E0,-4.307080805E-1,9.596217880E0
2.290040054E0,1.136590727E-2,9.569794655E0,-4.259224236E-1,9.579274964E0
2.292484690E0,-2.991028363E-3,9.574581146E0,-4.163511395E-1,9.583629863E0
2.294930054E0,-2.991028363E-3,9.574581146E0,-4.259224236E-1,9.584050448E0
2.297373804E0,6.580262445E-3,9.581759453E0,-4.642075896E-1,9.592999854E0
2.299818440E0,-5.982056609E-4,9.569794655E0,-4.331009090E-1,9.579590100E0
2.302263023E0,-5.982056609E-4,9.581759453E0,-4.235295951E-1,9.591115258E0
2.304707502E0,-2.991028363E-3,9.586544991E0,-4.211367965E-1,9.595791265E0
2.307152971E0,1.615155302E-2,9.562616348E0,-4.139583111E-1,9.571585751E0
2.309596669E0,2.093719877E-2,9.562616348E0,-4.235295951E-1,9.572013744E0
2.312041304E0,-7.776673418E-3,9.572187424E0,-4.307080805E-1,9.581875704E0
2.314486669E0,1.136590727E-2,9.557830811E0,-4.235295951E-1,9.567216748E0
2.316930419E0,-5.982056609E-4,9.586544991E0,-4.019941986E-1,9.594969752E0
2.319375002E0,8.973085321E-3,9.581759453E0,-4.235295951E-1,9.591119437E0
2.321819586E0,1.375873014E-2,9.586544991E0,-4.163511395E-1,9.595591823E0
2.324264169E0,4.187439568E-3,9.567401886E0,-4.235295951E-1,9.576772614E0
2.326709533E0,1.794616925E-3,9.581759453E0,-4.307080805E-1,9.591435079E0
2.329153283E0,-5.982056609E-4,9.586544991E0,-4.354937077E-1,9.596431628E0
2.331597919E0,1.615155302E-2,9.576973915E0,-4.211367965E-1,9.586242561E0
2.334043283E0,1.794616925E-3,9.567401886E0,-3.924229145E-1,9.575446612E0
2.336486981E0,4.187439568E-3,9.572187424E0,-4.259224236E-1,9.581659539E0
2.338931617E0,8.973085321E-3,9.584152222E0,-4.283152521E-1,9.593722337E0
2.341376200E0,6.580262445E-3,9.584152222E0,-4.331009090E-1,9.593935246E0
2.343820783E0,8.973085321E-3,9.574581146E0,-4.091726840E-1,9.583324419E0
2.346266148E0,-2.991028363E-3,9.567401886E0,-4.163511395E-1,9.576457386E0
2.348709846E0,-7.776673418E-3,9.586544991E0,-4.019941986E-1,9.594972885E0
2.351154481E0,-2.991028363E-3,9.574581146E0,-4.043870270E-1,9.583117548E0
2.353599846E0,-5.383851007E-3,9.557830811E0,-4.163511395E-1,9.566896417E0
2.356043596E0,1.615155302E-2,9.555438042E0,-4.043870270E-1,9.564004700E0
2.358488231E0,8.973085321E-3,9.576973915E0,-4.187439680E-1,9.586128332E0
2.360932815E0,-7.776673418E-3,9.557830811E0,-4.163511395E-1,9.566898063E0
2.363377294E0,4.187439568E-3,9.586544991E0,-4.259224236E-1,9.596002934E0
2.365822711E0,-7.776673418E-3,9.593723297E0,-4.402793646E-1,9.603823879E0
2.368266461E0,-5.383851007E-3,9.572187424E0,-4.354937077E-1,9.582090368E0
2.370711096E0,-5.383851007E-3,9.557830811E0,-4.307080805E-1,9.567531983E0
2.373156461E0,2.093719877E-2,9.584152222E0,-4.283152521E-1,9.593740987E0
2.375600158E0,8.973085321E-3,9.584152222E0,-4.091726840E-1,9.592886771E0
2.378044794E0,-1.256231871E-2,9.588937759E0,-4.187439680E-1,9.598084792E0
2.380489377E0,1.375873014E-2,9.569794655E0,-4.187439680E-1,9.578961611E0
2.382933961E0,-2.452643216E-2,9.574581146E0,-4.259224236E-1,9.584081364E0
2.385379325E0,-1.256231871E-2,9.567401886E0,-4.354937077E-1,9.577316505E0
2.387823075E0,-7.776673418E-3,9.581759453E0,-4.378865361E-1,9.591763097E0
2.390267711E0,-2.991028363E-3,9.567401886E0,-4.139583111E-1,9.576353652E0
2.392713075E0,6.580262445E-3,9.576973915E0,-4.259224236E-1,9.586442645E0
2.395156773E0,4.187439568E-3,9.565009117E0,-4.211367965E-1,9.574276638E0
2.397601408E0,-7.776673418E-3,9.567401886E0,-4.331009090E-1,9.577202917E0
2.400045992E0,4.187439568E-3,9.567401886E0,-4.187439680E-1,9.576562165E0
2.402490575E0,1.375873014E-2,9.591330528E0,-4.115654826E-1,9.600166496E0
2.404935940E0,1.375873014E-2,9.581759453E0,-4.546363056E-1,9.592549071E0
2.407379638E0,6.580262445E-3,9.579366684E0,-4.187439680E-1,9.588516876E0
2.409824273E0,-1.734796353E-2,9.581759453E0,-4.115654826E-1,9.590610059E0
2.412269638E0,8.973085321E-3,9.581759453E0,-4.307080805E-1,9.591439109E0
2.414713388E0,-1.734796353E-2,9.574581146E0,-4.187439680E-1,9.583749349E0
2.417158023E0,6.580262445E-3,9.574581146E0,-4.115654826E-1,9.583424940E0
2.419602606E0,1.794616925E-3,9.565009117E0,-4.450650215E-1,9.575358244E0
2.422047086E0,-2.991028363E-3,9.572187424E0,-4.450650215E-1,9.582529097E0
2.424492502E0,-2.991028363E-3,9.591330528E0,-4.259224236E-1,9.600783310E0
2.426936252E0,1.615155302E-2,9.567401886E0,-4.378865361E-1,9.577430988E0
2.429380888E0,-5.982056609E-4,9.572187424E0,-4.187439680E-1,9.581342231E0
2.431826252E0,1.794616925E-3,9.574581146E0,-4.139583111E-1,9.583525908E0
2.434269950E0,1.136590727E-2,9.576973915E0,-4.187439680E-1,9.586130870E0
2.436714586E0,6.580262445E-3,9.579366684E0,-4.259224236E-1,9.588833051E0
2.439159169E0,1.615155302E-2,9.579366684E0,-4.139583111E-1,9.588320417E0
2.441603752E0,1.136590727E-2,9.562616348E0,-4.283152521E-1,9.572210537E0
2.444049117E0,1.615155302E-2,9.565009117E0,-4.331009090E-1,9.574823063E0
2.446492867E0,-5.982056609E-4,9.567401886E0,-4.522434771E-1,9.578084535E0
2.448937450E0,1.794616925E-3,9.579366684E0,-4.163511395E-1,9.588410586E0
2.451382815E0,-1.016949583E-2,9.586544991E0,-4.115654826E-1,9.595380890E0
2.453826565E0,1.375873014E-2,9.586544991E0,-4.474578202E-1,9.596991855E0
2.456271200E0,-5.383851007E-3,9.569794655E0,-4.331009090E-1,9.579591595E0
2.458715783E0,1.854437590E-2,9.572187424E0,-4.283152521E-1,9.581783233E0
2.461160367E0,-7.776673418E-3,9.581759453E0,-4.331009090E-1,9.591545813E0
2.463605731E0,4.187439568E-3,9.593723297E0,-4.426721931E-1,9.603931638E0
2.466049429E0,6.580262445E-3,9.586544991E0,-4.378865361E-1,9.596542751E0
2.468494065E0,-5.982056609E-4,9.574581146E0,-4.163511395E-1,9.583629415E0
2.470939429E0,1.794616925E-3,9.560223579E0,-4.235295951E-1,9.569600589E0
2.473383179E0,-5.982056609E-4,9.581759453E0,-4.378865361E-1,9.591759963E0
2.475827815E0,-2.991028363E-3,9.579366684E0,-4.307080805E-1,9.589045023E0
2.478272294E0,-7.776673418E-3,9.584152222E0,-4.235295951E-1,9.593508826E0
2.480716929E0,-5.982056609E-4,9.562616348E0,-4.307080805E-1,9.572311175E0
2.483162294E0,6.580262445E-3,9.555438042E0,-4.283152521E-1,9.565034941E0
2.485606044E0,1.615155302E-2,9.572187424E0,-4.235295951E-1,9.581566170E0
2.488050679E0,8.973085321E-3,9.562616348E0,-4.091726840E-1,9.571370551E0
2.490496044E0,4.187439568E-3,9.550652504E0,-4.211367965E-1,9.559933943E0
2.492939742E0,6.580262445E-3,9.596116066E0,-4.474578202E-1,9.606544923E0
2.495384377E0,-2.991028363E-3,9.617651939E0,-4.043870270E-1,9.626150146E0
2.497828961E0,-2.991028363E-3,9.565009117E0,-4.666004181E-1,9.576383676E0
2.500273544E0,-5.982056609E-4,9.574581146E0,-3.924229145E-1,9.582619695E0
2.502718908E0,8.973085321E-3,9.569794655E0,-4.378865361E-1,9.579811839E0
2.505162606E0,-2.991028363E-3,9.541081429E0,-4.187439680E-1,9.550266503E0
2.507607242E0,4.187439568E-3,9.576973915E0,-3.996013701E-1,9.585307932E0
2.510052606E0,-3.649054468E-2,9.567401886E0,-4.378865361E-1,9.577486885E0
2.512496356E0,8.973085321E-3,9.598508835E0,-4.354937077E-1,9.608387333E0
2.514940992E0,4.725824669E-2,9.567401886E0,-4.354937077E-1,9.577424861E0
2.517385575E0,2.333002165E-2,9.562616348E0,-4.307080805E-1,9.572339587E0
2.519830054E0,1.615155302E-2,9.560223579E0,-3.948157430E-1,9.568386240E0
2.522275523E0,-1.256231871E-2,9.557830811E0,-4.283152521E-1,9.567431294E0
2.524719221E0,-4.606183618E-2,9.593723297E0,-4.331009090E-1,9.603604781E0
2.527163856E0,-1.256231871E-2,9.591330528E0,-4.187439680E-1,9.600475281E0
2.529609221E0,6.580262445E-3,9.586544991E0,-4.402793646E-1,9.596652233E0
2.532052971E0,2.811566554E-2,9.579366684E0,-4.354937077E-1,9.589301921E0
2.534497554E0,1.136590727E-2,9.569794655E0,-4.163511395E-1,9.578854169E0
2.536942138E0,8.973085321E-3,9.579366684E0,-4.235295951E-1,9.588729003E0
2.539386721E0,-3.409772366E-2,9.591330528E0,-4.307080805E-1,9.601056890E0
2.541832086E0,-2.931207791E-2,9.574581146E0,-4.307080805E-1,9.584308675E0
2.544275836E0,-1.495514158E-2,9.588937759E0,-4.283152521E-1,9.598510560E0
2.546720471E0,1.854437590E-2,9.555438042E0,-4.211367965E-1,9.564731897E0
2.549165836E0,2.572284266E-2,9.569794655E0,-4.163511395E-1,9.578881964E0
2.551609533E0,2.333002165E-2,9.567401886E0,-4.235295951E-1,9.576800116E0
2.554054169E0,-2.691925503E-2,9.555438042E0,-4.091726840E-1,9.564232489E0
2.556498752E0,-1.734796353E-2,9.576973915E0,-4.426721931E-1,9.587214872E0
2.558943336E0,-3.649054468E-2,9.579366684E0,-4.354937077E-1,9.589330133E0
2.561388700E0,1.794616925E-3,9.588937759E0,-4.307080805E-1,9.598606150E0
2.563832398E0,4.187439568E-3,9.588937759E0,-4.331009090E-1,9.598714564E0
2.566277033E0,3.529413417E-2,9.572187424E0,-4.115654826E-1,9.581096174E0
2.568722398E0,1.136590727E-2,9.581759453E0,-4.426721931E-1,9.591986346E0
2.571166148E0,-2.452643216E-2,9.567401886E0,-3.972085714E-1,9.575675174E0
2.573610783E0,-1.974078640E-2,9.593723297E0,-4.283152521E-1,9.603299972E0
2.576055367E0,-5.982056609E-4,9.572187424E0,-4.426721931E-1,9.582417811E0
2.578499846E0,8.973085321E-3,9.579366684E0,-4.378865361E-1,9.589373869E0
2.580945263E0,5.204389244E-2,9.588937759E0,-4.354937077E-1,9.598963001E0
2.583389013E0,8.973085321E-3,9.565009117E0,-4.211367965E-1,9.574279927E0
2.585833648E0,4.187439568E-3,9.562616348E0,-4.163511395E-1,9.571676824E0
2.588279013E0,-1.016949583E-2,9.569794655E0,-4.235295951E-1,9.579167525E0
2.590722711E0,-1.734796353E-2,9.588937759E0,-4.283152521E-1,9.598514586E0
2.593167346E0,-1.495514158E-2,9.579366684E0,-4.283152521E-1,9.588949039E0
2.595611929E0,1.854437590E-2,9.576973915E0,-4.307080805E-1,9.586672140E0
2.598056513E0,1.136590727E-2,9.576973915E0,-4.211367965E-1,9.586235693E0
2.600501877E0,2.572284266E-2,9.565009117E0,-4.211367965E-1,9.574310277E0
2.602945627E0,1.615155302E-2,9.567401886E0,-4.283152521E-1,9.576998156E0
2.605390211E0,-5.982056609E-4,9.567401886E0,-4.187439680E-1,9.576561268E0
2.607835627E0,-1.016949583E-2,9.572187424E0,-4.235295951E-1,9.581557953E0
2.610279325E0,6.580262445E-3,9.574581146E0,-4.331009090E-1,9.584373940E0
2.612723961E0,-7.776673418E-3,9.572187424E0,-4.378865361E-1,9.582201061E0
2.615168544E0,1.854437590E-2,9.576973915E0,-4.331009090E-1,9.586779942E0
2.617613127E0,1.615155302E-2,9.565009117E0,-4.235295951E-1,9.574394895E0
2.620058492E0,4.187439568E-3,9.579366684E0,-4.307080805E-1,9.589045471E0
2.622502190E0,-1.974078640E-2,9.576973915E0,-4.426721931E-1,9.587219500E0
2.624946825E0,-2.452643216E-2,9.572187424E0,-4.187439680E-1,9.581373604E0
2.627392190E0,-1.734796353E-2,9.579366684E0,-4.163511395E-1,9.588426111E0
2.629835940E0,1.794616925E-3,9.581759453E0,-4.259224236E-1,9.591221369E0
2.632280575E0,2.093719877E-2,9.586544991E0,-4.546363056E-1,9.597342205E0
2.634725054E0,1.615155302E-2,9.555438042E0,-4.091726840E-1,9.564208244E0
2.637169690E0,-5.383851007E-3,9.569794655E0,-4.307080805E-1,9.579483711E0
2.639615054E0,-1.016949583E-2,9.581759453E0,-4.163511395E-1,9.590806322E0
2.642058804E0,-1.974078640E-2,9.584152222E0,-4.378865361E-1,9.594170528E0
2.644503440E0,-1.734796353E-2,9.560223579E0,-4.187439680E-1,9.569405538E0
2.646948804E0,4.187439568E-3,9.572187424E0,-4.139583111E-1,9.581135167E0
2.649392502E0,2.333002165E-2,9.565009117E0,-4.259224236E-1,9.574515842E0
2.651837138E0,8.973085321E-3,9.557830811E0,-4.283152521E-1,9.567427255E0
2.654281721E0,-2.991028363E-3,9.572187424E0,-4.402793646E-1,9.582308017E0
2.656726304E0,-1.016949583E-2,9.579366684E0,-4.187439680E-1,9.588520011E0
2.659171669E0,-1.495514158E-2,9.579366684E0,-3.876372576E-1,9.587218177E0
2.661615419E0,-1.734796353E-2,9.557830811E0,-4.307080805E-1,9.567546196E0
2.664060002E0,2.093719877E-2,9.576973915E0,-4.331009090E-1,9.586784870E0
2.666505367E0,2.811566554E-2,9.557830811E0,-4.115654826E-1,9.566729140E0
2.668949117E0,2.572284266E-2,9.576973915E0,-4.235295951E-1,9.586368883E0
2.671393752E0,1.854437590E-2,9.572187424E0,-4.402793646E-1,9.582325495E0
2.673838336E0,-2.991028363E-3,9.560223579E0,-4.331009090E-1,9.570029270E0
2.676282919E0,1.794616925E-3,9.584152222E0,-4.163511395E-1,9.593191612E0
2.678728283E0,1.375873014E-2,9.596116066E0,-4.283152521E-1,9.605679924E0
2.681171981E0,2.333002165E-2,9.584152222E0,-4.307080805E-1,9.593853634E0
2.683616617E0,2.333002165E-2,9.560223579E0,-4.354937077E-1,9.570165827E0
2.686061981E0,-2.991028363E-3,9.572187424E0,-4.307080805E-1,9.581873015E0
2.688505731E0,-3.888336942E-2,9.579366684E0,-4.402793646E-1,9.589558066E0
2.690950367E0,-1.495514158E-2,9.572187424E0,-4.426721931E-1,9.582429462E0
2.693394846E0,-2.691925503E-2,9.576973915E0,-4.378865361E-1,9.587017192E0
2.695839481E0,6.580262445E-3,9.576973915E0,-4.331009090E-1,9.586764265E0
2.698284846E0,1.136590727E-2,9.593723297E0,-4.283152521E-1,9.603286408E0
2.700728596E0,4.187439568E-3,9.579366684E0,-4.163511395E-1,9.588411332E0
2.703173231E0,1.854437590E-2,9.576973915E0,-4.019941986E-1,9.585425009E0
2.705618596E0,-2.991028363E-3,9.557830811E0,-4.307080805E-1,9.567530935E0
2.708062294E0,1.794616925E-3,9.572187424E0,-4.331009090E-1,9.581980573E0
2.710506929E0,-2.991028363E-3,9.584152222E0,-4.067798555E-1,9.592781276E0
2.712951513E0,4.187439568E-3,9.584152222E0,-4.139583111E-1,9.593088805E0
2.715396096E0,8.973085321E-3,9.591330528E0,-4.331009090E-1,9.601108176E0
2.717841461E0,1.136590727E-2,9.581759453E0,-4.235295951E-1,9.591121974E0
2.720285158E0,1.136590727E-2,9.576973915E0,-4.115654826E-1,9.585819981E0
2.722729794E0,4.187439568E-3,9.576973915E0,-3.972085714E-1,9.585208477E0
2.725175158E0,1.375873014E-2,9.581759453E0,-4.331009090E-1,9.591552529E0
2.727618908E0,1.615155302E-2,9.579366684E0,-4.139583111E-1,9.588320417E0
2.730063544E0,-7.776673418E-3,9.567401886E0,-4.307080805E-1,9.577095007E0
2.732508127E0,2.093719877E-2,9.560223579E0,-4.187439680E-1,9.569412718E0
2.734952606E0,-2.991028363E-3,9.553045273E0,-4.115654826E-1,9.561907188E0
2.737398075E0,1.794616925E-3,9.576973915E0,-4.307080805E-1,9.586654372E0
2.739841773E0,6.580262445E-3,9.550652504E0,-4.378865361E-1,9.560687798E0
2.742286408E0,-1.256231871E-2,9.579366684E0,-4.259224236E-1,9.588839022E0
2.744731773E0,-5.982056609E-4,9.596116066E0,-4.115654826E-1,9.604937796E0
2.747175523E0,-5.982056609E-4,9.586544991E0,-4.211367965E-1,9.595790818E0
2.749620106E0,1.375873014E-2,9.579366684E0,-4.331009090E-1,9.589162204E0
2.752064690E0,2.811566554E-2,9.584152222E0,-4.498506486E-1,9.594744911E0
2.754509273E0,-1.016949583E-2,9.553045273E0,-4.235295951E-1,9.562434560E0
2.756954638E0,-7.776673418E-3,9.586544991E0,-4.211367965E-1,9.595793950E0
2.759398388E0,1.375873014E-2,9.574581146E0,-4.187439680E-1,9.583743524E0
2.761843023E0,1.136590727E-2,9.588937759E0,-4.331009090E-1,9.598720380E0
2.764288388E0,8.973085321E-3,9.579366684E0,-4.402793646E-1,9.589483432E0
2.766732086E0,1.794616925E-3,9.555438042E0,-4.091726840E-1,9.564194774E0
2.769176721E0,-1.256231871E-2,9.565009117E0,-4.426721931E-1,9.575255396E0
2.771621304E0,-2.991028363E-3,9.593723297E0,-4.259224236E-1,9.603173723E0
2.774065888E0,-2.931207791E-2,9.569794655E0,-4.354937077E-1,9.579743405E0
2.776511252E0,-5.982056609E-4,9.581759453E0,-4.283152521E-1,9.591327777E0
2.778954950E0,8.973085321E-3,9.569794655E0,-4.283152521E-1,9.579379114E0
2.781399586E0,-5.383851007E-3,9.569794655E0,-4.283152521E-1,9.579376424E0
2.783844950E0,6.580262445E-3,9.576973915E0,-4.331009090E-1,9.586764265E0
2.786288700E0,-5.982056609E-4,9.579366684E0,-4.187439680E-1,9.588514636E0
2.788733336E0,1.794616925E-3,9.576973915E0,-4.426721931E-1,9.587199344E0
2.791177815E0,4.187439568E-3,9.574581146E0,-4.283152521E-1,9.584157533E0
2.793622450E0,-7.776673418E-3,9.574581146E0,-4.211367965E-1,9.583841652E0
2.796067815E0,1.136590727E-2,9.572187424E0,-4.211367965E-1,9.581453828E0
2.798511565E0,1.794616925E-3,9.567401886E0,-4.354937077E-1,9.577308434E0
2.800956200E0,6.580262445E-3,9.569794655E0,-4.331009090E-1,9.579592342E0
2.803401565E0,1.615155302E-2,9.562616348E0,-4.043870270E-1,9.571176582E0
2.805845263E0,1.136590727E-2,9.565009117E0,-4.115654826E-1,9.573866238E0
2.808289898E0,4.187439568E-3,9.576973915E0,-4.283152521E-1,9.586547912E0
2.810734481E0,4.187439568E-3,9.579366684E0,-4.354937077E-1,9.589261618E0
2.813179065E0,4.187439568E-3,9.581759453E0,-4.331009090E-1,9.591543575E0
2.815624429E0,1.136590727E-2,9.591330528E0,-4.402793646E-1,9.601437205E0
2.818068179E0,-5.383851007E-3,9.557830811E0,-4.426721931E-1,9.568078044E0
2.820512763E0,-1.016949583E-2,9.593723297E0,-4.211367965E-1,9.602967579E0
2.822958179E0,1.794616925E-3,9.565009117E0,-3.972085714E-1,9.573253223E0
2.825401877E0,-2.213360928E-2,9.593723297E0,-4.163511395E-1,9.602779018E0
2.827846513E0,6.580262445E-3,9.579366684E0,-4.211367965E-1,9.588621672E0
2.830291096E0,1.136590727E-2,9.560223579E0,-4.354937077E-1,9.570144139E0
2.832735679E0,-1.016949583E-2,9.562616348E0,-4.283152521E-1,9.572209191E0
2.835181044E0,-5.982056609E-4,9.574581146E0,-4.283152521E-1,9.584156637E0
2.837624742E0,-5.383851007E-3,9.562616348E0,-4.426721931E-1,9.572858459E0
2.840069377E0,-5.383851007E-3,9.588937759E0,-4.115654826E-1,9.597767578E0
2.842514742E0,1.794616925E-3,9.591330528E0,-4.235295951E-1,9.600677155E0
2.844958492E0,-2.213360928E-2,9.572187424E0,-4.211367965E-1,9.581472652E0
2.847403127E0,8.973085321E-3,9.596116066E0,-4.354937077E-1,9.605997025E0
2.849847606E0,8.973085321E-3,9.579366684E0,-4.354937077E-1,9.589264902E0
2.852292242E0,4.187439568E-3,9.574581146E0,-4.259224236E-1,9.584050896E0
2.854737606E0,8.973085321E-3,9.569794655E0,-4.259224236E-1,9.579272423E0
2.857181356E0,4.187439568E-3,9.572187424E0,-4.091726840E-1,9.580929594E0
2.859625992E0,-1.256231871E-2,9.569794655E0,-4.259224236E-1,9.579276458E0
2.862071356E0,1.136590727E-2,9.581759453E0,-4.115654826E-1,9.590601104E0
2.864515054E0,1.794616925E-3,9.586544991E0,-4.474578202E-1,9.596982160E0
2.866959690E0,6.580262445E-3,9.579366684E0,-4.402793646E-1,9.589481492E0
2.869404273E0,8.973085321E-3,9.584152222E0,-4.522434771E-1,9.594820399E0
2.871848856E0,-2.991028363E-3,9.565009117E0,-4.426721931E-1,9.575247622E0
2.874294221E0,6.580262445E-3,9.579366684E0,-4.283152521E-1,9.588939635E0
2.876737971E0,1.794616925E-3,9.593723297E0,-4.331009090E-1,9.603494485E0
2.879182554E0,-2.213360928E-2,9.574581146E0,-4.426721931E-1,9.584834516E0
2.881627919E0,2.333002165E-2,9.579366684E0,-4.139583111E-1,9.588335196E0
2.884071669E0,1.794616925E-3,9.560223579E0,-4.067798555E-1,9.568873913E0
2.886516304E0,-1.974078640E-2,9.572187424E0,-4.235295951E-1,9.581572892E0
2.888960888E0,6.580262445E-3,9.598508835E0,-4.402793646E-1,9.608603492E0
2.891405367E0,4.187439568E-3,9.586544991E0,-4.402793646E-1,9.596650890E0
2.893850836E0,-1.495514158E-2,9.584152222E0,-4.187439680E-1,9.593307249E0
2.896294533E0,1.794616925E-3,9.562616348E0,-4.235295951E-1,9.571991014E0
2.898739169E0,1.615155302E-2,9.572187424E0,-4.139583111E-1,9.581147866E0
2.901184533E0,1.854437590E-2,9.576973915E0,-4.235295951E-1,9.586352308E0
2.903628283E0,1.854437590E-2,9.560223579E0,-4.211367965E-1,9.569512787E0
2.906072867E0,-5.982056609E-4,9.567401886E0,-4.307080805E-1,9.577091868E0
2.908517450E0,4.187439568E-3,9.581759453E0,-4.307080805E-1,9.591435826E0
2.910962033E0,-5.982056609E-4,9.569794655E0,-4.331009090E-1,9.579590100E0
2.913407398E0,-1.495514158E-2,9.565009117E0,-4.307080805E-1,9.574713182E0
2.915851148E0,6.580262445E-3,9.572187424E0,-4.235295951E-1,9.581554816E0
2.918295783E0,8.973085321E-3,9.581759453E0,-4.354937077E-1,9.591655201E0
2.920741148E0,-2.452643216E-2,9.569794655E0,-4.259224236E-1,9.579299619E0
2.923184846E0,-1.734796353E-2,9.569794655E0,-4.378865361E-1,9.579823344E0
2.925629481E0,-2.991028363E-3,9.569794655E0,-4.235295951E-1,9.579162594E0
2.928074065E0,1.375873014E-2,9.576973915E0,-4.307080805E-1,9.586664077E0
2.930518648E0,8.973085321E-3,9.588937759E0,-4.307080805E-1,9.598610177E0
2.932964013E0,1.854437590E-2,9.560223579E0,-4.307080805E-1,9.569938779E0
2.935407711E0,-2.991028363E-3,9.569794655E0,-4.307080805E-1,9.579482665E0
2.937852346E0,1.794616925E-3,9.588937759E0,-4.187439680E-1,9.598076739E0
2.940297711E0,1.136590727E-2,9.560223579E0,-4.235295951E-1,9.569607170E0
2.942741461E0,1.136590727E-2,9.574581146E0,-4.115654826E-1,9.583429420E0
2.945186096E0,-1.495514158E-2,9.593723297E0,-4.235295951E-1,9.603079073E0
2.947630679E0,6.580262445E-3,9.584152222E0,-4.163511395E-1,9.593193701E0
2.950075158E0,8.973085321E-3,9.581759453E0,-4.187439680E-1,9.590909302E0
2.952520575E0,8.973085321E-3,9.588937759E0,-4.354937077E-1,9.598826107E0
2.954964325E0,-1.016949583E-2,9.569794655E0,-4.354937077E-1,9.579703958E0
2.957408961E0,-2.991028363E-3,9.574581146E0,-4.354937077E-1,9.584480572E0
2.959854325E0,8.973085321E-3,9.574581146E0,-4.426721931E-1,9.584813160E0
2.962298075E0,1.375873014E-2,9.576973915E0,-4.211367965E-1,9.586238828E0
2.964742658E0,-1.256231871E-2,9.596116066E0,-4.259224236E-1,9.605571887E0
2.967187242E0,1.854437590E-2,9.562616348E0,-4.211367965E-1,9.571903234E0
2.969631825E0,1.794616925E-3,9.584152222E0,-4.378865361E-1,9.594150387E0
2.972077190E0,-7.776673418E-3,9.562616348E0,-4.187439680E-1,9.571783450E0
2.974520940E0,1.136590727E-2,9.572187424E0,-4.307080805E-1,9.581879289E0
2.976965523E0,-5.982056609E-4,9.581759453E0,-4.235295951E-1,9.591115258E0
2.979410888E0,1.615155302E-2,9.593723297E0,-4.307080805E-1,9.603400285E0
2.981854638E0,4.187439568E-3,9.560223579E0,-4.235295951E-1,9.569601337E0
2.984299273E0,-5.383851007E-3,9.574581146E0,-4.402793646E-1,9.584700258E0
2.986743856E0,-5.982056609E-4,9.596116066E0,-4.402793646E-1,9.606211003E0
2.989188440E0,-5.982056609E-4,9.569794655E0,-4.259224236E-1,9.579268240E0
2.991633804E0,-5.982056609E-4,9.581759453E0,-4.235295951E-1,9.591115258E0
2.994077502E0,1.794616925E-3,9.579366684E0,-4.546363056E-1,9.590149293E0
2.996522138E0,-5.383851007E-3,9.565009117E0,-4.163511395E-1,9.574067927E0
2.998967502E0,8.973085321E-3,9.574581146E0,-4.259224236E-1,9.584054181E0
3.001411252E0,1.375873014E-2,9.596116066E0,-4.043870270E-1,9.604642717E0
3.003855888E0,1.136590727E-2,9.560223579E0,-3.876372576E-1,9.568085844E0
3.006300367E0,1.136590727E-2,9.581759453E0,-4.378865361E-1,9.591766678E0
3.008745002E0,-1.495514158E-2,9.560223579E0,-4.354937077E-1,9.570149075E0
3.011190367E0,-1.256231871E-2,9.572187424E0,-4.187439680E-1,9.581350447E0
3.013634117E0,1.136590727E-2,9.586544991E0,-4.163511395E-1,9.595588690E0
3.016078752E0,-2.691925503E-2,9.581759453E0,-4.283152521E-1,9.591365534E0
3.018524117E0,-2.452643216E-2,9.567401886E0,-4.091726840E-1,9.576178919E0
3.020967815E0,6.580262445E-3,9.579366684E0,-4.235295951E-1,9.588727063E0
3.023412450E0,-5.383851007E-3,9.579366684E0,-4.259224236E-1,9.588832304E0
3.025857033E0,6.580262445E-3,9.579366684E0,-4.235295951E-1,9.588727063E0
3.028301617E0,1.136590727E-2,9.576973915E0,-4.139583111E-1,9.585923014E0
3.030746981E0,-5.982056609E-4,9.569794655E0,-4.354937077E-1,9.579698579E0
3.033190679E0,-1.734796353E-2,9.576973915E0,-4.067798555E-1,9.585624663E0
3.035635315E0,-2.991028363E-3,9.579366684E0,-4.283152521E-1,9.588937844E0
3.038080679E0,-5.982056609E-4,9.584152222E0,-4.235295951E-1,9.593505693E0
3.040524429E0,2.333002165E-2,9.584152222E0,-4.139583111E-1,9.593116260E0
3.042969065E0,4.187439568E-3,9.576973915E0,-4.378865361E-1,9.586980313E0
3.045413648E0,-5.982056609E-4,9.567401886E0,-4.139583111E-1,9.576353204E0
3.047858127E0,-5.982056609E-4,9.548259735E0,-4.259224236E-1,9.557754665E0
3.050303596E0,-1.734796353E-2,9.584152222E0,-4.546363056E-1,9.594944968E0
3.052747294E0,-1.256231871E-2,9.567401886E0,-4.163511395E-1,9.576465158E0
3.055191929E0,-1.734796353E-2,9.569794655E0,-4.283152521E-1,9.579390620E0
3.057637294E0,-2.991028363E-3,9.584152222E0,-4.211367965E-1,9.593400802E0
3.060081044E0,-2.991028363E-3,9.591330528E0,-4.187439680E-1,9.600467528E0
3.062525627E0,1.854437590E-2,9.603294373E0,-4.307080805E-1,9.612966043E0
3.064970211E0,-5.982056609E-4,9.586544991E0,-4.378865361E-1,9.596540514E0
3.067414794E0,-1.734796353E-2,9.581759453E0,-4.259224236E-1,9.591236890E0
3.069860158E0,-2.991028363E-3,9.567401886E0,-4.163511395E-1,9.576457386E0
3.072303908E0,-5.982056609E-4,9.581759453E0,-4.307080805E-1,9.591434930E0
3.074748544E0,1.136590727E-2,9.569794655E0,-4.283152521E-1,9.579381654E0
3.077193908E0,4.187439568E-3,9.576973915E0,-4.187439680E-1,9.586125047E0
3.079637606E0,4.187439568E-3,9.562616348E0,-4.187439680E-1,9.571781207E0
3.082082242E0,-2.991028363E-3,9.579366684E0,-4.354937077E-1,9.589261170E0
3.084526825E0,1.794616925E-3,9.565009117E0,-4.378865361E-1,9.575027271E0
3.086971408E0,-5.383851007E-3,9.567401886E0,-4.354937077E-1,9.577309779E0
3.089416773E0,-1.016949583E-2,9.565009117E0,-4.235295951E-1,9.574386672E0
3.091860471E0,-1.734796353E-2,9.565009117E0,-3.996013701E-1,9.573368353E0
3.094305106E0,-5.383851007E-3,9.588937759E0,-4.354937077E-1,9.598823423E0
3.096750471E0,-7.776673418E-3,9.576973915E0,-4.426721931E-1,9.587202330E0
3.099194221E0,2.093719877E-2,9.567401886E0,-4.402793646E-1,9.577549955E0
3.101638856E0,-7.776673418E-3,9.584152222E0,-4.426721931E-1,9.594372984E0
3.104083336E0,1.375873014E-2,9.567401886E0,-4.235295951E-1,9.576781582E0
3.106527971E0,-5.383851007E-3,9.581759453E0,-4.163511395E-1,9.590802441E0
3.108973336E0,-1.256231871E-2,9.579366684E0,-4.163511395E-1,9.588418647E0
3.111417086E0,2.811566554E-2,9.579366684E0,-4.307080805E-1,9.589085775E0
3.113861721E0,1.794616925E-3,9.579366684E0,-4.139583111E-1,9.588306981E0
3.116307086E0,-1.016949583E-2,9.576973915E0,-4.594219327E-1,9.587992558E0
3.118750783E0,1.375873014E-2,9.560223579E0,-4.163511395E-1,9.569295296E0
3.121195419E0,-7.776673418E-3,9.591330528E0,-3.996013701E-1,9.599654318E0
3.123640002E0,-2.991028363E-3,9.603294373E0,-4.354937077E-1,9.613164230E0
3.126084586E0,1.794616925E-3,9.584152222E0,-4.139583111E-1,9.593088059E0
3.128529950E0,1.854437590E-2,9.557830811E0,-4.211367965E-1,9.567122342E0
3.130973700E0,1.136590727E-2,9.555438042E0,-4.091726840E-1,9.564201359E0
3.133418283E0,-1.016949583E-2,9.569794655E0,-4.139583111E-1,9.578749117E0
3.135863648E0,-1.016949583E-2,9.581759453E0,-4.115654826E-1,9.590599761E0
3.138307398E0,-7.776673418E-3,9.581759453E0,-4.283152521E-1,9.591330911E0
3.140752033E0,1.854437590E-2,9.591330528E0,-4.570291340E-1,9.602231034E0
3.143196617E0,-2.991028363E-3,9.579366684E0,-4.139583111E-1,9.588307280E0
3.145641096E0,4.187439568E-3,9.548259735E0,-4.570291340E-1,9.559192285E0
3.148086565E0,-5.383851007E-3,9.541081429E0,-4.139583111E-1,9.550058916E0
3.150530263E0,-5.084748194E-2,9.584152222E0,-4.354937077E-1,9.594176048E0
3.152974898E0,-2.213360928E-2,9.569794655E0,-4.259224236E-1,9.579293791E0
3.155420263E0,6.580262445E-3,9.603294373E0,-4.091726840E-1,9.612009592E0
3.157864013E0,4.965107143E-2,9.567401886E0,-4.498506486E-1,9.578100526E0
3.160308648E0,4.725824669E-2,9.533903122E0,-4.163511395E-1,9.543106955E0
3.162753127E0,2.572284266E-2,9.588937759E0,-3.852444589E-1,9.596707889E0
3.165197763E0,-5.563312769E-2,9.593723297E0,-4.163511395E-1,9.602914663E0
3.167643127E0,-3.409772366E-2,9.572187424E0,-4.594219327E-1,9.583266836E0
3.170086877E0,-1.734796353E-2,9.598508835E0,-4.283152521E-1,9.608076122E0
3.172531513E0,6.580262445E-3,9.605687141E0,-4.235295951E-1,9.615021897E0
3.174976877E0,4.247260094E-2,9.524331093E0,-4.402793646E-1,9.534596615E0
3.177420575E0,2.333002165E-2,9.488439560E0,-4.187439680E-1,9.497703727E0
3.179865211E0,-1.734796353E-2,9.639186859E0,-3.852444589E-1,9.646897820E0
3.182309794E0,-5.832505226E-2,9.629615784E0,-4.402793646E-1,9.639852067E0
3.184754377E0,-2.452643216E-2,9.545866966E0,-4.402793646E-1,9.556046442E0
3.187199742E0,3.050848842E-2,9.560223579E0,-4.091726840E-1,9.569024399E0
3.189643440E0,4.247260094E-2,9.550652504E0,-4.331009090E-1,9.560561886E0
3.192088075E0,1.615155302E-2,9.581759453E0,-4.378865361E-1,9.591773543E0
3.194533440E0,1.136590727E-2,9.588937759E0,-4.450650215E-1,9.599267650E0
3.196977190E0,-2.931207791E-2,9.615258217E0,-4.067798555E-1,9.623903554E0
3.199421825E0,-1.256231871E-2,9.545866966E0,-4.809573591E-1,9.557983780E0
3.201866408E0,-5.982056609E-4,9.512367249E0,-4.259224236E-1,9.521897969E0
3.204310888E0,2.811566554E-2,9.586544991E0,-4.235295951E-1,9.595937300E0
3.206756304E0,-2.931207791E-2,9.636794090E0,-4.115654826E-1,9.645623136E0
3.209200054E0,2.572284266E-2,9.574581146E0,-4.785645306E-1,9.586568197E0
3.211644690E0,4.007977992E-2,9.557830811E0,-3.756731451E-1,9.565294899E0
3.214090054E0,8.973085321E-3,9.529116631E0,-4.283152521E-1,9.538741963E0
3.216533804E0,-4.845465720E-2,9.533903122E0,-4.570291340E-1,9.544974187E0
3.218978388E0,-4.366901144E-2,9.586544991E0,-4.618147612E-1,9.597761443E0
3.221422971E0,-5.324030295E-2,9.632008553E0,-3.708875179E-1,9.639293586E0
3.223867554E0,3.050848842E-2,9.593723297E0,-4.666004181E-1,9.605111838E0
3.226312919E0,4.725824669E-2,9.517152786E0,-3.972085714E-1,9.525555372E0
3.228756669E0,4.247260094E-2,9.538688660E0,-4.426721931E-1,9.549049374E0
3.231201304E0,-3.170489892E-2,9.591330528E0,-3.996013701E-1,9.599703524E0
3.233646669E0,-5.084748194E-2,9.639186859E0,-4.546363056E-1,9.650036422E0
3.236090367E0,-3.649054468E-2,9.574581146E0,-4.211367965E-1,9.583907965E0
3.238535002E0,4.965107143E-2,9.541081429E0,-4.522434771E-1,9.551922540E0
3.240979586E0,8.973085321E-3,9.533903122E0,-4.283152521E-1,9.543523627E0
3.243424169E0,2.333002165E-2,9.598508835E0,-4.546363056E-1,9.609298118E0
3.245869533E0,1.136590727E-2,9.593723297E0,-4.067798555E-1,9.602350011E0
3.248313231E0,-1.256231871E-2,9.569794655E0,-4.809573591E-1,9.581881210E0
3.250757867E0,-3.170489892E-2,9.584152222E0,-3.900300860E-1,9.592137534E0
3.253203231E0,1.794616925E-3,9.632008553E0,-4.450650215E-1,9.642285769E0
3.255646981E0,1.854437590E-2,9.562616348E0,-4.067798555E-1,9.571282316E0
3.258091617E0,6.161518395E-2,9.524331093E0,-4.474578202E-1,9.535035275E0
3.260536096E0,-7.776673418E-3,9.591330528E0,-3.756731451E-1,9.598688040E0
3.262980731E0,-3.649054468E-2,9.622437477E0,-4.474578202E-1,9.632904705E0
3.265426096E0,-2.691925503E-2,9.567401886E0,-4.235295951E-1,9.576809532E0
3.267869846E0,8.973085321E-3,9.574581146E0,-4.402793646E-1,9.584702946E0
3.270314481E0,2.572284266E-2,9.603294373E0,-4.187439680E-1,9.612453952E0
3.272759846E0,-1.495514158E-2,9.553045273E0,-4.259224236E-1,9.562547127E0
3.275203544E0,4.007977992E-2,9.565009117E0,-4.474578202E-1,9.575553472E0
3.277648179E0,-1.016949583E-2,9.548259735E0,-3.924229145E-1,9.556325818E0
3.280092763E0,-1.495514158E-2,9.605687141E0,-4.977070987E-1,9.618584172E0
3.282537346E0,-1.974078640E-2,9.538688660E0,-3.637090325E-1,9.545640644E0
3.284982711E0,2.093719877E-2,9.593723297E0,-4.594219327E-1,9.604740162E0
3.287426461E0,-1.734796353E-2,9.576973915E0,-3.613162339E-1,9.583802990E0
3.289871044E0,3.768695518E-2,9.584152222E0,-4.977070987E-1,9.597140536E0
3.292316408E0,1.794616925E-3,9.481260300E0,-3.900300860E-1,9.489279401E0
3.294760158E0,2.572284266E-2,9.565009117E0,-4.953143001E-1,9.577859747E0
3.297204794E0,-1.037886813E-1,9.615258217E0,-3.684946895E-1,9.622876441E0
3.299649377E0,-1.256231871E-2,9.639186859E0,-4.761717021E-1,9.650949208E0
3.302093961E0,5.682953820E-2,9.553045273E0,-4.283152521E-1,9.562811173E0
3.304539325E0,6.879365444E-2,9.586544991E0,-3.900300860E-1,9.594722554E0
3.306983023E0,4.725824669E-2,9.521938324E0,-4.426721931E-1,9.532339768E0
3.309427658E0,-1.974078640E-2,9.584152222E0,-3.924229145E-1,9.592203045E0
3.311873023E0,-7.268198580E-2,9.622437477E0,-4.522434771E-1,9.633333267E0
3.314316773E0,-5.084748194E-2,9.584152222E0,-4.187439680E-1,9.593430345E0
3.316761356E0,4.247260094E-2,9.526723862E0,-4.474578202E-1,9.537320901E0
3.319205940E0,2.333002165E-2,9.569794655E0,-3.924229145E-1,9.577865617E0
3.321650523E0,3.768695518E-2,9.593723297E0,-4.211367965E-1,9.603036145E0
3.324095888E0,4.486542568E-2,9.576973915E0,-4.235295951E-1,9.586439360E0
3.326539638E0,-7.776673418E-3,9.495617867E0,-4.259224236E-1,9.505168544E0
3.328984273E0,-3.170489892E-2,9.569794655E0,-3.924229145E-1,9.577889678E0
3.331429638E0,-2.931207791E-2,9.612865448E0,-4.091726840E-1,9.621614397E0
3.333873336E0,-1.495514158E-2,9.596116066E0,-4.642075896E-1,9.607349057E0
3.336317971E0,6.640082598E-2,9.565009117E0,-4.235295951E-1,9.574611522E0
3.338762554E0,4.725824669E-2,9.536295891E0,-3.948157430E-1,9.544582344E0
3.341207138E0,1.136590727E-2,9.500403404E0,-4.666004181E-1,9.511861541E0
3.343652502E0,-4.366901144E-2,9.632008553E0,-3.637090325E-1,9.638971937E0
3.346096200E0,-6.789634377E-2,9.667901039E0,-4.642075896E-1,9.679277303E0
3.348540836E0,8.973085321E-3,9.553045273E0,-4.354937077E-1,9.562970735E0
3.350986200E0,7.836493850E-2,9.447761536E0,-4.618147612E-1,9.459366362E0
3.353429950E0,8.973085321E-3,9.624830246E0,-3.565305769E-1,9.631435606E0
3.355874586E0,-2.452643216E-2,9.639186859E0,-4.737788737E-1,9.650854432E0
3.358319169E0,-4.366901144E-2,9.541081429E0,-4.642075896E-1,9.552467246E0
3.360763648E0,-1.256231871E-2,9.572187424E0,-3.948157430E-1,9.580334512E0
3.363209117E0,-1.495514158E-2,9.612865448E0,-4.259224236E-1,9.622308231E0
3.365652815E0,3.529413417E-2,9.569794655E0,-4.498506486E-1,9.580426975E0
3.368097450E0,2.333002165E-2,9.553045273E0,-4.019941986E-1,9.561527996E0
3.370542815E0,4.247260094E-2,9.531510353E0,-4.450650215E-1,9.541990170E0
3.372986513E0,1.794616925E-3,9.596116066E0,-4.259224236E-1,9.605563840E0
3.375431148E0,-7.986045629E-2,9.641579628E0,-4.187439680E-1,9.650999012E0
3.377875731E0,-1.495514158E-2,9.593723297E0,-4.713860750E-1,9.605308698E0
3.380320315E0,2.333002165E-2,9.457332611E0,-4.235295951E-1,9.466840113E0
3.382765679E0,2.811566554E-2,9.553045273E0,-4.450650215E-1,9.563448507E0
3.385209429E0,-3.409772366E-2,9.624830246E0,-3.876372576E-1,9.632693422E0
3.387654013E0,1.794616925E-3,9.605687141E0,-4.761717021E-1,9.617482424E0
3.390099429E0,-1.495514158E-2,9.538688660E0,-4.235295951E-1,9.548098361E0
3.392543127E0,2.811566554E-2,9.562616348E0,-4.522434771E-1,9.573345605E0
3.394987763E0,-5.324030295E-2,9.612865448E0,-3.517449200E-1,9.619445989E0
3.397432346E0,1.615155302E-2,9.565009117E0,-5.219344497E-1,9.579252364E0
3.399876929E0,-3.170489892E-2,9.500403404E0,-3.732803464E-1,9.507786717E0
3.402322294E0,-2.991028363E-3,9.615258217E0,-4.474578202E-1,9.625664550E0
3.404765992E0,-1.016949583E-2,9.634401321E0,-4.211367965E-1,9.643606610E0
3.407210627E0,1.136590727E-2,9.538688660E0,-4.067798555E-1,9.547365101E0
3.409655992E0,9.272187948E-2,9.498010635E0,-4.618147612E-1,9.509683289E0
3.412099742E0,-4.606183618E-2,9.562616348E0,-3.445664644E-1,9.568933021E0
3.414544377E0,-2.213360928E-2,9.629615784E0,-4.785645306E-1,9.641525504E0
3.416988856E0,-3.649054468E-2,9.593723297E0,-4.259224236E-1,9.603242586E0
3.419433492E0,2.572284266E-2,9.596116066E0,-3.924229145E-1,9.604171019E0
3.421878856E0,3.529413417E-2,9.557830811E0,-4.235295951E-1,9.567275098E0
3.424322606E0,7.357929647E-2,9.574581146E0,-4.402793646E-1,9.584981166E0
3.426767242E0,-5.383851007E-3,9.593723297E0,-4.187439680E-1,9.602859064E0
3.429212606E0,-6.789634377E-2,9.588937759E0,-4.067798555E-1,9.597802202E0
3.431656304E0,-4.127619043E-2,9.469296455E0,-4.666004181E-1,9.480875225E0
3.434100940E0,-1.495514158E-2,9.608079910E0,-3.804588020E-1,9.615621255E0
3.436545523E0,-2.213360928E-2,9.636794090E0,-4.283152521E-1,9.646333199E0
3.438990106E0,2.093719877E-2,9.502796173E0,-4.402793646E-1,9.513013161E0
3.441435471E0,8.315058798E-2,9.586544991E0,-4.187439680E-1,9.596046341E0
3.443879169E0,-7.776673418E-3,9.641579628E0,-3.900300860E-1,9.649468466E0
3.446323804E0,-1.495514158E-2,9.562616348E0,-4.283152521E-1,9.572215472E0
3.448769169E0,1.375873014E-2,9.483653069E0,-4.905286431E-1,9.496340515E0
3.451212919E0,-4.845465720E-2,9.596116066E0,-3.302095234E-1,9.601918024E0
3.453657554E0,-2.691925503E-2,9.603294373E0,-5.072783828E-1,9.616720793E0
3.456102138E0,-5.982056609E-4,9.543474197E0,-4.163511395E-1,9.552551931E0
3.458546617E0,9.990034252E-2,9.591330528E0,-4.163511395E-1,9.600882754E0
3.460992086E0,2.811566554E-2,9.624830246E0,-3.756731451E-1,9.632200064E0
3.463435783E0,6.580262445E-3,9.576973915E0,-4.498506486E-1,9.587535568E0
3.465880419E0,1.375873014E-2,9.569794655E0,-4.498506486E-1,9.580371843E0
3.468325783E0,-5.324030295E-2,9.543474197E0,-3.565305769E-1,9.550280014E0
3.470769533E0,-5.324030295E-2,9.620044708E0,-4.977070987E-1,9.633058033E0
3.473214117E0,1.136590727E-2,9.605687141E0,-4.450650215E-1,9.615999039E0
3.475658700E0,5.922235921E-2,9.560223579E0,-4.402793646E-1,9.570539593E0
3.478103283E0,2.811566554E-2,9.536295891E0,-3.684946895E-1,9.543454204E0
3.480548648E0,1.794616925E-3,9.567401886E0,-4.618147612E-1,9.578541379E0
3.482992398E0,-6.311069429E-2,9.574581146E0,-3.924229145E-1,9.582827497E0
3.485437033E0,-3.888336942E-2,9.588937759E0,-3.996013701E-1,9.597339242E0
3.487882398E0,-4.127619043E-2,9.579366684E0,-4.785645306E-1,9.591402077E0
3.490326096E0,3.290131316E-2,9.579366684E0,-3.876372576E-1,9.587262967E0
3.492770731E0,4.247260094E-2,9.591330528E0,-4.235295951E-1,9.600770935E0
3.495215315E0,2.093719877E-2,9.569794655E0,-4.283152521E-1,9.579397792E0
3.497659898E0,3.050848842E-2,9.555438042E0,-4.283152521E-1,9.565081332E0
3.500105263E0,-1.734796353E-2,9.543474197E0,-4.450650215E-1,9.553862234E0
3.502548961E0,-6.789634377E-2,9.572187424E0,-4.450650215E-1,9.582769165E0
3.504993596E0,-4.127619043E-2,9.627223015E0,-4.426721931E-1,9.637483353E0
3.507438961E0,1.854437590E-2,9.567401886E0,-4.235295951E-1,9.576789653E0
3.509882711E0,7.836493850E-2,9.521938324E0,-4.402793646E-1,9.532433919E0
3.512327346E0,5.204389244E-2,9.586544991E0,-3.804588020E-1,9.594232764E0
3.514771825E0,-1.016949583E-2,9.562616348E0,-4.091726840E-1,9.571371747E0
3.517216461E0,-6.311069429E-2,9.550652504E0,-4.378865361E-1,9.560893830E0
3.519661825E0,-4.606183618E-2,9.545866966E0,-4.474578202E-1,9.556459404E0
3.522105575E0,-6.071787328E-2,9.584152222E0,-4.139583111E-1,9.593280041E0
3.524550211E0,2.811566554E-2,9.624830246E0,-4.474578202E-1,9.635266797E0
3.526995575E0,5.443671346E-2,9.545866966E0,-3.948157430E-1,9.554183323E0
3.529439273E0,8.315058798E-2,9.493225098E0,-4.594219327E-1,9.504699116E0
3.531883908E0,-1.256231871E-2,9.588937759E0,-3.900300860E-1,9.596874941E0
3.534328492E0,-5.832505226E-2,9.581759453E0,-4.713860750E-1,9.593524944E0
3.536773075E0,-9.661021084E-2,9.608079910E0,-4.019941986E-1,9.616971063E0
3.539218440E0,-5.982056609E-4,9.543474197E0,-4.953143001E-1,9.556319185E0
3.541662190E0,4.187439568E-3,9.610472679E0,-3.565305769E-1,9.617084626E0
3.544106773E0,1.094716340E-1,9.550652504E0,-4.666004181E-1,9.562670299E0
3.546552138E0,1.854437590E-2,9.576973915E0,-3.684946895E-1,9.584078547E0
3.548995888E0,4.187439568E-3,9.591330528E0,-4.474578202E-1,9.601763241E0
3.551440523E0,-1.037886813E-1,9.596116066E0,-4.163511395E-1,9.605704759E0
3.553885106E0,-1.734796353E-2,9.569794655E0,-4.570291340E-1,9.580717422E0
3.556329690E0,-3.649054468E-2,9.596116066E0,-4.402793646E-1,9.606280291E0
3.558775054E0,3.529413417E-2,9.550652504E0,-4.307080805E-1,9.560424592E0
3.561218752E0,5.682953820E-2,9.574581146E0,-4.115654826E-1,9.583591178E0
3.563663388E0,4.965107143E-2,9.548259735E0,-4.426721931E-1,9.558644667E0
3.566108752E0,-7.776673418E-3,9.608079910E0,-3.948157430E-1,9.616191528E0
3.568552502E0,-5.324030295E-2,9.574581146E0,-4.402793646E-1,9.584846612E0
3.570997086E0,-3.409772366E-2,9.579366684E0,-4.307080805E-1,9.589105181E0
3.573441669E0,3.768695518E-2,9.557830811E0,-4.354937077E-1,9.567821324E0
3.575886252E0,3.529413417E-2,9.536295891E0,-4.426721931E-1,9.546629964E0
3.578331617E0,2.811566554E-2,9.567401886E0,-4.522434771E-1,9.578125782E0
3.580775367E0,4.187439568E-3,9.605687141E0,-4.067798555E-1,9.614297314E0
3.583220002E0,-1.256231871E-2,9.576973915E0,-4.450650215E-1,9.587318189E0
3.585665367E0,-5.383851007E-3,9.579366684E0,-4.019941986E-1,9.587799246E0
3.588109065E0,1.136590727E-2,9.576973915E0,-4.091726840E-1,9.585717544E0
3.590553700E0,-5.982056609E-4,9.557830811E0,-4.331009090E-1,9.567638505E0
3.592998283E0,1.854437590E-2,9.581759453E0,-4.139583111E-1,9.590715280E0
3.595442867E0,-2.691925503E-2,9.574581146E0,-3.972085714E-1,9.582854659E0
3.597888231E0,8.973085321E-3,9.579366684E0,-4.522434771E-1,9.590040185E0
3.600331929E0,-1.974078640E-2,9.586544991E0,-4.043870270E-1,9.595090590E0
3.602776565E0,1.854437590E-2,9.550652504E0,-4.426721931E-1,9.560923900E0
3.605221929E0,1.794616925E-3,9.550652504E0,-3.924229145E-1,9.558711326E0
3.607665679E0,1.854437590E-2,9.576973915E0,-4.761717021E-1,9.588822282E0
3.610110315E0,4.187439568E-3,9.596116066E0,-3.996013701E-1,9.604433473E0
3.612554898E0,2.811566554E-2,9.553045273E0,-4.594219327E-1,9.564127403E0
3.614999377E0,6.580262445E-3,9.557830811E0,-4.307080805E-1,9.567532731E0
3.617444794E0,-1.016949583E-2,9.555438042E0,-4.402793646E-1,9.565581295E0
3.619888544E0,-1.495514158E-2,9.586544991E0,-4.187439680E-1,9.595697735E0
3.622333179E0,-2.991028363E-3,9.569794655E0,-4.259224236E-1,9.579268688E0
3.624778544E0,1.136590727E-2,9.593723297E0,-3.996013701E-1,9.602048591E0
3.627222294E0,2.333002165E-2,9.567401886E0,-4.474578202E-1,9.577888162E0
3.629666877E0,2.572284266E-2,9.536295891E0,-3.924229145E-1,9.544401329E0
3.632111461E0,-5.383851007E-3,9.565009117E0,-4.259224236E-1,9.574488932E0
3.634556044E0,-4.127619043E-2,9.586544991E0,-4.522434771E-1,9.597295074E0
3.637001408E0,-7.776673418E-3,9.584152222E0,-4.331009090E-1,9.593936141E0
3.639445158E0,1.136590727E-2,9.586544991E0,-4.067798555E-1,9.595178158E0
3.641889742E0,1.375873014E-2,9.560223579E0,-4.115654826E-1,9.569088271E0
3.644335158E0,2.093719877E-2,9.562616348E0,-4.307080805E-1,9.572334054E0
3.646778856E0,-5.982056609E-4,9.543474197E0,-4.498506486E-1,9.554070636E0
3.649223492E0,-2.931207791E-2,9.584152222E0,-4.067798555E-1,9.592825593E0
3.651668075E0,-5.084748194E-2,9.584152222E0,-4.570291340E-1,9.595177690E0
3.654112658E0,-1.016949583E-2,9.600901604E0,-4.163511395E-1,9.609930452E0
3.656558023E0,3.529413417E-2,9.588937759E0,-4.283152521E-1,9.598563798E0
3.659001721E0,3.529413417E-2,9.579366684E0,-4.283152521E-1,9.589002331E0
3.661446356E0,1.794616925E-3,9.531510353E0,-4.187439680E-1,9.540704342E0
3.663891721E0,8.973085321E-3,9.565009117E0,-4.235295951E-1,9.574385476E0
3.666335471E0,-3.409772366E-2,9.572187424E0,-4.211367965E-1,9.581507759E0
3.668780106E0,-2.991028363E-3,9.576973915E0,-4.881358147E-1,9.589406389E0
3.671224586E0,-5.383851007E-3,9.553045273E0,-4.139583111E-1,9.562011528E0
3.673669221E0,3.290131316E-2,9.600901604E0,-4.283152521E-1,9.610507170E0
3.676114586E0,-7.776673418E-3,9.572187424E0,-3.876372576E-1,9.580036284E0
3.678558336E0,6.640082598E-2,9.629615784E0,-4.211367965E-1,9.639048989E0
3.681002971E0,5.443671346E-2,9.536295891E0,-4.019941986E-1,9.544920220E0
3.683448336E0,-3.409772366E-2,9.524331093E0,-4.283152521E-1,9.534018008E0
3.685892033E0,-8.464609832E-2,9.584152222E0,-4.498506486E-1,9.595077091E0
3.688336669E0,-6.311069429E-2,9.615258217E0,-3.876372576E-1,9.623275751E0
3.690781252E0,5.204389244E-2,9.634401321E0,-4.713860750E-1,9.646066671E0
3.693225836E0,7.357929647E-2,9.572187424E0,-3.900300860E-1,9.580412802E0
3.695671200E0,7.357929647E-2,9.572187424E0,-4.498506486E-1,9.583034571E0
3.698114950E0,1.854437590E-2,9.524331093E0,-4.091726840E-1,9.533134267E0
3.700559533E0,-5.324030295E-2,9.553045273E0,-4.259224236E-1,9.562683641E0
3.703004898E0,-8.225327730E-2,9.596116066E0,-4.283152521E-1,9.606022231E0
3.705448648E0,-5.324030295E-2,9.555438042E0,-4.091726840E-1,9.564342789E0
3.707893283E0,4.007977992E-2,9.565009117E0,-4.498506486E-1,9.575665586E0
3.710337867E0,5.443671346E-2,9.567401886E0,-3.948157430E-1,9.575699540E0
3.712782346E0,5.204389244E-2,9.581759453E0,-4.570291340E-1,9.592794088E0
3.715227815E0,-1.256231871E-2,9.550652504E0,-3.996013701E-1,9.559016807E0
3.717671513E0,-6.311069429E-2,9.569794655E0,-4.187439680E-1,9.579159629E0
3.720116148E0,-4.606183618E-2,9.591330528E0,-4.259224236E-1,9.600893339E0
3.722561513E0,-2.691925503E-2,9.581759453E0,-4.331009090E-1,9.591580436E0
3.725005263E0,4.486542568E-2,9.550652504E0,-4.402793646E-1,9.560900694E0
3.727449846E0,4.247260094E-2,9.565009117E0,-3.972085714E-1,9.573347272E0
3.729894429E0,3.050848842E-2,9.608079910E0,-4.139583111E-1,9.617041739E0
3.732339013E0,-1.734796353E-2,9.596116066E0,-4.235295951E-1,9.605473534E0
3.734784377E0,-2.991028363E-3,9.562616348E0,-4.211367965E-1,9.571885737E0
3.737228127E0,-3.888336942E-2,9.553045273E0,-3.924229145E-1,9.561180975E0
3.739672763E0,-2.213360928E-2,9.553045273E0,-4.618147612E-1,9.564226929E0
3.742118127E0,-5.383851007E-3,9.584152222E0,-4.187439680E-1,9.593297103E0
3.744561825E0,2.333002165E-2,9.579366684E0,-4.354937077E-1,9.589289083E0
3.747006461E0,2.811566554E-2,9.598508835E0,-4.259224236E-1,9.607995226E0
3.749451044E0,3.050848842E-2,9.593723297E0,-4.307080805E-1,9.603435162E0
3.751895627E0,1.375873014E-2,9.569794655E0,-4.115654826E-1,9.578650489E0
3.754340992E0,-1.495514158E-2,9.519545555E0,-4.402793646E-1,9.529733320E0
3.756784690E0,-4.366901144E-2,9.576973915E0,-4.283152521E-1,9.586646458E0
3.759229325E0,-5.832505226E-2,9.596116066E0,-4.450650215E-1,9.606608571E0
3.761674690E0,-2.991028363E-3,9.612865448E0,-3.972085714E-1,9.621068845E0
3.764118440E0,6.640082598E-2,9.569794655E0,-4.331009090E-1,9.579820207E0
3.766563075E0,5.204389244E-2,9.543474197E0,-4.091726840E-1,9.552383504E0
3.769007554E0,6.580262445E-3,9.526723862E0,-4.402793646E-1,9.536894503E0
3.771452190E0,-4.606183618E-2,9.572187424E0,-4.091726840E-1,9.581039404E0
3.773897554E0,-8.703892678E-2,9.600901604E0,-4.450650215E-1,9.611606018E0
3.776341304E0,-3.888336942E-2,9.617651939E0,-4.211367965E-1,9.626946398E0
3.778785940E0,4.007977992E-2,9.567401886E0,-4.211367965E-1,9.576750046E0
3.781231304E0,9.032905847E-2,9.555438042E0,-3.948157430E-1,9.564017722E0
3.783675002E0,4.725824669E-2,9.562616348E0,-4.450650215E-1,9.573084542E0
3.786119638E0,-2.452643216E-2,9.576973915E0,-3.972085714E-1,9.585238941E0
3.788564221E0,-6.550352275E-2,9.603294373E0,-4.378865361E-1,9.613495625E0
3.791008804E0,-3.409772366E-2,9.586544991E0,-4.354937077E-1,9.596492186E0
3.793454169E0,4.187439568E-3,9.584152222E0,-4.354937077E-1,9.594042220E0
3.795897919E0,3.529413417E-2,9.555438042E0,-4.307080805E-1,9.565205241E0
3.798342502E0,4.247260094E-2,9.565009117E0,-4.139583111E-1,9.574056863E0
3.800787919E0,8.973085321E-3,9.567401886E0,-3.948157430E-1,9.575549010E0
3.803231617E0,-1.974078640E-2,9.603294373E0,-4.187439680E-1,9.612439806E0
3.805676252E0,-2.691925503E-2,9.576973915E0,-4.211367965E-1,9.586266751E0
3.808120836E0,-1.016949583E-2,9.588937759E0,-4.378865361E-1,9.598936159E0
3.810565419E0,2.811566554E-2,9.565009117E0,-4.426721931E-1,9.575288433E0
3.813010783E0,4.725824669E-2,9.567401886E0,-4.187439680E-1,9.576677853E0
3.815454481E0,3.529413417E-2,9.569794655E0,-4.354937077E-1,9.579763576E0
3.817899117E0,4.187439568E-3,9.596116066E0,-4.211367965E-1,9.605353574E0
3.820344481E0,-2.452643216E-2,9.603294373E0,-4.378865361E-1,9.613303749E0
3.822788231E0,-3.409772366E-2,9.555438042E0,-4.259224236E-1,9.564986604E0
3.825232867E0,8.973085321E-3,9.543474197E0,-4.067798555E-1,9.552143745E0
3.827677346E0,-5.982056609E-4,9.557830811E0,-3.996013701E-1,9.566180608E0
3.830121981E0,6.580262445E-3,9.581759453E0,-4.187439680E-1,9.590907362E0
3.832567346E0,1.136590727E-2,9.600901604E0,-3.996013701E-1,9.609220678E0
3.835011096E0,1.375873014E-2,9.579366684E0,-4.283152521E-1,9.588947248E0
3.837455731E0,4.187439568E-3,9.596116066E0,-4.043870270E-1,9.604633775E0
3.839901096E0,-2.991028363E-3,9.588937759E0,-4.474578202E-1,9.599372625E0
3.842344794E0,-1.495514158E-2,9.557830811E0,-4.354937077E-1,9.567758788E0
3.844789429E0,-2.213360928E-2,9.567401886E0,-4.307080805E-1,9.577117426E0
3.847234013E0,-7.776673418E-3,9.581759453E0,-4.283152521E-1,9.591330911E0
3.849678596E0,-5.383851007E-3,9.581759453E0,-4.259224236E-1,9.591222712E0
3.852123961E0,2.093719877E-2,9.572187424E0,-4.498506486E-1,9.582774966E0
3.854567658E0,2.572284266E-2,9.550652504E0,-4.378865361E-1,9.560720137E0
3.857012294E0,1.794616925E-3,9.569794655E0,-4.211367965E-1,9.579056799E0
3.859457658E0,6.580262445E-3,9.567401886E0,-4.378865361E-1,9.577419630E0
3.861901408E0,-1.974078640E-2,9.562616348E0,-4.067798555E-1,9.571284709E0
3.864346044E0,-5.383851007E-3,9.567401886E0,-4.354937077E-1,9.577309779E0
3.866790523E0,1.375873014E-2,9.600901604E0,-4.307080805E-1,9.610567640E0
3.869235158E0,2.572284266E-2,9.596116066E0,-4.211367965E-1,9.605387104E0
3.871680523E0,-7.776673418E-3,9.557830811E0,-4.067798555E-1,9.566486300E0
3.874124273E0,-1.256231871E-2,9.572187424E0,-4.307080805E-1,9.581880783E0
3.876568908E0,-1.974078640E-2,9.572187424E0,-4.331009090E-1,9.582000739E0
3.879014273E0,-5.982056609E-4,9.574581146E0,-4.139583111E-1,9.583525759E0
3.881458023E0,4.187439568E-3,9.574581146E0,-3.996013701E-1,9.582917245E0
3.883902606E0,2.093719877E-2,9.576973915E0,-4.091726840E-1,9.585733672E0
3.886347190E0,2.093719877E-2,9.591330528E0,-4.307080805E-1,9.601019171E0
3.888791773E0,1.615155302E-2,9.586544991E0,-4.043870270E-1,9.595083876E0
3.891237138E0,-5.383851007E-3,9.608079910E0,-4.187439680E-1,9.617202039E0
3.893680888E0,8.973085321E-3,9.572187424E0,-4.522434771E-1,9.582868921E0
3.896125471E0,-5.383851007E-3,9.576973915E0,-4.187439680E-1,9.586125644E0
3.898570888E0,6.580262445E-3,9.562616348E0,-4.522434771E-1,9.573306581E0
3.901014586E0,-5.383851007E-3,9.569794655E0,-4.211367965E-1,9.579058144E0
3.903459221E0,6.580262445E-3,9.572187424E0,-4.426721931E-1,9.582420052E0
3.905903804E0,-1.016949583E-2,9.610472679E0,-4.259224236E-1,9.619911561E0
3.908348388E0,8.973085321E-3,9.591330528E0,-4.187439680E-1,9.600471256E0
3.910793752E0,1.854437590E-2,9.557830811E0,-4.067798555E-1,9.566501113E0
3.913237450E0,2.572284266E-2,9.541081429E0,-4.019941986E-1,9.549580924E0
3.915682086E0,-5.982056609E-4,9.553045273E0,-4.115654826E-1,9.561906739E0
3.918127450E0,-2.931207791E-2,9.555438042E0,-4.402793646E-1,9.565620800E0
3.920571200E0,-1.974078640E-2,9.576973915E0,-4.235295951E-1,9.586354698E0
3.923015836E0,-2.991028363E-3,9.617651939E0,-4.235295951E-1,9.626973309E0
3.925460315E0,1.854437590E-2,9.603294373E0,-4.283152521E-1,9.612859130E0
3.927904950E0,5.443671346E-2,9.562616348E0,-4.235295951E-1,9.572145637E0
3.930350315E0,2.333002165E-2,9.548259735E0,-4.091726840E-1,9.557051352E0
3.932794065E0,-2.452643216E-2,9.591330528E0,-4.139583111E-1,9.600290846E0
3.935238700E0,-6.311069429E-2,9.596116066E0,-4.474578202E-1,9.606749971E0
3.937684065E0,-2.691925503E-2,9.588937759E0,-4.283152521E-1,9.598536657E0
3.940127763E0,-7.776673418E-3,9.557830811E0,-4.474578202E-1,9.568302294E0
3.942572398E0,4.247260094E-2,9.576973915E0,-4.115654826E-1,9.585907335E0
3.945016981E0,3.529413417E-2,9.567401886E0,-4.187439680E-1,9.576626287E0
3.947461565E0,1.794616925E-3,9.557830811E0,-4.235295951E-1,9.567210165E0
3.949906929E0,-3.170489892E-2,9.565009117E0,-4.354937077E-1,9.574970464E0
3.952350627E0,-4.366901144E-2,9.574581146E0,-4.522434771E-1,9.585355250E0
3.954795263E0,-1.495514158E-2,9.586544991E0,-4.426721931E-1,9.596771706E0
3.957240627E0,1.615155302E-2,9.581759453E0,-4.307080805E-1,9.591448511E0
3.959684377E0,5.443671346E-2,9.598508835E0,-4.211367965E-1,9.607897346E0
3.962129013E0,4.725824669E-2,9.584152222E0,-4.259224236E-1,9.593728006E0
3.964573596E0,2.572284266E-2,9.557830811E0,-4.259224236E-1,9.567350803E0
3.967018179E0,-3.170489892E-2,9.553045273E0,-4.235295951E-1,9.562481713E0
3.969463492E0,-5.563312769E-2,9.586544991E0,-4.331009090E-1,9.596484580E0
3.971907242E0,-2.931207791E-2,9.584152222E0,-4.307080805E-1,9.593870046E0
3.974351877E0,-1.016949583E-2,9.596116066E0,-4.211367965E-1,9.605358045E0
3.976797242E0,7.357929647E-2,9.557830811E0,-4.187439680E-1,9.567282280E0
3.979240992E0,5.682953820E-2,9.569794655E0,-4.211367965E-1,9.579225205E0
3.981685575E0,6.580262445E-3,9.579366684E0,-4.354937077E-1,9.589262961E0
3.984130158E0,-4.845465720E-2,9.567401886E0,-4.235295951E-1,9.576894278E0
3.986574742E0,-5.084748194E-2,9.581759453E0,-4.307080805E-1,9.591569691E0
3.989020106E0,-1.974078640E-2,9.574581146E0,-4.235295951E-1,9.583964271E0
3.991463856E0,1.136590727E-2,9.555438042E0,-4.331009090E-1,9.565254923E0
3.993908492E0,5.204389244E-2,9.562616348E0,-4.211367965E-1,9.572026755E0
3.996353856E0,3.768695518E-2,9.555438042E0,-4.283152521E-1,9.565106922E0
3.998797554E0,-2.991028363E-3,9.593723297E0,-4.115654826E-1,9.602547672E0
