"Time (s)","Acceleration x (m/s^2)","Acceleration y (m/s^2)","Acceleration z (m/s^2)","Absolute acceleration (m/s^2)"
3.173783300E-2,9.990034252E-2,-2.581257522E-1,-9.875477791E0,9.879355778E0
3.418314600E-2,8.075776696E-2,-2.724826932E-1,-9.865906715E0,9.869999187E0
3.662757300E-2,8.793623000E-2,-2.509472668E-1,-9.887442589E0,9.891017554E0
3.907127100E-2,9.750752151E-2,-2.653042078E-1,-9.899406433E0,9.903440905E0
4.151585400E-2,8.315058798E-2,-2.748754919E-1,-9.875477791E0,9.879652431E0
4.396111500E-2,1.022931710E-1,-2.485544533E-1,-9.906584740E0,9.910230291E0
4.640554200E-2,8.554340899E-2,-2.605185509E-1,-9.899406433E0,9.903203286E0
4.884929200E-2,9.511470050E-2,-2.581257522E-1,-9.901799202E0,9.905619776E0
5.129377100E-2,9.511470050E-2,-2.653042078E-1,-9.889835358E0,9.893850440E0
5.373913600E-2,8.554340899E-2,-2.581257522E-1,-9.873085022E0,9.876829169E0
5.618356300E-2,9.032905847E-2,-2.629113793E-1,-9.894620895E0,9.898525365E0
5.862726100E-2,8.554340899E-2,-2.509472668E-1,-9.875477791E0,9.879036077E0
6.107174000E-2,9.990034252E-2,-2.509472668E-1,-9.877870560E0,9.881562700E0
6.351710400E-2,1.022931710E-1,-2.557329237E-1,-9.885049820E0,9.888886346E0
6.596153100E-2,1.046859920E-1,-2.605185509E-1,-9.904191971E0,9.908170753E0
6.840522900E-2,1.046859920E-1,-2.485544533E-1,-9.906584740E0,9.910255278E0
7.084981300E-2,1.046859920E-1,-2.700898647E-1,-9.887442589E0,9.891684823E0
7.329507300E-2,8.075776696E-2,-2.820539773E-1,-9.901799202E0,9.906144745E0
7.573955200E-2,1.094716340E-1,-2.700898647E-1,-9.887442589E0,9.891736628E0
7.818325000E-2,9.750752151E-2,-2.461616248E-1,-9.868299484E0,9.871850788E0
8.062772900E-2,8.793623000E-2,-2.533400953E-1,-9.889835358E0,9.893470442E0
8.307309400E-2,8.315058798E-2,-2.581257522E-1,-9.894620895E0,9.898336506E0
8.551752100E-2,8.075776696E-2,-2.653042078E-1,-9.889835358E0,9.893722835E0
8.796121900E-2,6.879365444E-2,-2.485544533E-1,-9.885049820E0,9.888413514E0
9.040569800E-2,8.315058798E-2,-2.509472668E-1,-9.877870560E0,9.881407559E0
9.285106300E-2,7.357929647E-2,-2.437688112E-1,-9.887442589E0,9.890720808E0
9.529549000E-2,8.793623000E-2,-2.485544533E-1,-9.892228127E0,9.895740973E0
9.773918800E-2,7.836493850E-2,-2.605185509E-1,-9.887442589E0,9.891184556E0
1.001837710E-1,8.554340899E-2,-2.533400953E-1,-9.880263329E0,9.883880934E0
1.026290310E-1,1.070788130E-1,-2.772683203E-1,-9.877870560E0,9.882341341E0
1.050735110E-1,9.032905847E-2,-2.700898647E-1,-9.897013664E0,9.901110410E0
1.075172080E-1,8.315058798E-2,-2.676970363E-1,-9.894620895E0,9.898590727E0
1.099616880E-1,1.022931710E-1,-2.581257522E-1,-9.889835358E0,9.893732167E0
1.124070520E-1,1.022931710E-1,-2.605185509E-1,-9.899406433E0,9.903362133E0
1.148514790E-1,9.511470050E-2,-2.653042078E-1,-9.868299484E0,9.872323325E0
1.172951770E-1,8.315058798E-2,-2.653042078E-1,-9.892228127E0,9.896134480E0
1.197397610E-1,9.990034252E-2,-2.700898647E-1,-9.885049820E0,9.889243579E0
1.221850210E-1,9.511470050E-2,-2.724826932E-1,-9.887442589E0,9.891653783E0
1.246295000E-1,9.511470050E-2,-2.533400953E-1,-9.897013664E0,9.900712473E0
1.270731980E-1,9.750752151E-2,-2.605185509E-1,-9.906584740E0,9.910489334E0
1.295176770E-1,1.094716340E-1,-2.629113793E-1,-9.901799202E0,9.905893895E0
1.319630420E-1,8.075776696E-2,-2.485544533E-1,-9.889835358E0,9.893287853E0
1.344074690E-1,9.272187948E-2,-2.653042078E-1,-9.875477791E0,9.879475961E0
1.368511670E-1,1.118644550E-1,-2.581257522E-1,-9.897013664E0,9.901011162E0
1.392956460E-1,1.070788130E-1,-2.629113793E-1,-9.894620895E0,9.898692385E0
1.417410110E-1,1.118644550E-1,-2.533400953E-1,-9.892228127E0,9.896103888E0
1.441854380E-1,8.554340899E-2,-2.700898647E-1,-9.889835358E0,9.893892541E0
1.466291880E-1,1.046859920E-1,-2.581257522E-1,-9.868299484E0,9.872229878E0
1.490736670E-1,9.750752151E-2,-2.748754919E-1,-9.868299484E0,9.872608519E0
1.515189790E-1,8.793623000E-2,-2.748754919E-1,-9.885049820E0,9.889261816E0
1.539634580E-1,9.750752151E-2,-2.653042078E-1,-9.877870560E0,9.881913824E0
1.564071560E-1,9.272187948E-2,-2.629113793E-1,-9.877870560E0,9.881803810E0
1.588516360E-1,8.793623000E-2,-2.437688112E-1,-9.892228127E0,9.895621927E0
1.612970000E-1,1.022931710E-1,-2.605185509E-1,-9.899406433E0,9.903362133E0
1.637414270E-1,1.070788130E-1,-2.581257522E-1,-9.882657051E0,9.886607364E0
1.661851250E-1,8.554340899E-2,-2.509472668E-1,-9.901799202E0,9.905348032E0
1.686297080E-1,7.836493850E-2,-2.485544533E-1,-9.899406433E0,9.902836367E0
1.710749690E-1,6.879365444E-2,-2.605185509E-1,-9.873085022E0,9.876761126E0
1.735194480E-1,7.118647546E-2,-2.557329237E-1,-9.875477791E0,9.879044915E0
1.759631460E-1,9.032905847E-2,-2.557329237E-1,-9.873085022E0,9.876809531E0
1.784076250E-1,8.554340899E-2,-2.389831543E-1,-9.887442589E0,9.890700257E0
1.808529900E-1,8.075776696E-2,-2.605185509E-1,-9.887442589E0,9.891203803E0
1.832974170E-1,8.075776696E-2,-2.748754919E-1,-9.906584740E0,9.910726490E0
1.857411150E-1,8.793623000E-2,-2.700898647E-1,-9.885049820E0,9.889129955E0
1.881856980E-1,7.357929647E-2,-2.653042078E-1,-9.894620895E0,9.898450530E0
1.906309580E-1,8.793623000E-2,-2.772683203E-1,-9.899406433E0,9.903679025E0
1.930754380E-1,9.272187948E-2,-2.676970363E-1,-9.870692253E0,9.874756939E0
1.955191360E-1,9.511470050E-2,-2.605185509E-1,-9.870692253E0,9.874587702E0
1.979636150E-1,1.022931710E-1,-2.461616248E-1,-9.868299484E0,9.871899217E0
2.004089790E-1,9.272187948E-2,-2.653042078E-1,-9.904191971E0,9.908178554E0
2.028534060E-1,1.022931710E-1,-2.676970363E-1,-9.873085022E0,9.877243211E0
2.052971040E-1,9.750752151E-2,-2.605185509E-1,-9.880263329E0,9.884178321E0
2.077415830E-1,9.990034252E-2,-2.676970363E-1,-9.899406433E0,9.903529144E0
2.101869480E-1,7.357929647E-2,-2.700898647E-1,-9.899406433E0,9.903363579E0
2.126313750E-1,8.554340899E-2,-2.581257522E-1,-9.856335640E0,9.860086147E0
2.150750730E-1,9.511470050E-2,-2.653042078E-1,-9.873085022E0,9.877106913E0
2.175196560E-1,1.094716340E-1,-2.605185509E-1,-9.894620895E0,9.898655293E0
2.199649170E-1,9.990034252E-2,-2.772683203E-1,-9.885049820E0,9.889442236E0
2.224093960E-1,9.272187948E-2,-2.629113793E-1,-9.882657051E0,9.886588397E0
2.248530940E-1,9.272187948E-2,-2.700898647E-1,-9.880263329E0,9.884389173E0
2.272975730E-1,9.750752151E-2,-2.557329237E-1,-9.889835358E0,9.893621705E0
2.297429380E-1,1.046859920E-1,-2.509472668E-1,-9.889835358E0,9.893572514E0
2.321873650E-1,7.118647546E-2,-2.389831543E-1,-9.904191971E0,9.907330572E0
2.346310630E-1,9.990034252E-2,-2.437688112E-1,-9.892228127E0,9.895735476E0
2.370756460E-1,1.046859920E-1,-2.724826932E-1,-9.897013664E0,9.901317359E0
2.395209060E-1,9.750752151E-2,-2.485544533E-1,-9.889835358E0,9.893438757E0
2.419653860E-1,9.032905847E-2,-2.629113793E-1,-9.873085022E0,9.876998005E0
2.444090830E-1,9.750752151E-2,-2.461616248E-1,-9.889835358E0,9.893378931E0
2.468535630E-1,9.990034252E-2,-2.629113793E-1,-9.882657051E0,9.886658326E0
2.492989270E-1,9.990034252E-2,-2.629113793E-1,-9.887442589E0,9.891441928E0
2.517433540E-1,1.022931710E-1,-2.724826932E-1,-9.885049820E0,9.889333681E0
2.541870520E-1,9.511470050E-2,-2.653042078E-1,-9.894620895E0,9.898634037E0
2.566316360E-1,1.070788130E-1,-2.676970363E-1,-9.894620895E0,9.898820649E0
2.590768960E-1,9.272187948E-2,-2.629113793E-1,-9.897013664E0,9.900939310E0
2.615213750E-1,1.070788130E-1,-2.605185509E-1,-9.908977509E0,9.912979928E0
2.639650730E-1,1.070788130E-1,-2.557329237E-1,-9.870692253E0,9.874585093E0
2.664095520E-1,9.511470050E-2,-2.605185509E-1,-9.875477791E0,9.879371352E0
2.688549170E-1,8.315058798E-2,-2.605185509E-1,-9.889835358E0,9.893615484E0
2.712993440E-1,9.990034252E-2,-2.581257522E-1,-9.875477791E0,9.879355778E0
2.737430420E-1,8.315058798E-2,-2.461616248E-1,-9.894620895E0,9.898031735E0
2.761875210E-1,8.075776696E-2,-2.509472668E-1,-9.892228127E0,9.895740177E0
2.786328860E-1,1.046859920E-1,-2.485544533E-1,-9.894620895E0,9.898295870E0
2.810773130E-1,9.750752151E-2,-2.676970363E-1,-9.899406433E0,9.903505296E0
2.835210630E-1,1.094716340E-1,-2.700898647E-1,-9.885049820E0,9.889344898E0
2.859655420E-1,1.022931710E-1,-2.509472668E-1,-9.899406433E0,9.903114972E0
2.884109060E-1,8.554340899E-2,-2.437688112E-1,-9.889835358E0,9.893209000E0
2.908553330E-1,1.046859920E-1,-2.676970363E-1,-9.889835358E0,9.894011535E0
2.932990310E-1,9.272187948E-2,-2.581257522E-1,-9.925727844E0,9.929516579E0
2.957436150E-1,1.046859920E-1,-2.533400953E-1,-9.897013664E0,9.900809049E0
2.981888750E-1,8.315058798E-2,-2.724826932E-1,-9.873085022E0,9.877194373E0
3.006333020E-1,9.750752151E-2,-2.461616248E-1,-9.897013664E0,9.900554668E0
3.030770520E-1,9.750752151E-2,-2.485544533E-1,-9.904191971E0,9.907790149E0
3.055215310E-1,9.272187948E-2,-2.485544533E-1,-9.897013664E0,9.900568475E0
3.079668440E-1,8.554340899E-2,-2.748754919E-1,-9.899406433E0,9.903591366E0
3.104113230E-1,9.990034252E-2,-2.557329237E-1,-9.904191971E0,9.907996669E0
3.128550210E-1,1.166501045E-1,-2.485544533E-1,-9.885049820E0,9.888862245E0
3.152995000E-1,1.094716340E-1,-2.485544533E-1,-9.899406433E0,9.903131378E0
3.177448650E-1,9.272187948E-2,-2.533400953E-1,-9.885049820E0,9.888730378E0
3.201892920E-1,8.554340899E-2,-2.629113793E-1,-9.923335075E0,9.927185859E0
3.226329900E-1,8.075776696E-2,-2.605185509E-1,-9.892228127E0,9.895987522E0
3.250775730E-1,1.094716340E-1,-2.653042078E-1,-9.892228127E0,9.896390638E0
3.275228330E-1,1.070788130E-1,-2.437688112E-1,-9.901799202E0,9.905378162E0
3.299673130E-1,9.750752151E-2,-2.557329237E-1,-9.913763046E0,9.917540259E0
3.324110110E-1,8.793623000E-2,-2.437688112E-1,-9.894620895E0,9.898013875E0
3.348554900E-1,7.357929647E-2,-2.700898647E-1,-9.875477791E0,9.879444521E0
3.373008540E-1,8.793623000E-2,-2.748754919E-1,-9.892228127E0,9.896437067E0
3.397452810E-1,8.793623000E-2,-2.509472668E-1,-9.887442589E0,9.891017554E0
3.421889790E-1,9.511470050E-2,-2.533400953E-1,-9.913763046E0,9.917455609E0
3.446335630E-1,8.075776696E-2,-2.509472668E-1,-9.882657051E0,9.886172502E0
3.470788230E-1,9.272187948E-2,-2.581257522E-1,-9.880263329E0,9.884069490E0
3.495233020E-1,1.118644550E-1,-2.605185509E-1,-9.887442589E0,9.891506686E0
3.519670000E-1,9.750752151E-2,-2.772683203E-1,-9.899406433E0,9.903768635E0
3.544114790E-1,1.046859920E-1,-2.557329237E-1,-9.885049820E0,9.888911387E0
3.568568440E-1,1.022931710E-1,-2.653042078E-1,-9.887442589E0,9.891530274E0
3.593012710E-1,7.836493850E-2,-2.605185509E-1,-9.892228127E0,9.895968284E0
3.617449690E-1,8.075776696E-2,-2.700898647E-1,-9.894620895E0,9.898635917E0
3.641895520E-1,6.879365444E-2,-2.557329237E-1,-9.887442589E0,9.890988466E0
3.666348130E-1,1.022931710E-1,-2.461616248E-1,-9.894620895E0,9.898211056E0
3.690792920E-1,1.094716340E-1,-2.724826932E-1,-9.870692253E0,9.875059312E0
3.715229900E-1,9.511470050E-2,-2.653042078E-1,-9.911370277E0,9.915376640E0
3.739674690E-1,1.022931710E-1,-2.365903407E-1,-9.882657051E0,9.886017867E0
3.764128330E-1,7.836493850E-2,-2.485544533E-1,-9.906584740E0,9.910012189E0
3.788572610E-1,9.032905847E-2,-2.700898647E-1,-9.908977509E0,9.913069310E0
3.813009580E-1,9.272187948E-2,-2.700898647E-1,-9.889835358E0,9.893957211E0
3.837455420E-1,1.190429255E-1,-2.533400953E-1,-9.887442589E0,9.891404014E0
3.861908020E-1,9.750752151E-2,-2.557329237E-1,-9.892228127E0,9.896013559E0
3.886352810E-1,8.554340899E-2,-2.533400953E-1,-9.906584740E0,9.910192737E0
3.910789790E-1,9.272187948E-2,-2.509472668E-1,-9.894620895E0,9.898236941E0
3.935234580E-1,8.075776696E-2,-2.389831543E-1,-9.882657051E0,9.885876044E0
3.959688230E-1,9.990034252E-2,-2.700898647E-1,-9.873085022E0,9.877283861E0
3.984132500E-1,8.554340899E-2,-2.533400953E-1,-9.906584740E0,9.910192737E0
4.008569480E-1,9.750752151E-2,-2.844468057E-1,-9.901799202E0,9.906363871E0
4.033015310E-1,9.990034252E-2,-2.365903407E-1,-9.899406433E0,9.902737137E0
4.057467920E-1,8.793623000E-2,-2.629113793E-1,-9.889835358E0,9.893720159E0
4.081912710E-1,8.554340899E-2,-2.748754919E-1,-9.894620895E0,9.898807851E0
4.106349690E-1,9.272187948E-2,-2.676970363E-1,-9.885049820E0,9.889108605E0
4.130794480E-1,8.793623000E-2,-2.724826932E-1,-9.889835358E0,9.893979129E0
4.155248130E-1,9.511470050E-2,-2.653042078E-1,-9.894620895E0,9.898634037E0
4.179692400E-1,9.750752151E-2,-2.485544533E-1,-9.906584740E0,9.910182049E0
4.204129380E-1,1.046859920E-1,-2.222333997E-1,-9.880263329E0,9.883316765E0
4.228575210E-1,8.554340899E-2,-2.509472668E-1,-9.877870560E0,9.881427984E0
4.253027810E-1,9.511470050E-2,-2.485544533E-1,-9.889835358E0,9.893415463E0
4.277472610E-1,9.990034252E-2,-2.509472668E-1,-9.877870560E0,9.881562700E0
4.301909580E-1,1.070788130E-1,-2.581257522E-1,-9.904191971E0,9.908133698E0
4.326354380E-1,8.554340899E-2,-2.581257522E-1,-9.906584740E0,9.910316230E0
4.350808020E-1,8.315058798E-2,-2.653042078E-1,-9.904191971E0,9.908093608E0
4.375252290E-1,8.793623000E-2,-2.700898647E-1,-9.892228127E0,9.896305302E0
4.399689270E-1,9.511470050E-2,-2.461616248E-1,-9.911370277E0,9.914882910E0
4.424135110E-1,1.118644550E-1,-2.653042078E-1,-9.880263329E0,9.884457670E0
4.448587710E-1,1.070788130E-1,-2.653042078E-1,-9.868299484E0,9.872445842E0
4.473032500E-1,1.022931710E-1,-2.700898647E-1,-9.894620895E0,9.898835037E0
4.497469480E-1,9.750752151E-2,-2.557329237E-1,-9.894620895E0,9.898405412E0
4.521914270E-1,9.511470050E-2,-2.772683203E-1,-9.894620895E0,9.898961925E0
4.546367920E-1,9.032905847E-2,-2.485544533E-1,-9.887442589E0,9.890978698E0
4.570812190E-1,9.032905847E-2,-2.509472668E-1,-9.904191971E0,9.907782419E0
4.595249170E-1,9.272187948E-2,-2.533400953E-1,-9.892228127E0,9.895906015E0
4.619695000E-1,1.046859920E-1,-2.533400953E-1,-9.906584740E0,9.910376459E0
4.644148130E-1,1.118644550E-1,-2.629113793E-1,-9.882657051E0,9.886786457E0
4.668592400E-1,8.554340899E-2,-2.772683203E-1,-9.897013664E0,9.901266326E0
4.693029380E-1,1.214357466E-1,-2.676970363E-1,-9.897013664E0,9.901378077E0
4.717474170E-1,1.094716340E-1,-2.653042078E-1,-9.892228127E0,9.896390638E0
4.741927810E-1,1.046859920E-1,-2.605185509E-1,-9.906584740E0,9.910562561E0
4.766372080E-1,9.511470050E-2,-2.581257522E-1,-9.901799202E0,9.905619776E0
4.790809580E-1,9.032905847E-2,-2.676970363E-1,-9.908977509E0,9.913004404E0
4.815254380E-1,9.990034252E-2,-2.557329237E-1,-9.901799202E0,9.905604820E0
4.839708020E-1,9.750752151E-2,-2.676970363E-1,-9.880263329E0,9.884370130E0
4.864152290E-1,9.750752151E-2,-2.509472668E-1,-9.889835358E0,9.893499161E0
4.888589270E-1,9.032905847E-2,-2.676970363E-1,-9.899406433E0,9.903437220E0
4.913034060E-1,9.511470050E-2,-2.676970363E-1,-9.906584740E0,9.910657381E0
4.937487710E-1,9.750752151E-2,-2.461616248E-1,-9.904191971E0,9.907730409E0
4.961932500E-1,9.750752151E-2,-2.437688112E-1,-9.880263329E0,9.883751028E0
4.986369480E-1,9.511470050E-2,-2.533400953E-1,-9.885049820E0,9.888753104E0
5.010814270E-1,9.272187948E-2,-2.533400953E-1,-9.894620895E0,9.898297895E0
5.035267920E-1,9.272187948E-2,-2.748754919E-1,-9.887442589E0,9.891697267E0
5.059712190E-1,9.990034252E-2,-2.605185509E-1,-9.887442589E0,9.891378617E0
5.084149170E-1,1.070788130E-1,-2.485544533E-1,-9.882657051E0,9.886362100E0
5.108595000E-1,9.511470050E-2,-2.509472668E-1,-9.916155815E0,9.919786665E0
5.133047610E-1,1.070788130E-1,-2.557329237E-1,-9.892228127E0,9.896112495E0
5.157492400E-1,1.166501045E-1,-2.485544533E-1,-9.894620895E0,9.898429634E0
5.181929380E-1,1.238285750E-1,-2.485544533E-1,-9.918548584E0,9.922435127E0
5.206374170E-1,1.070788130E-1,-2.485544533E-1,-9.901799202E0,9.905497091E0
5.230827810E-1,9.511470050E-2,-2.581257522E-1,-9.875477791E0,9.879308544E0
5.255272080E-1,8.554340899E-2,-2.557329237E-1,-9.887442589E0,9.891119145E0
5.279709060E-1,1.190429255E-1,-2.653042078E-1,-9.880263329E0,9.884541516E0
5.304154900E-1,9.750752151E-2,-2.509472668E-1,-9.894620895E0,9.898282927E0
5.328607500E-1,8.793623000E-2,-2.605185509E-1,-9.897013664E0,9.900832398E0
5.353052290E-1,9.990034252E-2,-2.581257522E-1,-9.892228127E0,9.896099549E0
5.377489270E-1,8.793623000E-2,-2.581257522E-1,-9.894620895E0,9.898377864E0
5.401934060E-1,1.142572835E-1,-2.796611488E-1,-9.897013664E0,9.901623329E0
5.426387710E-1,1.022931710E-1,-2.844468057E-1,-9.889835358E0,9.894453865E0
5.450831980E-1,9.750752151E-2,-2.772683203E-1,-9.901799202E0,9.906160350E0
5.475268960E-1,9.032905847E-2,-2.485544533E-1,-9.899406433E0,9.902938270E0
5.499714790E-1,9.750752151E-2,-2.629113793E-1,-9.889835358E0,9.893809858E0
5.524167400E-1,1.022931710E-1,-2.413759828E-1,-9.916155815E0,9.919620578E0
5.548612190E-1,1.046859920E-1,-2.533400953E-1,-9.897013664E0,9.900809049E0
5.573049170E-1,1.094716340E-1,-2.389831543E-1,-9.906584740E0,9.910071553E0
5.597493960E-1,9.511470050E-2,-2.724826932E-1,-9.906584740E0,9.910787801E0
5.621947610E-1,8.554340899E-2,-2.772683203E-1,-9.901799202E0,9.906049810E0
5.646391880E-1,8.793623000E-2,-2.509472668E-1,-9.897013664E0,9.900585174E0
5.670829380E-1,1.046859920E-1,-2.533400953E-1,-9.906584740E0,9.910376459E0
5.695274170E-1,1.046859920E-1,-2.605185509E-1,-9.920941353E0,9.924913420E0
5.719727290E-1,1.166501045E-1,-2.533400953E-1,-9.887442589E0,9.891375506E0
5.744172080E-1,9.990034252E-2,-2.724826932E-1,-9.887442589E0,9.891700958E0
5.768609060E-1,9.272187948E-2,-2.485544533E-1,-9.877870560E0,9.881432257E0
5.793053860E-1,9.272187948E-2,-2.437688112E-1,-9.897013664E0,9.900449487E0
5.817507500E-1,7.836493850E-2,-2.557329237E-1,-9.899406433E0,9.903019142E0
5.841952290E-1,1.046859920E-1,-2.485544533E-1,-9.894620895E0,9.898295870E0
5.866389270E-1,9.750752151E-2,-2.605185509E-1,-9.897013664E0,9.900922033E0
5.890834060E-1,7.357929647E-2,-2.365903407E-1,-9.920941353E0,9.924034776E0
5.915287710E-1,9.032905847E-2,-2.413759828E-1,-9.894620895E0,9.897976782E0
5.939731980E-1,9.032905847E-2,-2.629113793E-1,-9.865906715E0,9.869822544E0
5.964168960E-1,9.032905847E-2,-2.605185509E-1,-9.885049820E0,9.888894741E0
5.988614790E-1,8.793623000E-2,-2.892324328E-1,-9.882657051E0,9.887279634E0
6.013067400E-1,8.554340899E-2,-2.605185509E-1,-9.882657051E0,9.886460336E0
6.037512190E-1,9.750752151E-2,-2.557329237E-1,-9.894620895E0,9.898405412E0
6.061949170E-1,1.070788130E-1,-2.533400953E-1,-9.892228127E0,9.896050949E0
6.086393960E-1,9.032905847E-2,-2.485544533E-1,-9.887442589E0,9.890978698E0
6.110847610E-1,9.990034252E-2,-2.581257522E-1,-9.889835358E0,9.893707717E0
6.135291880E-1,1.142572835E-1,-2.629113793E-1,-9.870692253E0,9.874854058E0
6.159728860E-1,1.022931710E-1,-2.676970363E-1,-9.889835358E0,9.893986507E0
6.184174690E-1,8.554340899E-2,-2.485544533E-1,-9.894620895E0,9.898111924E0
6.208627290E-1,9.511470050E-2,-2.461616248E-1,-9.899406433E0,9.902923310E0
6.233072080E-1,9.750752151E-2,-2.485544533E-1,-9.894620895E0,9.898222552E0
6.257509060E-1,9.032905847E-2,-2.365903407E-1,-9.889835358E0,9.893077263E0
6.281953860E-1,1.022931710E-1,-2.461616248E-1,-9.882657051E0,9.886251556E0
6.306407500E-1,1.046859920E-1,-2.629113793E-1,-9.899406433E0,9.903450372E0
6.330852290E-1,9.032905847E-2,-2.485544533E-1,-9.897013664E0,9.900546355E0
6.355289270E-1,9.750752151E-2,-2.724826932E-1,-9.892228127E0,9.896460571E0
6.379734060E-1,9.511470050E-2,-2.485544533E-1,-9.897013664E0,9.900591174E0
6.404187710E-1,7.597211748E-2,-2.341975123E-1,-9.908977509E0,9.912035891E0
6.428631980E-1,8.554340899E-2,-2.581257522E-1,-9.904191971E0,9.907924363E0
6.453068960E-1,9.511470050E-2,-2.605185509E-1,-9.870692253E0,9.874587702E0
6.477514790E-1,1.094716340E-1,-2.772683203E-1,-9.894620895E0,9.899110284E0
6.501967400E-1,8.793623000E-2,-2.581257522E-1,-9.913763046E0,9.917512764E0
6.526412190E-1,9.750752151E-2,-2.485544533E-1,-9.889835358E0,9.893438757E0
6.550849170E-1,9.272187948E-2,-2.413759828E-1,-9.901799202E0,9.905174766E0
6.575293960E-1,8.793623000E-2,-2.509472668E-1,-9.901799202E0,9.905368986E0
6.599747610E-1,9.990034252E-2,-2.605185509E-1,-9.880263329E0,9.884202215E0
6.624191880E-1,8.793623000E-2,-2.724826932E-1,-9.885049820E0,9.889195596E0
6.648629380E-1,1.118644550E-1,-2.437688112E-1,-9.892228127E0,9.895863489E0
6.673074170E-1,9.750752151E-2,-2.581257522E-1,-9.894620895E0,9.898467522E0
6.697527810E-1,7.357929647E-2,-2.724826932E-1,-9.901799202E0,9.905820923E0
6.721972080E-1,9.032905847E-2,-2.748754919E-1,-9.870692253E0,9.874931971E0
6.746409060E-1,1.022931710E-1,-2.605185509E-1,-9.885049820E0,9.889011263E0
6.770854900E-1,1.022931710E-1,-2.533400953E-1,-9.901799202E0,9.905567754E0
6.795307500E-1,9.272187948E-2,-2.629113793E-1,-9.904191971E0,9.908114772E0
6.819752290E-1,1.190429255E-1,-2.605185509E-1,-9.911370277E0,9.915508152E0
6.844189270E-1,1.286142170E-1,-2.365903407E-1,-9.892228127E0,9.895892780E0
6.868634060E-1,1.070788130E-1,-2.581257522E-1,-9.904191971E0,9.908133698E0
6.893087710E-1,1.070788130E-1,-2.485544533E-1,-9.887442589E0,9.891145845E0
6.917531980E-1,9.032905847E-2,-2.605185509E-1,-9.894620895E0,9.898462099E0
6.941968960E-1,8.554340899E-2,-2.629113793E-1,-9.897013664E0,9.900874686E0
6.966414790E-1,9.750752151E-2,-2.509472668E-1,-9.880263329E0,9.883930680E0
6.990867920E-1,9.990034252E-2,-2.461616248E-1,-9.897013664E0,9.900578523E0
7.015312190E-1,1.070788130E-1,-2.557329237E-1,-9.894620895E0,9.898504325E0
7.039749170E-1,9.272187948E-2,-2.461616248E-1,-9.918548584E0,9.922036026E0
7.064193960E-1,6.879365444E-2,-2.772683203E-1,-9.892228127E0,9.896352237E0
7.088647610E-1,7.597211748E-2,-2.533400953E-1,-9.920941353E0,9.924466247E0
7.113091880E-1,8.793623000E-2,-2.557329237E-1,-9.875477791E0,9.879179809E0
7.137529380E-1,8.793623000E-2,-2.557329237E-1,-9.887442589E0,9.891140129E0
7.161974170E-1,1.022931710E-1,-2.629113793E-1,-9.889835358E0,9.893858180E0
7.186427810E-1,1.046859920E-1,-2.605185509E-1,-9.894620895E0,9.898603525E0
7.210872080E-1,8.793623000E-2,-2.557329237E-1,-9.873085022E0,9.876787937E0
7.235309060E-1,1.094716340E-1,-2.676970363E-1,-9.892228127E0,9.896455075E0
7.259754900E-1,1.190429255E-1,-2.461616248E-1,-9.877870560E0,9.881654394E0
7.284207500E-1,9.990034252E-2,-2.605185509E-1,-9.885049820E0,9.888986800E0
7.308652290E-1,7.836493850E-2,-2.676970363E-1,-9.916155815E0,9.920078070E0
7.333089270E-1,8.793623000E-2,-2.533400953E-1,-9.906584740E0,9.910213680E0
7.357534060E-1,9.750752151E-2,-2.557329237E-1,-9.885049820E0,9.888838000E0
7.381987710E-1,9.511470050E-2,-2.653042078E-1,-9.887442589E0,9.891458642E0
7.406432500E-1,1.190429255E-1,-2.629113793E-1,-9.892228127E0,9.896437284E0
7.430869480E-1,9.990034252E-2,-2.724826932E-1,-9.887442589E0,9.891700958E0
7.455314270E-1,9.750752151E-2,-2.629113793E-1,-9.906584740E0,9.910552523E0
7.479767920E-1,9.511470050E-2,-2.724826932E-1,-9.916155815E0,9.920354821E0
7.504212190E-1,9.032905847E-2,-2.629113793E-1,-9.918548584E0,9.922443638E0
7.528649170E-1,9.750752151E-2,-2.676970363E-1,-9.908977509E0,9.913072414E0
7.553095000E-1,9.511470050E-2,-2.437688112E-1,-9.906584740E0,9.910039921E0
7.577547610E-1,1.022931710E-1,-2.485544533E-1,-9.911370277E0,9.915014069E0
7.601992400E-1,8.554340899E-2,-2.485544533E-1,-9.901799202E0,9.905287700E0
7.626429380E-1,9.750752151E-2,-2.700898647E-1,-9.885049820E0,9.889219696E0
7.650874170E-1,9.272187948E-2,-2.653042078E-1,-9.894620895E0,9.898611334E0
7.675327810E-1,1.046859920E-1,-2.581257522E-1,-9.913763046E0,9.917675423E0
7.699772080E-1,9.990034252E-2,-2.629113793E-1,-9.899406433E0,9.903400941E0
7.724209580E-1,9.272187948E-2,-2.509472668E-1,-9.920941353E0,9.924547809E0
7.748654380E-1,1.070788130E-1,-2.748754919E-1,-9.897013664E0,9.901409086E0
7.773108020E-1,9.272187948E-2,-2.294118702E-1,-9.887442589E0,9.890538312E0
7.797552290E-1,1.022931710E-1,-2.581257522E-1,-9.918548584E0,9.922434117E0
7.821989270E-1,9.990034252E-2,-2.581257522E-1,-9.889835358E0,9.893707717E0
7.846435110E-1,1.070788130E-1,-2.653042078E-1,-9.899406433E0,9.903539767E0
7.870887710E-1,9.990034252E-2,-2.389831543E-1,-9.887442589E0,9.890834847E0
7.895332500E-1,8.075776696E-2,-2.461616248E-1,-9.870692253E0,9.874091498E0
7.919769480E-1,9.750752151E-2,-2.605185509E-1,-9.899406433E0,9.903313857E0
7.944214270E-1,9.511470050E-2,-2.653042078E-1,-9.899406433E0,9.903417635E0
7.968667920E-1,9.032905847E-2,-2.437688112E-1,-9.894620895E0,9.898035423E0
7.993112190E-1,9.511470050E-2,-2.557329237E-1,-9.894620895E0,9.898382130E0
8.017549690E-1,8.075776696E-2,-2.461616248E-1,-9.882657051E0,9.886052182E0
8.041994480E-1,1.022931710E-1,-2.533400953E-1,-9.894620895E0,9.898392181E0
8.066448130E-1,9.272187948E-2,-2.844468057E-1,-9.880263329E0,9.884791893E0
8.090892400E-1,1.022931710E-1,-2.533400953E-1,-9.870692253E0,9.874472677E0
8.115329380E-1,9.750752151E-2,-2.437688112E-1,-9.887442589E0,9.890927757E0
8.139775210E-1,9.750752151E-2,-2.533400953E-1,-9.880263329E0,9.883991722E0
8.164227810E-1,8.793623000E-2,-2.581257522E-1,-9.892228127E0,9.895986004E0
8.188672610E-1,8.075776696E-2,-2.629113793E-1,-9.911370277E0,9.915185575E0
8.213109580E-1,8.793623000E-2,-2.676970363E-1,-9.908977509E0,9.912982889E0
8.237554380E-1,1.022931710E-1,-2.605185509E-1,-9.901799202E0,9.905753946E0
8.262008020E-1,9.511470050E-2,-2.509472668E-1,-9.897013664E0,9.900651534E0
8.286452810E-1,9.750752151E-2,-2.509472668E-1,-9.882657051E0,9.886323515E0
8.310889790E-1,1.022931710E-1,-2.581257522E-1,-9.865906715E0,9.869812973E0
8.335334580E-1,9.032905847E-2,-2.509472668E-1,-9.887442589E0,9.891039117E0
8.359788230E-1,9.032905847E-2,-2.748754919E-1,-9.901799202E0,9.906025606E0
8.384232500E-1,9.511470050E-2,-2.581257522E-1,-9.908977509E0,9.912795316E0
8.408669480E-1,7.836493850E-2,-2.557329237E-1,-9.887442589E0,9.891059667E0
8.433115310E-1,1.022931710E-1,-2.676970363E-1,-9.904191971E0,9.908337105E0
8.457568440E-1,9.511470050E-2,-2.605185509E-1,-9.911370277E0,9.915249745E0
8.482012710E-1,9.511470050E-2,-2.653042078E-1,-9.887442589E0,9.891458642E0
8.506449690E-1,8.315058798E-2,-2.629113793E-1,-9.901799202E0,9.905637983E0
8.530894480E-1,9.272187948E-2,-2.700898647E-1,-9.885049820E0,9.889173667E0
8.555348130E-1,7.597211748E-2,-2.629113793E-1,-9.887442589E0,9.891229201E0
8.579792920E-1,8.554340899E-2,-2.413759828E-1,-9.911370277E0,9.914678049E0
8.604229900E-1,9.032905847E-2,-2.676970363E-1,-9.894620895E0,9.898653631E0
8.628674690E-1,9.032905847E-2,-2.724826932E-1,-9.899406433E0,9.903567735E0
8.653128330E-1,9.990034252E-2,-2.581257522E-1,-9.911370277E0,9.915234226E0
8.677572610E-1,1.046859920E-1,-2.676970363E-1,-9.894620895E0,9.898795054E0
8.702010110E-1,1.046859920E-1,-2.581257522E-1,-9.901799202E0,9.905716304E0
8.726454900E-1,9.750752151E-2,-2.413759828E-1,-9.889835358E0,9.893261014E0
8.750908540E-1,8.554340899E-2,-2.676970363E-1,-9.908977509E0,9.912961951E0
8.775352810E-1,9.990034252E-2,-2.533400953E-1,-9.908977509E0,9.912718928E0
8.799789790E-1,1.094716340E-1,-2.389831543E-1,-9.901799202E0,9.905287700E0
8.824235630E-1,1.094716340E-1,-2.557329237E-1,-9.904191971E0,9.908097797E0
8.848688230E-1,1.022931710E-1,-2.533400953E-1,-9.897013664E0,9.900784038E0
8.873133020E-1,8.554340899E-2,-2.605185509E-1,-9.913763046E0,9.917554403E0
8.897570000E-1,1.166501045E-1,-2.461616248E-1,-9.885049820E0,9.888802391E0
8.922014790E-1,9.272187948E-2,-2.413759828E-1,-9.882657051E0,9.886039151E0
8.946468440E-1,9.750752151E-2,-2.724826932E-1,-9.887442589E0,9.891677081E0
8.970912710E-1,1.022931710E-1,-2.485544533E-1,-9.894620895E0,9.898270853E0
8.995350210E-1,8.554340899E-2,-2.605185509E-1,-9.908977509E0,9.912770695E0
9.019795000E-1,8.793623000E-2,-2.533400953E-1,-9.899406433E0,9.903038004E0
9.044248650E-1,9.032905847E-2,-2.509472668E-1,-9.885049820E0,9.888647219E0
9.068692920E-1,7.597211748E-2,-2.605185509E-1,-9.906584740E0,9.910300847E0
9.093129900E-1,1.166501045E-1,-2.676970363E-1,-9.887442589E0,9.891753631E0
9.117575730E-1,1.142572835E-1,-2.581257522E-1,-9.887442589E0,9.891471305E0
9.142028860E-1,8.793623000E-2,-2.700898647E-1,-9.908977509E0,9.913047795E0
9.166473130E-1,8.075776696E-2,-2.581257522E-1,-9.906584740E0,9.910276077E0
9.190910110E-1,9.990034252E-2,-2.437688112E-1,-9.908977509E0,9.912478932E0
9.215355940E-1,8.793623000E-2,-2.724826932E-1,-9.906584740E0,9.910721508E0
9.239808540E-1,9.032905847E-2,-2.461616248E-1,-9.892228127E0,9.895702713E0
9.264253330E-1,9.511470050E-2,-2.509472668E-1,-9.885049820E0,9.888692091E0
9.288690310E-1,8.554340899E-2,-2.557329237E-1,-9.877870560E0,9.881550678E0
9.313135110E-1,1.046859920E-1,-2.605185509E-1,-9.875477791E0,9.879468137E0
9.337588750E-1,9.032905847E-2,-2.629113793E-1,-9.885049820E0,9.888958068E0
9.362033020E-1,8.554340899E-2,-2.605185509E-1,-9.899406433E0,9.903203286E0
9.386470000E-1,9.750752151E-2,-2.629113793E-1,-9.880263329E0,9.884241678E0
9.410915830E-1,8.075776696E-2,-2.581257522E-1,-9.897013664E0,9.900708570E0
9.435368960E-1,9.990034252E-2,-2.581257522E-1,-9.887442589E0,9.891315885E0
9.459813230E-1,9.272187948E-2,-2.533400953E-1,-9.906584740E0,9.910257300E0
9.484250210E-1,9.990034252E-2,-2.318046987E-1,-9.897013664E0,9.900231965E0
9.508696040E-1,9.511470050E-2,-2.653042078E-1,-9.913763046E0,9.917768442E0
9.533148650E-1,8.075776696E-2,-2.629113793E-1,-9.906584740E0,9.910401880E0
9.557593440E-1,1.070788130E-1,-2.676970363E-1,-9.897013664E0,9.901212403E0
9.582030420E-1,1.046859920E-1,-2.581257522E-1,-9.906584740E0,9.910499950E0
9.606476250E-1,1.022931710E-1,-2.557329237E-1,-9.889835358E0,9.893670028E0
9.630928860E-1,9.750752151E-2,-2.581257522E-1,-9.877870560E0,9.881723707E0
9.655373650E-1,1.070788130E-1,-2.581257522E-1,-9.892228127E0,9.896174619E0
9.679810630E-1,1.142572835E-1,-2.533400953E-1,-9.897013664E0,9.900914877E0
9.704255420E-1,8.315058798E-2,-2.605185509E-1,-9.885049820E0,9.888831775E0
9.728709060E-1,9.750752151E-2,-2.581257522E-1,-9.904191971E0,9.908034882E0
9.753153330E-1,1.166501045E-1,-2.557329237E-1,-9.894620895E0,9.898612491E0
9.777590310E-1,1.046859920E-1,-2.557329237E-1,-9.894620895E0,9.898478729E0
9.802036150E-1,9.032905847E-2,-2.700898647E-1,-9.901799202E0,9.905893968E0
9.826489270E-1,8.075776696E-2,-2.509472668E-1,-9.899406433E0,9.902915938E0
9.850933540E-1,9.990034252E-2,-2.605185509E-1,-9.911370277E0,9.915296807E0
9.875370520E-1,8.554340899E-2,-2.533400953E-1,-9.904191971E0,9.907800839E0
9.899816360E-1,9.990034252E-2,-2.437688112E-1,-9.899406433E0,9.902911241E0
9.924268960E-1,1.022931710E-1,-2.581257522E-1,-9.897013664E0,9.900907649E0
9.948713750E-1,1.022931710E-1,-2.557329237E-1,-9.877870560E0,9.881709873E0
9.973150730E-1,1.070788130E-1,-2.509472668E-1,-9.901799202E0,9.905557422E0
9.997596560E-1,9.511470050E-2,-2.700898647E-1,-9.908977509E0,9.913114072E0
1.002204917E0,9.511470050E-2,-2.318046987E-1,-9.882657051E0,9.885832823E0
1.004649396E0,9.272187948E-2,-2.341975123E-1,-9.865906715E0,9.869121599E0
1.007093094E0,1.094716340E-1,-2.700898647E-1,-9.894620895E0,9.898911821E0
1.009537573E0,1.046859920E-1,-2.700898647E-1,-9.894620895E0,9.898860053E0
1.011982938E0,9.990034252E-2,-2.509472668E-1,-9.889835358E0,9.893523033E0
1.014427365E0,9.750752151E-2,-2.533400953E-1,-9.897013664E0,9.900735750E0
1.016871115E0,1.022931710E-1,-2.533400953E-1,-9.877870560E0,9.881648238E0
1.019315594E0,1.046859920E-1,-2.820539773E-1,-9.887442589E0,9.892018730E0
1.021760958E0,8.554340899E-2,-2.485544533E-1,-9.887442589E0,9.890936151E0
1.024205386E0,9.990034252E-2,-2.533400953E-1,-9.897013664E0,9.900759605E0
1.026649083E0,8.315058798E-2,-2.653042078E-1,-9.899406433E0,9.903309955E0
1.029093667E0,1.022931710E-1,-2.437688112E-1,-9.877870560E0,9.881407487E0
1.031538979E0,9.511470050E-2,-2.557329237E-1,-9.904191971E0,9.907949572E0
1.033983406E0,9.990034252E-2,-2.581257522E-1,-9.880263329E0,9.884139438E0
1.036427104E0,8.075776696E-2,-2.557329237E-1,-9.906584740E0,9.910214042E0
1.038871688E0,9.272187948E-2,-2.581257522E-1,-9.904191971E0,9.907988941E0
1.041316948E0,9.511470050E-2,-2.629113793E-1,-9.906584740E0,9.910529270E0
1.043761427E0,8.315058798E-2,-2.557329237E-1,-9.908977509E0,9.912625717E0
1.046205125E0,9.990034252E-2,-2.485544533E-1,-9.889835358E0,9.893462629E0
1.048649604E0,9.511470050E-2,-2.629113793E-1,-9.887442589E0,9.891394752E0
1.051094969E0,7.357929647E-2,-2.629113793E-1,-9.877870560E0,9.881642733E0
1.053539448E0,8.793623000E-2,-2.461616248E-1,-9.870692253E0,9.874152818E0
1.055983146E0,1.046859920E-1,-2.629113793E-1,-9.882657051E0,9.886707841E0
1.058427625E0,1.022931710E-1,-2.700898647E-1,-9.885049820E0,9.889268040E0
1.060872990E0,1.070788130E-1,-2.461616248E-1,-9.889835358E0,9.893477893E0
1.063317417E0,1.094716340E-1,-2.605185509E-1,-9.906584740E0,9.910614267E0
1.065761167E0,8.554340899E-2,-2.557329237E-1,-9.901799202E0,9.905470430E0
1.068205646E0,9.032905847E-2,-2.629113793E-1,-9.889835358E0,9.893741716E0
1.070651011E0,7.836493850E-2,-2.581257522E-1,-9.904191971E0,9.907864985E0
1.073095438E0,8.554340899E-2,-2.748754919E-1,-9.885049820E0,9.889240828E0
1.075539136E0,1.094716340E-1,-2.485544533E-1,-9.899406433E0,9.903131378E0
1.077983719E0,9.750752151E-2,-2.557329237E-1,-9.889835358E0,9.893621705E0
1.080429031E0,8.793623000E-2,-2.485544533E-1,-9.889835358E0,9.893349054E0
1.082873458E0,9.750752151E-2,-2.653042078E-1,-9.889835358E0,9.893873733E0
1.085317156E0,8.315058798E-2,-2.485544533E-1,-9.894620895E0,9.898091533E0
1.087761740E0,9.511470050E-2,-2.509472668E-1,-9.882657051E0,9.886300204E0
1.090207000E0,8.793623000E-2,-2.724826932E-1,-9.873085022E0,9.877235820E0
1.092651479E0,1.118644550E-1,-2.605185509E-1,-9.899406433E0,9.903465621E0
1.095095177E0,9.990034252E-2,-2.629113793E-1,-9.899406433E0,9.903400941E0
1.097539761E0,9.750752151E-2,-2.557329237E-1,-9.901799202E0,9.905580976E0
1.099985021E0,7.836493850E-2,-2.581257522E-1,-9.913763046E0,9.917432516E0
1.102429500E0,1.118644550E-1,-2.509472668E-1,-9.887442589E0,9.891259229E0
1.104873198E0,1.046859920E-1,-2.844468057E-1,-9.906584740E0,9.911220427E0
1.107317677E0,9.990034252E-2,-2.557329237E-1,-9.897013664E0,9.900821121E0
1.109763042E0,1.118644550E-1,-2.557329237E-1,-9.897013664E0,9.900949068E0
1.112207469E0,1.046859920E-1,-2.605185509E-1,-9.889835358E0,9.893819913E0
1.114651219E0,8.315058798E-2,-2.676970363E-1,-9.894620895E0,9.898590727E0
1.117095698E0,1.190429255E-1,-2.700898647E-1,-9.894620895E0,9.899022296E0
1.119541063E0,8.793623000E-2,-2.581257522E-1,-9.894620895E0,9.898377864E0
1.121985490E0,8.793623000E-2,-2.509472668E-1,-9.904191971E0,9.907760893E0
1.124429188E0,9.511470050E-2,-2.700898647E-1,-9.882657051E0,9.886804627E0
1.126873771E0,1.094716340E-1,-2.676970363E-1,-9.887442589E0,9.891671582E0
1.129319083E0,7.836493850E-2,-2.581257522E-1,-9.870692253E0,9.874377728E0
1.131763511E0,1.022931710E-1,-2.533400953E-1,-9.885049820E0,9.888824755E0
1.134207208E0,1.022931710E-1,-2.653042078E-1,-9.889835358E0,9.893922054E0
1.136651792E0,8.315058798E-2,-2.533400953E-1,-9.894620895E0,9.898212863E0
1.139097052E0,8.315058798E-2,-2.485544533E-1,-9.916155815E0,9.919618918E0
1.141541531E0,9.032905847E-2,-2.509472668E-1,-9.889835358E0,9.893431016E0
1.143985229E0,1.022931710E-1,-2.485544533E-1,-9.894620895E0,9.898270853E0
1.146429813E0,9.272187948E-2,-2.605185509E-1,-9.904191971E0,9.908051567E0
1.148875073E0,9.511470050E-2,-2.557329237E-1,-9.897013664E0,9.900773990E0
1.151319552E0,9.511470050E-2,-2.605185509E-1,-9.887442589E0,9.891331441E0
1.153763250E0,9.032905847E-2,-2.653042078E-1,-9.894620895E0,9.898589209E0
1.156207729E0,9.272187948E-2,-2.581257522E-1,-9.920941353E0,9.924731915E0
1.158653094E0,1.046859920E-1,-2.581257522E-1,-9.887442589E0,9.891365376E0
1.161097573E0,1.046859920E-1,-2.772683203E-1,-9.901799202E0,9.906233609E0
1.163541271E0,9.990034252E-2,-2.724826932E-1,-9.880263329E0,9.884524791E0
1.165985750E0,1.022931710E-1,-2.605185509E-1,-9.897013664E0,9.900970320E0
1.168431115E0,9.272187948E-2,-2.772683203E-1,-9.899406433E0,9.903722674E0
1.170875542E0,9.990034252E-2,-2.605185509E-1,-9.908977509E0,9.912904986E0
1.173319292E0,9.032905847E-2,-2.461616248E-1,-9.897013664E0,9.900486572E0
1.175763771E0,8.075776696E-2,-2.653042078E-1,-9.899406433E0,9.903290154E0
1.178209136E0,9.750752151E-2,-2.605185509E-1,-9.901799202E0,9.905705682E0
1.180653563E0,8.554340899E-2,-2.509472668E-1,-9.901799202E0,9.905348032E0
1.183097261E0,1.070788130E-1,-2.557329237E-1,-9.897013664E0,9.900896155E0
1.185541844E0,9.272187948E-2,-2.629113793E-1,-9.877870560E0,9.881803810E0
1.187987156E0,9.272187948E-2,-2.581257522E-1,-9.887442589E0,9.891245988E0
1.190431583E0,9.990034252E-2,-2.581257522E-1,-9.885049820E0,9.888924053E0
1.192875281E0,7.836493850E-2,-2.605185509E-1,-9.906584740E0,9.910319479E0
1.195319865E0,9.032905847E-2,-2.533400953E-1,-9.882657051E0,9.886316348E0
1.197765177E0,8.793623000E-2,-2.676970363E-1,-9.899406433E0,9.903415684E0
1.200209604E0,8.793623000E-2,-2.629113793E-1,-9.897013664E0,9.900895649E0
1.202653302E0,9.750752151E-2,-2.461616248E-1,-9.904191971E0,9.907730409E0
1.205097886E0,7.597211748E-2,-2.605185509E-1,-9.899406433E0,9.903125234E0
1.207543146E0,1.070788130E-1,-2.605185509E-1,-9.897013664E0,9.901020920E0
1.209987625E0,9.750752151E-2,-2.485544533E-1,-9.882657051E0,9.886263067E0
1.212431323E0,1.070788130E-1,-2.605185509E-1,-9.887442589E0,9.891453722E0
1.214875906E0,1.046859920E-1,-2.629113793E-1,-9.889835358E0,9.893883209E0
1.217321167E0,9.511470050E-2,-2.748754919E-1,-9.873085022E0,9.877368637E0
1.219765646E0,9.750752151E-2,-2.748754919E-1,-9.885049820E0,9.889351556E0
1.222209344E0,9.990034252E-2,-2.485544533E-1,-9.873085022E0,9.876718445E0
1.224653823E0,9.750752151E-2,-2.605185509E-1,-9.899406433E0,9.903313857E0
1.227099188E0,9.032905847E-2,-2.676970363E-1,-9.880263329E0,9.884301922E0
1.229543667E0,1.190429255E-1,-2.676970363E-1,-9.899406433E0,9.903740740E0
1.231987365E0,8.075776696E-2,-2.676970363E-1,-9.892228127E0,9.896179102E0
1.234431844E0,1.118644550E-1,-2.653042078E-1,-9.897013664E0,9.901200909E0
1.236877208E0,9.511470050E-2,-2.437688112E-1,-9.870692253E0,9.874159994E0
1.239321636E0,8.793623000E-2,-2.605185509E-1,-9.897013664E0,9.900832398E0
1.241765386E0,1.022931710E-1,-2.724826932E-1,-9.885049820E0,9.889333681E0
1.244209865E0,9.990034252E-2,-2.533400953E-1,-9.889835358E0,9.893584016E0
1.246655229E0,9.272187948E-2,-2.461616248E-1,-9.882657051E0,9.886157154E0
1.249099656E0,9.272187948E-2,-2.676970363E-1,-9.870692253E0,9.874756939E0
1.251543354E0,9.032905847E-2,-2.557329237E-1,-9.877870560E0,9.881593265E0
1.253987938E0,9.750752151E-2,-2.461616248E-1,-9.892228127E0,9.895770843E0
1.256433250E0,9.990034252E-2,-2.509472668E-1,-9.901799202E0,9.905482424E0
1.258877677E0,7.597211748E-2,-2.676970363E-1,-9.904191971E0,9.908100326E0
1.261321375E0,9.032905847E-2,-2.629113793E-1,-9.916155815E0,9.920051808E0
1.263765958E0,9.750752151E-2,-2.461616248E-1,-9.906584740E0,9.910122324E0
1.266211271E0,9.511470050E-2,-2.533400953E-1,-9.882657051E0,9.886361231E0
1.268655698E0,7.836493850E-2,-2.581257522E-1,-9.882657051E0,9.886338066E0
1.271099396E0,9.032905847E-2,-2.653042078E-1,-9.894620895E0,9.898589209E0
1.273543979E0,1.094716340E-1,-2.533400953E-1,-9.877870560E0,9.881725155E0
1.275989240E0,9.511470050E-2,-2.533400953E-1,-9.904191971E0,9.907888100E0
1.278433719E0,8.793623000E-2,-2.485544533E-1,-9.882657051E0,9.886173298E0
1.280877417E0,9.272187948E-2,-2.820539773E-1,-9.887442589E0,9.891899349E0
1.283322000E0,1.022931710E-1,-2.581257522E-1,-9.911370277E0,9.915258624E0
1.285767261E0,1.166501045E-1,-2.629113793E-1,-9.899406433E0,9.903584067E0
1.288211740E0,9.511470050E-2,-2.485544533E-1,-9.877870560E0,9.881455000E0
1.290655438E0,9.990034252E-2,-2.581257522E-1,-9.906584740E0,9.910450554E0
1.293100021E0,1.166501045E-1,-2.485544533E-1,-9.906584740E0,9.910388881E0
1.295545281E0,1.094716340E-1,-2.509472668E-1,-9.892228127E0,9.896016162E0
1.297989761E0,9.990034252E-2,-2.437688112E-1,-9.892228127E0,9.895735476E0
1.300433458E0,1.022931710E-1,-2.485544533E-1,-9.887442589E0,9.891095195E0
1.302877938E0,1.046859920E-1,-2.724826932E-1,-9.885049820E0,9.889358721E0
1.305323302E0,8.793623000E-2,-2.533400953E-1,-9.899406433E0,9.903038004E0
1.307767781E0,7.836493850E-2,-2.557329237E-1,-9.877870560E0,9.881491142E0
1.310211479E0,8.075776696E-2,-2.700898647E-1,-9.899406433E0,9.903419514E0
1.312655958E0,9.032905847E-2,-2.581257522E-1,-9.877870560E0,9.881655481E0
1.315101323E0,9.750752151E-2,-2.461616248E-1,-9.885049820E0,9.888595108E0
1.317545802E0,9.272187948E-2,-2.629113793E-1,-9.887442589E0,9.891372033E0
1.319989500E0,8.315058798E-2,-2.605185509E-1,-9.894620895E0,9.898399194E0
1.322433979E0,1.118644550E-1,-2.653042078E-1,-9.875477791E0,9.879674163E0
1.324879344E0,8.315058798E-2,-2.557329237E-1,-9.899406433E0,9.903058168E0
1.327323771E0,1.262213886E-1,-2.413759828E-1,-9.887442589E0,9.891193818E0
1.329767521E0,1.022931710E-1,-2.437688112E-1,-9.899406433E0,9.902935668E0
1.332212000E0,1.070788130E-1,-2.437688112E-1,-9.906584740E0,9.910161972E0
1.334657365E0,9.511470050E-2,-2.700898647E-1,-9.901799202E0,9.905938763E0
1.337101792E0,7.357929647E-2,-2.629113793E-1,-9.889835358E0,9.893602969E0
1.339545542E0,8.554340899E-2,-2.605185509E-1,-9.892228127E0,9.896027733E0
1.341990021E0,1.046859920E-1,-2.676970363E-1,-9.894620895E0,9.898795054E0
1.344435386E0,9.272187948E-2,-2.557329237E-1,-9.906584740E0,9.910318758E0
1.346879813E0,1.142572835E-1,-2.629113793E-1,-9.885049820E0,9.889205583E0
1.349323511E0,1.118644550E-1,-2.605185509E-1,-9.897013664E0,9.901073833E0
1.351768094E0,8.793623000E-2,-2.724826932E-1,-9.882657051E0,9.886803831E0
1.354213406E0,1.046859920E-1,-2.605185509E-1,-9.880263329E0,9.884251743E0
1.356657833E0,1.070788130E-1,-2.437688112E-1,-9.892228127E0,9.895810549E0
1.359101531E0,1.022931710E-1,-2.581257522E-1,-9.870692253E0,9.874596617E0
1.361546115E0,7.597211748E-2,-2.437688112E-1,-9.899406433E0,9.902698760E0
1.363991427E0,9.511470050E-2,-2.748754919E-1,-9.863513947E0,9.867801716E0
1.366435854E0,9.272187948E-2,-2.557329237E-1,-9.889835358E0,9.893575697E0
1.368879552E0,8.793623000E-2,-2.485544533E-1,-9.894620895E0,9.898132893E0
1.371324136E0,9.990034252E-2,-2.629113793E-1,-9.868299484E0,9.872306579E0
1.373769448E0,9.990034252E-2,-2.485544533E-1,-9.885049820E0,9.888678847E0
1.376213875E0,8.554340899E-2,-2.485544533E-1,-9.913763046E0,9.917247336E0
1.378657573E0,9.032905847E-2,-2.772683203E-1,-9.904191971E0,9.908484024E0
1.381102156E0,9.750752151E-2,-2.724826932E-1,-9.911370277E0,9.915594552E0
1.383547469E0,8.075776696E-2,-2.605185509E-1,-9.885049820E0,9.888811945E0
1.385991896E0,9.990034252E-2,-2.533400953E-1,-9.870692253E0,9.874448179E0
1.388435594E0,9.032905847E-2,-2.724826932E-1,-9.894620895E0,9.898784209E0
1.390880177E0,1.046859920E-1,-2.605185509E-1,-9.901799202E0,9.905778945E0
1.393325438E0,9.511470050E-2,-2.676970363E-1,-9.887442589E0,9.891523111E0
1.395769917E0,7.836493850E-2,-2.653042078E-1,-9.899406433E0,9.903270930E0
1.398213615E0,8.554340899E-2,-2.437688112E-1,-9.916155815E0,9.919520505E0
1.400658198E0,9.750752151E-2,-2.557329237E-1,-9.908977509E0,9.912756544E0
1.403103458E0,9.990034252E-2,-2.461616248E-1,-9.882657051E0,9.886227087E0
1.405547938E0,1.070788130E-1,-2.557329237E-1,-9.880263329E0,9.884152399E0
1.407991636E0,9.990034252E-2,-2.581257522E-1,-9.892228127E0,9.896099549E0
1.410436219E0,1.070788130E-1,-2.509472668E-1,-9.899406433E0,9.903165561E0
1.412881479E0,1.070788130E-1,-2.605185509E-1,-9.892228127E0,9.896237320E0
1.415325958E0,9.272187948E-2,-2.461616248E-1,-9.901799202E0,9.905292541E0
1.417769656E0,9.990034252E-2,-2.629113793E-1,-9.882657051E0,9.886658326E0
1.420214240E0,8.075776696E-2,-2.629113793E-1,-9.885049820E0,9.888875272E0
1.422659500E0,9.032905847E-2,-2.629113793E-1,-9.887442589E0,9.891349892E0
1.425103979E0,7.836493850E-2,-2.700898647E-1,-9.904191971E0,9.908183900E0
1.427547677E0,1.118644550E-1,-2.605185509E-1,-9.889835358E0,9.893898472E0
1.429992156E0,9.511470050E-2,-2.581257522E-1,-9.882657051E0,9.886485022E0
1.432437521E0,8.554340899E-2,-2.557329237E-1,-9.904191971E0,9.907862312E0
1.434882000E0,1.094716340E-1,-2.629113793E-1,-9.887442589E0,9.891543225E0
1.437325698E0,9.990034252E-2,-2.485544533E-1,-9.882657051E0,9.886286956E0
1.439770177E0,1.046859920E-1,-2.485544533E-1,-9.897013664E0,9.900687751E0
1.442215542E0,9.990034252E-2,-2.820539773E-1,-9.885049820E0,9.889577568E0
1.444660021E0,9.272187948E-2,-2.605185509E-1,-9.875477791E0,9.879348605E0
1.447103719E0,9.990034252E-2,-2.629113793E-1,-9.880263329E0,9.884265573E0
1.449548198E0,9.750752151E-2,-2.605185509E-1,-9.875477791E0,9.879394679E0
1.451993563E0,9.750752151E-2,-2.485544533E-1,-9.885049820E0,9.888654963E0
1.454438042E0,1.190429255E-1,-2.676970363E-1,-9.904191971E0,9.908524185E0
1.456881740E0,9.750752151E-2,-2.676970363E-1,-9.889835358E0,9.893938186E0
1.459326219E0,8.554340899E-2,-2.533400953E-1,-9.894620895E0,9.898233254E0
1.461771583E0,9.750752151E-2,-2.724826932E-1,-9.868299484E0,9.872542188E0
1.464216063E0,1.046859920E-1,-2.676970363E-1,-9.880263329E0,9.884443550E0
1.466659761E0,1.046859920E-1,-2.533400953E-1,-9.899406433E0,9.903200901E0
1.469104240E0,8.554340899E-2,-2.557329237E-1,-9.870692253E0,9.874375046E0
1.471549604E0,9.032905847E-2,-2.461616248E-1,-9.887442589E0,9.890918857E0
1.473994083E0,9.032905847E-2,-2.700898647E-1,-9.868299484E0,9.872408145E0
1.476437781E0,9.272187948E-2,-2.605185509E-1,-9.877870560E0,9.881740437E0
1.478882261E0,8.793623000E-2,-2.437688112E-1,-9.873085022E0,9.876485400E0
1.481327625E0,7.836493850E-2,-2.653042078E-1,-9.887442589E0,9.891311760E0
1.483772052E0,9.032905847E-2,-2.629113793E-1,-9.899406433E0,9.903309016E0
1.486215802E0,7.836493850E-2,-2.653042078E-1,-9.887442589E0,9.891311760E0
1.488660281E0,9.750752151E-2,-2.533400953E-1,-9.885049820E0,9.888776409E0
1.491105646E0,9.511470050E-2,-2.676970363E-1,-9.885049820E0,9.889131330E0
1.493550073E0,1.094716340E-1,-2.461616248E-1,-9.880263329E0,9.883935604E0
1.495993823E0,9.272187948E-2,-2.318046987E-1,-9.875477791E0,9.878633122E0
1.498438302E0,8.315058798E-2,-2.605185509E-1,-9.899406433E0,9.903182906E0
1.500883667E0,9.511470050E-2,-2.485544533E-1,-9.880263329E0,9.883846901E0
1.503328094E0,9.750752151E-2,-2.533400953E-1,-9.894620895E0,9.898343881E0
1.505771844E0,1.070788130E-1,-2.605185509E-1,-9.889835358E0,9.893845521E0
1.508216323E0,9.750752151E-2,-2.605185509E-1,-9.892228127E0,9.896138385E0
1.510661688E0,8.554340899E-2,-2.772683203E-1,-9.875477791E0,9.879739723E0
1.513106115E0,9.750752151E-2,-2.413759828E-1,-9.885049820E0,9.888477134E0
1.515549865E0,1.094716340E-1,-2.437688112E-1,-9.908977509E0,9.912580014E0
1.517994344E0,1.118644550E-1,-2.581257522E-1,-9.908977509E0,9.912970182E0
1.520439708E0,8.315058798E-2,-2.437688112E-1,-9.885049820E0,9.888404684E0
1.522884136E0,9.750752151E-2,-2.581257522E-1,-9.868299484E0,9.872156367E0
1.525327886E0,9.511470050E-2,-2.341975123E-1,-9.870692253E0,9.873928339E0
1.527772365E0,9.990034252E-2,-2.700898647E-1,-9.875477791E0,9.879675613E0
1.530217729E0,9.750752151E-2,-2.676970363E-1,-9.877870560E0,9.881978355E0
1.532662156E0,9.032905847E-2,-2.461616248E-1,-9.877870560E0,9.881350195E0
1.535105906E0,1.142572835E-1,-2.724826932E-1,-9.882657051E0,9.887072971E0
1.537550386E0,1.070788130E-1,-2.485544533E-1,-9.870692253E0,9.874401792E0
1.539995750E0,9.990034252E-2,-2.605185509E-1,-9.887442589E0,9.891378617E0
1.542440177E0,9.750752151E-2,-2.653042078E-1,-9.892228127E0,9.896265525E0
1.544883927E0,9.272187948E-2,-2.533400953E-1,-9.877870560E0,9.881553792E0
1.547328406E0,9.032905847E-2,-2.676970363E-1,-9.870692253E0,9.874734761E0
1.549773771E0,9.032905847E-2,-2.413759828E-1,-9.885049820E0,9.888408954E0
1.552218198E0,9.750752151E-2,-2.557329237E-1,-9.885049820E0,9.888838000E0
1.554661948E0,1.046859920E-1,-2.605185509E-1,-9.880263329E0,9.884251743E0
1.557106427E0,9.990034252E-2,-2.629113793E-1,-9.870692253E0,9.874698377E0
1.559551792E0,9.750752151E-2,-2.605185509E-1,-9.877870560E0,9.881786500E0
1.561996219E0,9.750752151E-2,-2.653042078E-1,-9.875477791E0,9.879522035E0
1.564439969E0,9.032905847E-2,-2.509472668E-1,-9.911370277E0,9.914958126E0
1.566884448E0,8.075776696E-2,-2.700898647E-1,-9.873085022E0,9.877108798E0
1.569329813E0,1.046859920E-1,-2.724826932E-1,-9.861121178E0,9.865440530E0
1.571774240E0,9.272187948E-2,-2.676970363E-1,-9.899406433E0,9.903459334E0
1.574217938E0,1.118644550E-1,-2.581257522E-1,-9.901799202E0,9.905794769E0
1.576662521E0,1.214357466E-1,-2.605185509E-1,-9.856335640E0,9.860525787E0
1.579107833E0,8.315058798E-2,-2.461616248E-1,-9.882657051E0,9.886072019E0
1.581552261E0,9.511470050E-2,-2.557329237E-1,-9.875477791E0,9.879246314E0
1.583996011E0,9.750752151E-2,-2.581257522E-1,-9.885049820E0,9.888900170E0
1.586440490E0,8.554340899E-2,-2.509472668E-1,-9.887442589E0,9.890996570E0
1.588885854E0,9.272187948E-2,-2.533400953E-1,-9.880263329E0,9.883945669E0
1.591330281E0,8.793623000E-2,-2.653042078E-1,-9.887442589E0,9.891392220E0
1.593774031E0,8.793623000E-2,-2.653042078E-1,-9.873085022E0,9.877040394E0
1.596218511E0,8.315058798E-2,-2.413759828E-1,-9.880263329E0,9.883561090E0
1.598663875E0,8.793623000E-2,-2.629113793E-1,-9.894620895E0,9.898503818E0
1.601108302E0,9.990034252E-2,-2.485544533E-1,-9.899406433E0,9.903030199E0
1.603552052E0,7.836493850E-2,-2.653042078E-1,-9.868299484E0,9.872176158E0
1.605996531E0,9.032905847E-2,-2.629113793E-1,-9.897013664E0,9.900917190E0
1.608441896E0,1.022931710E-1,-2.557329237E-1,-9.880263329E0,9.884101712E0
1.610886323E0,8.315058798E-2,-2.629113793E-1,-9.880263329E0,9.884110474E0
1.613330021E0,7.357929647E-2,-2.557329237E-1,-9.861121178E0,9.864711051E0
1.615774604E0,8.315058798E-2,-2.581257522E-1,-9.868299484E0,9.872025002E0
1.618219917E0,9.990034252E-2,-2.748754919E-1,-9.875477791E0,9.879807600E0
1.620664344E0,9.272187948E-2,-2.605185509E-1,-9.897013664E0,9.900876059E0
1.623108094E0,9.032905847E-2,-2.581257522E-1,-9.882657051E0,9.886440140E0
1.625552573E0,8.554340899E-2,-2.605185509E-1,-9.882657051E0,9.886460336E0
1.627997938E0,6.161518395E-2,-2.509472668E-1,-9.880263329E0,9.883641758E0
1.630442365E0,9.990034252E-2,-2.676970363E-1,-9.877870560E0,9.882002255E0
1.632886115E0,9.990034252E-2,-2.676970363E-1,-9.875477791E0,9.879610487E0
1.635330594E0,9.032905847E-2,-2.581257522E-1,-9.899406433E0,9.903183123E0
1.637775958E0,9.990034252E-2,-2.413759828E-1,-9.882657051E0,9.886109085E0
1.640220386E0,1.022931710E-1,-2.605185509E-1,-9.880263329E0,9.884226690E0
1.642664136E0,1.070788130E-1,-2.629113793E-1,-9.877870560E0,9.881948950E0
1.645108615E0,1.022931710E-1,-2.485544533E-1,-9.853942871E0,9.857607890E0
1.647553979E0,9.272187948E-2,-2.557329237E-1,-9.868299484E0,9.872047983E0
1.649998406E0,1.166501045E-1,-2.533400953E-1,-9.885049820E0,9.888983689E0
1.652442156E0,9.750752151E-2,-2.557329237E-1,-9.877870560E0,9.881661492E0
1.654886636E0,9.272187948E-2,-2.509472668E-1,-9.865906715E0,9.869533281E0
1.657332000E0,8.793623000E-2,-2.581257522E-1,-9.868299484E0,9.872066470E0
1.659776427E0,9.511470050E-2,-2.581257522E-1,-9.875477791E0,9.879308544E0
1.662220177E0,9.272187948E-2,-2.509472668E-1,-9.863513947E0,9.867141392E0
1.664664656E0,1.046859920E-1,-2.533400953E-1,-9.882657051E0,9.886457948E0
1.667110021E0,9.990034252E-2,-2.533400953E-1,-9.894620895E0,9.898367741E0
1.669554448E0,8.315058798E-2,-2.509472668E-1,-9.882657051E0,9.886192338E0
1.671998198E0,8.554340899E-2,-2.533400953E-1,-9.877870560E0,9.881489041E0
1.674442677E0,9.990034252E-2,-2.581257522E-1,-9.877870560E0,9.881747607E0
1.676888042E0,9.750752151E-2,-2.605185509E-1,-9.868299484E0,9.872219221E0
1.679332469E0,1.142572835E-1,-2.533400953E-1,-9.875477791E0,9.879387508E0
1.681776219E0,1.070788130E-1,-2.461616248E-1,-9.880263329E0,9.883909391E0
1.684220698E0,1.046859920E-1,-2.748754919E-1,-9.885049820E0,9.889424940E0
1.686666063E0,1.070788130E-1,-2.581257522E-1,-9.875477791E0,9.879430974E0
1.689110490E0,9.750752151E-2,-2.341975123E-1,-9.875477791E0,9.878735637E0
1.691554240E0,9.990034252E-2,-2.629113793E-1,-9.873085022E0,9.877090175E0
1.693998719E0,9.990034252E-2,-2.509472668E-1,-9.873085022E0,9.876778952E0
1.696444083E0,9.032905847E-2,-2.533400953E-1,-9.863513947E0,9.867180343E0
1.698888511E0,9.990034252E-2,-2.653042078E-1,-9.877870560E0,9.881937725E0
1.701332261E0,9.990034252E-2,-2.533400953E-1,-9.875477791E0,9.879231897E0
1.703776740E0,1.022931710E-1,-2.557329237E-1,-9.865906715E0,9.869750683E0
1.706222104E0,7.597211748E-2,-2.461616248E-1,-9.880263329E0,9.883621338E0
1.708666583E0,8.554340899E-2,-2.629113793E-1,-9.887442589E0,9.891307346E0
1.711110281E0,9.272187948E-2,-2.605185509E-1,-9.892228127E0,9.896092389E0
1.713554761E0,8.075776696E-2,-2.605185509E-1,-9.887442589E0,9.891203803E0
1.716000125E0,9.032905847E-2,-2.557329237E-1,-9.877870560E0,9.881593265E0
1.718444604E0,9.272187948E-2,-2.533400953E-1,-9.885049820E0,9.888730378E0
1.720888302E0,8.793623000E-2,-2.653042078E-1,-9.875477791E0,9.879432205E0
1.723332781E0,9.990034252E-2,-2.724826932E-1,-9.892228127E0,9.896484437E0
1.725778146E0,1.070788130E-1,-2.724826932E-1,-9.877870560E0,9.882208229E0
1.728222625E0,1.022931710E-1,-2.629113793E-1,-9.882657051E0,9.886682794E0
1.730666323E0,1.118644550E-1,-2.676970363E-1,-9.887442589E0,9.891698353E0
1.733110802E0,8.793623000E-2,-2.485544533E-1,-9.885049820E0,9.888565216E0
1.735556167E0,9.272187948E-2,-2.461616248E-1,-9.870692253E0,9.874196598E0
1.738000646E0,8.315058798E-2,-2.605185509E-1,-9.868299484E0,9.872087857E0
1.740444344E0,1.046859920E-1,-2.509472668E-1,-9.877870560E0,9.881612241E0
1.742888823E0,9.750752151E-2,-2.581257522E-1,-9.906584740E0,9.910426723E0
1.745334188E0,8.793623000E-2,-2.653042078E-1,-9.889835358E0,9.893784034E0
1.747778667E0,9.511470050E-2,-2.389831543E-1,-9.887442589E0,9.890787668E0
1.750222365E0,8.793623000E-2,-2.365903407E-1,-9.873085022E0,9.876310831E0
1.752666844E0,9.511470050E-2,-2.389831543E-1,-9.875477791E0,9.878826922E0
1.755112208E0,8.793623000E-2,-2.581257522E-1,-9.899406433E0,9.903161587E0
1.757556688E0,9.750752151E-2,-2.629113793E-1,-9.877870560E0,9.881849873E0
1.760000386E0,1.118644550E-1,-2.485544533E-1,-9.894620895E0,9.898374394E0
1.762444865E0,8.315058798E-2,-2.557329237E-1,-9.877870560E0,9.881530253E0
1.764890229E0,9.272187948E-2,-2.509472668E-1,-9.865906715E0,9.869533281E0
1.767334708E0,1.070788130E-1,-2.509472668E-1,-9.870692253E0,9.874462312E0
1.769778406E0,9.750752151E-2,-2.629113793E-1,-9.875477791E0,9.879458067E0
1.772222886E0,8.793623000E-2,-2.581257522E-1,-9.868299484E0,9.872066470E0
1.774668250E0,8.315058798E-2,-2.485544533E-1,-9.873085022E0,9.876563228E0
1.777112729E0,9.032905847E-2,-2.676970363E-1,-9.875477791E0,9.879518340E0
1.779556427E0,8.554340899E-2,-2.581257522E-1,-9.870692253E0,9.874437307E0
1.782001011E0,1.094716340E-1,-2.676970363E-1,-9.880263329E0,9.884495393E0
1.784446271E0,1.094716340E-1,-2.485544533E-1,-9.870692253E0,9.874428030E0
1.786890750E0,1.046859920E-1,-2.557329237E-1,-9.839586258E0,9.843465661E0
1.789334448E0,9.750752151E-2,-2.509472668E-1,-9.870692253E0,9.874363159E0
1.791779031E0,9.511470050E-2,-2.509472668E-1,-9.885049820E0,9.888692091E0
1.794224292E0,8.793623000E-2,-2.485544533E-1,-9.901799202E0,9.905308654E0
1.796668771E0,8.793623000E-2,-2.581257522E-1,-9.873085022E0,9.876850183E0
1.799112469E0,9.750752151E-2,-2.437688112E-1,-9.875477791E0,9.878967180E0
1.801557052E0,8.075776696E-2,-2.605185509E-1,-9.882657051E0,9.886420086E0
1.804002313E0,7.836493850E-2,-2.557329237E-1,-9.877870560E0,9.881491142E0
1.806446792E0,9.032905847E-2,-2.485544533E-1,-9.880263329E0,9.883802006E0
1.808890490E0,7.836493850E-2,-2.557329237E-1,-9.882657051E0,9.886275880E0
1.811335073E0,9.511470050E-2,-2.700898647E-1,-9.851550102E0,9.855710769E0
1.813780333E0,7.357929647E-2,-2.629113793E-1,-9.882657051E0,9.886427398E0
1.816224813E0,8.075776696E-2,-2.341975123E-1,-9.861121178E0,9.864232417E0
1.818668511E0,9.272187948E-2,-2.557329237E-1,-9.882657051E0,9.886400106E0
1.821113094E0,8.793623000E-2,-2.318046987E-1,-9.885049820E0,9.888158380E0
1.823558406E0,1.142572835E-1,-2.461616248E-1,-9.863513947E0,9.867246710E0
1.826002833E0,1.022931710E-1,-2.341975123E-1,-9.882657051E0,9.885960892E0
1.828446531E0,9.032905847E-2,-2.605185509E-1,-9.882657051E0,9.886502903E0
1.830891115E0,1.070788130E-1,-2.700898647E-1,-9.892228127E0,9.896493910E0
1.833336427E0,9.990034252E-2,-2.653042078E-1,-9.858728409E0,9.862803468E0
1.835780854E0,1.022931710E-1,-2.700898647E-1,-9.875477791E0,9.879700098E0
1.838224552E0,9.990034252E-2,-2.461616248E-1,-9.863513947E0,9.867090909E0
1.840669136E0,8.315058798E-2,-2.437688112E-1,-9.870692253E0,9.874051995E0
1.843114448E0,7.118647546E-2,-2.700898647E-1,-9.882657051E0,9.886603382E0
1.845558875E0,9.990034252E-2,-2.389831543E-1,-9.875477791E0,9.878874158E0
1.848002573E0,9.750752151E-2,-2.509472668E-1,-9.877870560E0,9.881538799E0
1.850447156E0,9.032905847E-2,-2.485544533E-1,-9.861121178E0,9.864666722E0
1.852892469E0,9.032905847E-2,-2.557329237E-1,-9.882657051E0,9.886377954E0
1.855336896E0,1.166501045E-1,-2.533400953E-1,-9.858728409E0,9.862672776E0
1.857780594E0,1.046859920E-1,-2.485544533E-1,-9.856335640E0,9.860024884E0
1.860225177E0,9.272187948E-2,-2.605185509E-1,-9.880263329E0,9.884132269E0
1.862670490E0,9.272187948E-2,-2.509472668E-1,-9.870692253E0,9.874317062E0
1.865114917E0,9.990034252E-2,-2.461616248E-1,-9.885049820E0,9.888618992E0
1.867558615E0,1.046859920E-1,-2.437688112E-1,-9.868299484E0,9.871864925E0
1.870003198E0,9.750752151E-2,-2.533400953E-1,-9.875477791E0,9.879207990E0
1.872448511E0,9.272187948E-2,-2.461616248E-1,-9.870692253E0,9.874196598E0
1.874892938E0,9.272187948E-2,-2.676970363E-1,-9.868299484E0,9.872365155E0
1.877336688E0,1.022931710E-1,-2.533400953E-1,-9.889835358E0,9.893608467E0
1.879781167E0,7.597211748E-2,-2.389831543E-1,-9.880263329E0,9.883445156E0
1.882226531E0,8.793623000E-2,-2.557329237E-1,-9.861121178E0,9.864828584E0
1.884670958E0,9.990034252E-2,-2.413759828E-1,-9.865906715E0,9.869364608E0
1.887114708E0,9.272187948E-2,-2.581257522E-1,-9.868299484E0,9.872110259E0
1.889559188E0,9.032905847E-2,-2.676970363E-1,-9.861121178E0,9.865167607E0
1.892004552E0,8.554340899E-2,-2.581257522E-1,-9.880263329E0,9.884004756E0
1.894448979E0,8.315058798E-2,-2.485544533E-1,-9.868299484E0,9.871779376E0
1.896892729E0,1.022931710E-1,-2.533400953E-1,-9.882657051E0,9.886432900E0
1.899337208E0,8.793623000E-2,-2.533400953E-1,-9.894620895E0,9.898254222E0
1.901782573E0,9.272187948E-2,-2.653042078E-1,-9.865906715E0,9.869908763E0
1.904227052E0,1.070788130E-1,-2.461616248E-1,-9.870692253E0,9.874341850E0
1.906670750E0,9.750752151E-2,-2.605185509E-1,-9.863513947E0,9.867435584E0
1.909115229E0,1.046859920E-1,-2.509472668E-1,-9.865906715E0,9.869652932E0
1.911560594E0,8.554340899E-2,-2.485544533E-1,-9.880263329E0,9.883759428E0
1.914005073E0,1.166501045E-1,-2.413759828E-1,-9.865906715E0,9.869548365E0
1.916448771E0,1.214357466E-1,-2.629113793E-1,-9.873085022E0,9.877331466E0
1.918893250E0,1.046859920E-1,-2.700898647E-1,-9.870692253E0,9.874941683E0
1.921338615E0,9.272187948E-2,-2.653042078E-1,-9.865906715E0,9.869908763E0
1.923783094E0,9.032905847E-2,-2.365903407E-1,-9.865906715E0,9.869156481E0
1.926226792E0,8.075776696E-2,-2.557329237E-1,-9.858728409E0,9.862375322E0
1.928671271E0,1.022931710E-1,-2.653042078E-1,-9.877870560E0,9.881962204E0
1.931116636E0,8.793623000E-2,-2.533400953E-1,-9.868299484E0,9.871942499E0
1.933561115E0,8.554340899E-2,-2.700898647E-1,-9.851550102E0,9.855623046E0
1.936004813E0,1.118644550E-1,-2.389831543E-1,-9.887442589E0,9.890962923E0
1.938449396E0,1.046859920E-1,-2.413759828E-1,-9.889835358E0,9.893334368E0
1.940894656E0,8.793623000E-2,-2.557329237E-1,-9.870692253E0,9.874396066E0
1.943339136E0,8.793623000E-2,-2.509472668E-1,-9.868299484E0,9.871881382E0
1.945782833E0,9.750752151E-2,-2.557329237E-1,-9.873085022E0,9.876877791E0
1.948227417E0,1.238285750E-1,-2.533400953E-1,-9.858728409E0,9.862760291E0
1.950672677E0,9.750752151E-2,-2.581257522E-1,-9.868299484E0,9.872156367E0
1.953117156E0,1.070788130E-1,-2.581257522E-1,-9.880263329E0,9.884214598E0
1.955560854E0,9.990034252E-2,-2.461616248E-1,-9.877870560E0,9.881442325E0
1.958005438E0,8.075776696E-2,-2.461616248E-1,-9.873085022E0,9.876483444E0
1.960450698E0,9.511470050E-2,-2.581257522E-1,-9.887442589E0,9.891268708E0
1.962895177E0,1.046859920E-1,-2.629113793E-1,-9.861121178E0,9.865180811E0
1.965338875E0,1.046859920E-1,-2.509472668E-1,-9.880263329E0,9.884004104E0
1.967783458E0,9.511470050E-2,-2.461616248E-1,-9.873085022E0,9.876611271E0
1.970228771E0,8.075776696E-2,-2.437688112E-1,-9.863513947E0,9.866856258E0
1.972673198E0,8.315058798E-2,-2.533400953E-1,-9.875477791E0,9.879076719E0
1.975116896E0,1.046859920E-1,-2.509472668E-1,-9.899406433E0,9.903139978E0
1.977561479E0,8.793623000E-2,-2.485544533E-1,-9.877870560E0,9.881388510E0
1.980006792E0,8.075776696E-2,-2.581257522E-1,-9.868299484E0,9.872005137E0
1.982451219E0,9.990034252E-2,-2.605185509E-1,-9.882657051E0,9.886594984E0
1.984894917E0,8.315058798E-2,-2.605185509E-1,-9.849157333E0,9.852953066E0
1.987339500E0,9.272187948E-2,-2.676970363E-1,-9.877870560E0,9.881932293E0
1.989784813E0,9.511470050E-2,-2.629113793E-1,-9.870692253E0,9.874651121E0
1.992229240E0,9.511470050E-2,-2.581257522E-1,-9.858728409E0,9.862565668E0
1.994672938E0,9.511470050E-2,-2.461616248E-1,-9.877870560E0,9.881395101E0
1.997117521E0,1.238285750E-1,-2.533400953E-1,-9.887442589E0,9.891462767E0
1.999562833E0,9.750752151E-2,-2.509472668E-1,-9.870692253E0,9.874363159E0
2.002007261E0,7.836493850E-2,-2.318046987E-1,-9.882657051E0,9.885685857E0
2.004451011E0,1.094716340E-1,-2.461616248E-1,-9.894620895E0,9.898287844E0
2.006895490E0,9.272187948E-2,-2.676970363E-1,-9.856335640E0,9.860406244E0
2.009340854E0,9.032905847E-2,-2.653042078E-1,-9.873085022E0,9.877061988E0
2.011785281E0,1.046859920E-1,-2.581257522E-1,-9.875477791E0,9.879405329E0
2.014229031E0,1.046859920E-1,-2.581257522E-1,-9.880263329E0,9.884188965E0
2.016673511E0,9.750752151E-2,-2.653042078E-1,-9.885049820E0,9.889090149E0
2.019118875E0,9.511470050E-2,-2.581257522E-1,-9.868299484E0,9.872133023E0
2.021563354E0,1.118644550E-1,-2.581257522E-1,-9.870692253E0,9.874700406E0
2.024007052E0,1.022931710E-1,-2.700898647E-1,-9.875477791E0,9.879700098E0
2.026451531E0,9.750752151E-2,-2.461616248E-1,-9.858728409E0,9.862283159E0
2.028896896E0,8.075776696E-2,-2.557329237E-1,-9.870692253E0,9.874334747E0
2.031341375E0,1.070788130E-1,-2.557329237E-1,-9.853942871E0,9.857842325E0
2.033785073E0,8.554340899E-2,-2.533400953E-1,-9.863513947E0,9.867137693E0
2.036229552E0,9.032905847E-2,-2.413759828E-1,-9.877870560E0,9.881232135E0
2.038674917E0,1.070788130E-1,-2.437688112E-1,-9.875477791E0,9.879066287E0
2.041119396E0,9.750752151E-2,-2.461616248E-1,-9.870692253E0,9.874242696E0
2.043563094E0,1.046859920E-1,-2.509472668E-1,-9.873085022E0,9.876828516E0
2.046007573E0,9.272187948E-2,-2.461616248E-1,-9.861121178E0,9.864628922E0
2.048452938E0,9.511470050E-2,-2.700898647E-1,-9.873085022E0,9.877236617E0
2.050897417E0,8.793623000E-2,-2.533400953E-1,-9.868299484E0,9.871942499E0
2.053341115E0,9.511470050E-2,-2.629113793E-1,-9.880263329E0,9.884218363E0
2.055785698E0,9.511470050E-2,-2.509472668E-1,-9.887442589E0,9.891083979E0
2.058230958E0,1.022931710E-1,-2.533400953E-1,-9.873085022E0,9.876864530E0
2.060675438E0,8.793623000E-2,-2.653042078E-1,-9.875477791E0,9.879432205E0
2.063119136E0,1.070788130E-1,-2.509472668E-1,-9.865906715E0,9.869678603E0
2.065563719E0,9.750752151E-2,-2.461616248E-1,-9.865906715E0,9.869458880E0
2.068008979E0,8.315058798E-2,-2.485544533E-1,-9.856335640E0,9.859819754E0
2.070453458E0,9.511470050E-2,-2.557329237E-1,-9.863513947E0,9.867287039E0
2.072897156E0,7.836493850E-2,-2.557329237E-1,-9.870692253E0,9.874315467E0
2.075341740E0,8.793623000E-2,-2.485544533E-1,-9.877870560E0,9.881388510E0
2.077787052E0,8.075776696E-2,-2.676970363E-1,-9.863513947E0,9.867476420E0
2.080231479E0,1.094716340E-1,-2.724826932E-1,-9.873085022E0,9.877451023E0
2.082675177E0,1.070788130E-1,-2.653042078E-1,-9.870692253E0,9.874837606E0
2.085119761E0,8.315058798E-2,-2.389831543E-1,-9.873085022E0,9.876326990E0
2.087565073E0,9.511470050E-2,-2.676970363E-1,-9.882657051E0,9.886739548E0
2.090009500E0,1.022931710E-1,-2.509472668E-1,-9.858728409E0,9.862452244E0
2.092453198E0,1.022931710E-1,-2.437688112E-1,-9.856335640E0,9.859880292E0
2.094897781E0,9.750752151E-2,-2.748754919E-1,-9.880263329E0,9.884567148E0
2.097343094E0,1.166501045E-1,-2.557329237E-1,-9.873085022E0,9.877085320E0
2.099787521E0,9.750752151E-2,-2.748754919E-1,-9.863513947E0,9.867825071E0
2.102231219E0,8.554340899E-2,-2.485544533E-1,-9.885049820E0,9.888544227E0
2.104675802E0,9.511470050E-2,-2.509472668E-1,-9.856335640E0,9.859988518E0
2.107121115E0,1.046859920E-1,-2.485544533E-1,-9.863513947E0,9.867200507E0
2.109565542E0,8.554340899E-2,-2.485544533E-1,-9.877870560E0,9.881367506E0
2.112009240E0,8.315058798E-2,-2.605185509E-1,-9.868299484E0,9.872087857E0
2.114453823E0,9.272187948E-2,-2.437688112E-1,-9.863513947E0,9.866961435E0
2.116899136E0,9.032905847E-2,-2.365903407E-1,-9.849157333E0,9.852412624E0
2.119343563E0,8.793623000E-2,-2.676970363E-1,-9.865906715E0,9.869929574E0
2.121787313E0,9.032905847E-2,-2.533400953E-1,-9.873085022E0,9.876747865E0
2.124231792E0,9.990034252E-2,-2.557329237E-1,-9.865906715E0,9.869726173E0
2.126677156E0,7.597211748E-2,-2.605185509E-1,-9.882657051E0,9.886382153E0
2.129121583E0,9.750752151E-2,-2.557329237E-1,-9.880263329E0,9.884053343E0
2.131565333E0,9.032905847E-2,-2.485544533E-1,-9.865906715E0,9.869450541E0
2.134009813E0,9.990034252E-2,-2.389831543E-1,-9.856335640E0,9.859738601E0
2.136455177E0,1.070788130E-1,-2.461616248E-1,-9.856335640E0,9.859990551E0
2.138899656E0,9.511470050E-2,-2.509472668E-1,-9.892228127E0,9.895867756E0
2.141343354E0,8.793623000E-2,-2.461616248E-1,-9.885049820E0,9.888505361E0
2.143787833E0,9.032905847E-2,-2.605185509E-1,-9.880263329E0,9.884110111E0
2.146233198E0,9.032905847E-2,-2.533400953E-1,-9.870692253E0,9.874355984E0
2.148677677E0,8.793623000E-2,-2.485544533E-1,-9.846764565E0,9.850293624E0
2.151121375E0,9.990034252E-2,-2.557329237E-1,-9.858728409E0,9.862550646E0
2.153565854E0,1.118644550E-1,-2.676970363E-1,-9.865906715E0,9.870171765E0
2.156011219E0,1.022931710E-1,-2.700898647E-1,-9.865906715E0,9.870133117E0
2.158455698E0,8.315058798E-2,-2.533400953E-1,-9.882657051E0,9.886253366E0
2.160899396E0,9.511470050E-2,-2.485544533E-1,-9.863513947E0,9.867103602E0
2.163343979E0,9.032905847E-2,-2.653042078E-1,-9.873085022E0,9.877061988E0
2.165789240E0,9.990034252E-2,-2.509472668E-1,-9.858728409E0,9.862427716E0
2.168233719E0,1.118644550E-1,-2.605185509E-1,-9.875477791E0,9.879546810E0
2.170677417E0,9.990034252E-2,-2.557329237E-1,-9.868299484E0,9.872118016E0
2.173122000E0,8.554340899E-2,-2.509472668E-1,-9.875477791E0,9.879036077E0
2.175567261E0,9.032905847E-2,-2.629113793E-1,-9.865906715E0,9.869822544E0
2.178011740E0,9.750752151E-2,-2.653042078E-1,-9.858728409E0,9.862779521E0
2.180455438E0,1.190429255E-1,-2.605185509E-1,-9.875477791E0,9.879630698E0
2.182900021E0,7.597211748E-2,-2.605185509E-1,-9.877870560E0,9.881597466E0
2.185345281E0,1.238285750E-1,-2.509472668E-1,-9.865906715E0,9.869874536E0
2.187789761E0,9.511470050E-2,-2.581257522E-1,-9.863513947E0,9.867349344E0
2.190233458E0,9.750752151E-2,-2.629113793E-1,-9.873085022E0,9.877066263E0
2.192678042E0,9.511470050E-2,-2.700898647E-1,-9.870692253E0,9.874844854E0
2.195123354E0,9.272187948E-2,-2.461616248E-1,-9.880263329E0,9.883764280E0
2.197567781E0,8.315058798E-2,-2.724826932E-1,-9.868299484E0,9.872410828E0
2.200011479E0,8.315058798E-2,-2.605185509E-1,-9.863513947E0,9.867304156E0
2.202456063E0,9.032905847E-2,-2.557329237E-1,-9.853942871E0,9.857674613E0
2.204901375E0,9.272187948E-2,-2.653042078E-1,-9.861121178E0,9.865125166E0
2.207345802E0,9.990034252E-2,-2.509472668E-1,-9.856335640E0,9.860035845E0
2.209789500E0,8.075776696E-2,-2.629113793E-1,-9.846764565E0,9.850604885E0
2.212234083E0,8.075776696E-2,-2.748754919E-1,-9.858728409E0,9.862890255E0
2.214679396E0,1.190429255E-1,-2.485544533E-1,-9.868299484E0,9.872146942E0
2.217123823E0,8.793623000E-2,-2.629113793E-1,-9.865906715E0,9.869800935E0
2.219567573E0,1.357926875E-1,-2.772683203E-1,-9.873085022E0,9.877910975E0
2.222012052E0,7.836493850E-2,-2.676970363E-1,-9.863513947E0,9.867457126E0
2.224457417E0,8.315058798E-2,-2.605185509E-1,-9.863513947E0,9.867304156E0
2.226901844E0,1.070788130E-1,-2.437688112E-1,-9.889835358E0,9.893418646E0
2.229345594E0,1.046859920E-1,-2.437688112E-1,-9.858728409E0,9.862297310E0
2.231790073E0,9.750752151E-2,-2.533400953E-1,-9.844371796E0,9.848113777E0
2.234235438E0,9.272187948E-2,-2.437688112E-1,-9.865906715E0,9.869353368E0
2.236679917E0,8.075776696E-2,-2.557329237E-1,-9.875477791E0,9.879118521E0
2.239123615E0,9.511470050E-2,-2.533400953E-1,-9.856335640E0,9.860049709E0
2.241568094E0,9.272187948E-2,-2.676970363E-1,-9.894620895E0,9.898675756E0
2.244013458E0,9.511470050E-2,-2.437688112E-1,-9.882657051E0,9.886120596E0
2.246457938E0,1.046859920E-1,-2.629113793E-1,-9.885049820E0,9.889099630E0
2.248901636E0,9.511470050E-2,-2.676970363E-1,-9.853942871E0,9.858037260E0
2.251346115E0,8.554340899E-2,-2.724826932E-1,-9.868299484E0,9.872431271E0
2.253791479E0,8.793623000E-2,-2.365903407E-1,-9.861121178E0,9.864350899E0
2.256235958E0,1.046859920E-1,-2.724826932E-1,-9.858728409E0,9.863048809E0
2.258679656E0,1.046859920E-1,-2.461616248E-1,-9.861121178E0,9.864748633E0
2.261124240E0,8.793623000E-2,-2.581257522E-1,-9.875477791E0,9.879242040E0
2.263569500E0,9.990034252E-2,-2.676970363E-1,-9.873085022E0,9.877218719E0
2.266013979E0,9.511470050E-2,-2.676970363E-1,-9.861121178E0,9.865212587E0
2.268457677E0,1.046859920E-1,-2.772683203E-1,-9.889835358E0,9.894275127E0
2.270902261E0,9.750752151E-2,-2.533400953E-1,-9.887442589E0,9.891168276E0
2.273347521E0,1.070788130E-1,-2.581257522E-1,-9.868299484E0,9.872255542E0
2.275792000E0,9.511470050E-2,-2.485544533E-1,-9.853942871E0,9.857536012E0
2.278235698E0,9.511470050E-2,-2.676970363E-1,-9.856335640E0,9.860429035E0
2.280680281E0,8.075776696E-2,-2.676970363E-1,-9.849157333E0,9.853125580E0
2.283125542E0,1.022931710E-1,-2.605185509E-1,-9.875477791E0,9.879443072E0
2.285570021E0,1.022931710E-1,-2.605185509E-1,-9.870692253E0,9.874659456E0
2.288013719E0,1.022931710E-1,-2.605185509E-1,-9.844371796E0,9.848349601E0
2.290458302E0,9.032905847E-2,-2.700898647E-1,-9.861121178E0,9.865232828E0
2.292903615E0,9.032905847E-2,-2.413759828E-1,-9.870692253E0,9.874056272E0
2.295348042E0,1.070788130E-1,-2.772683203E-1,-9.880263329E0,9.884733028E0
2.297791740E0,9.511470050E-2,-2.413759828E-1,-9.861121178E0,9.864533443E0
2.300236323E0,9.032905847E-2,-2.509472668E-1,-9.865906715E0,9.869511092E0
2.302681636E0,8.793623000E-2,-2.437688112E-1,-9.870692253E0,9.874093456E0
2.305126063E0,1.142572835E-1,-2.533400953E-1,-9.863513947E0,9.867428404E0
2.307569761E0,1.022931710E-1,-2.581257522E-1,-9.861121178E0,9.865029330E0
2.310014344E0,8.554340899E-2,-2.629113793E-1,-9.868299484E0,9.872171736E0
2.312459656E0,9.032905847E-2,-2.437688112E-1,-9.868299484E0,9.871723116E0
2.314904083E0,8.554340899E-2,-2.676970363E-1,-9.870692253E0,9.874692144E0
2.317347833E0,9.511470050E-2,-2.581257522E-1,-9.861121178E0,9.864957506E0
2.319792313E0,1.022931710E-1,-2.413759828E-1,-9.865906715E0,9.869389119E0
2.322237677E0,9.750752151E-2,-2.461616248E-1,-9.885049820E0,9.888595108E0
2.324682104E0,9.990034252E-2,-2.461616248E-1,-9.863513947E0,9.867090909E0
2.327125854E0,1.046859920E-1,-2.437688112E-1,-9.868299484E0,9.871864925E0
2.329570333E0,9.750752151E-2,-2.437688112E-1,-9.868299484E0,9.871791411E0
2.332015698E0,8.075776696E-2,-2.581257522E-1,-9.880263329E0,9.883964496E0
2.334460177E0,9.511470050E-2,-2.629113793E-1,-9.865906715E0,9.869867502E0
2.336903875E0,9.272187948E-2,-2.581257522E-1,-9.846764565E0,9.850583670E0
2.339348354E0,8.315058798E-2,-2.605185509E-1,-9.856335640E0,9.860128609E0
2.341793719E0,9.272187948E-2,-2.533400953E-1,-9.861121178E0,9.864810664E0
2.344238198E0,1.022931710E-1,-2.533400953E-1,-9.863513947E0,9.867297121E0
2.346681896E0,8.075776696E-2,-2.389831543E-1,-9.856335640E0,9.859563226E0
2.349126375E0,9.511470050E-2,-2.581257522E-1,-9.849157333E0,9.852998320E0
2.351571740E0,9.511470050E-2,-2.485544533E-1,-9.863513947E0,9.867103602E0
2.354016219E0,9.032905847E-2,-2.509472668E-1,-9.856335640E0,9.859943515E0
2.356459917E0,9.511470050E-2,-2.389831543E-1,-9.882657051E0,9.886003750E0
2.358904500E0,9.511470050E-2,-2.629113793E-1,-9.849157333E0,9.853124853E0
2.361349761E0,9.511470050E-2,-2.605185509E-1,-9.870692253E0,9.874587702E0
2.363794240E0,9.511470050E-2,-2.509472668E-1,-9.858728409E0,9.862380401E0
2.366237938E0,9.990034252E-2,-2.437688112E-1,-9.875477791E0,9.878991088E0
2.368682521E0,9.272187948E-2,-2.509472668E-1,-9.865906715E0,9.869533281E0
2.371127781E0,8.793623000E-2,-2.605185509E-1,-9.863513947E0,9.867345645E0
2.373572261E0,9.272187948E-2,-2.629113793E-1,-9.870692253E0,9.874628362E0
2.376015958E0,8.793623000E-2,-2.581257522E-1,-9.853942871E0,9.857715343E0
2.378460542E0,8.554340899E-2,-2.557329237E-1,-9.844371796E0,9.848064432E0
2.380905854E0,8.315058798E-2,-2.772683203E-1,-9.861121178E0,9.865368854E0
2.383350281E0,1.022931710E-1,-2.581257522E-1,-9.887442589E0,9.891340341E0
2.385793979E0,9.750752151E-2,-2.748754919E-1,-9.865906715E0,9.870216794E0
2.388238563E0,9.272187948E-2,-2.389831543E-1,-9.853942871E0,9.857276521E0
2.390683875E0,1.046859920E-1,-2.629113793E-1,-9.870692253E0,9.874747952E0
2.393128302E0,9.750752151E-2,-2.461616248E-1,-9.865906715E0,9.869458880E0
2.395572052E0,8.793623000E-2,-2.557329237E-1,-9.858728409E0,9.862436715E0
2.398016531E0,8.554340899E-2,-2.557329237E-1,-9.856335640E0,9.860023796E0
2.400461896E0,9.990034252E-2,-2.485544533E-1,-9.851550102E0,9.855191465E0
2.402906323E0,8.793623000E-2,-2.724826932E-1,-9.865906715E0,9.870060533E0
2.405350073E0,1.070788130E-1,-2.629113793E-1,-9.880263329E0,9.884340732E0
2.407794552E0,7.836493850E-2,-2.533400953E-1,-9.880263329E0,9.883821412E0
2.410239917E0,9.990034252E-2,-2.509472668E-1,-9.861121178E0,9.864819587E0
2.412684344E0,1.022931710E-1,-2.700898647E-1,-9.853942871E0,9.858174402E0
2.415128094E0,1.022931710E-1,-2.629113793E-1,-9.849157333E0,9.853196764E0
2.417572573E0,9.511470050E-2,-2.605185509E-1,-9.853942871E0,9.857844938E0
2.420017938E0,8.315058798E-2,-2.413759828E-1,-9.851550102E0,9.854857472E0
2.422462417E0,7.597211748E-2,-2.557329237E-1,-9.863513947E0,9.867121083E0
2.424906115E0,9.990034252E-2,-2.485544533E-1,-9.880263329E0,9.883894113E0
2.427350594E0,1.070788130E-1,-2.485544533E-1,-9.868299484E0,9.872009922E0
2.429795958E0,1.070788130E-1,-2.629113793E-1,-9.863513947E0,9.867598271E0
2.432240438E0,9.511470050E-2,-2.461616248E-1,-9.846764565E0,9.850300236E0
2.434684136E0,8.075776696E-2,-2.485544533E-1,-9.853942871E0,9.857407937E0
2.437128615E0,1.022931710E-1,-2.581257522E-1,-9.858728409E0,9.862637509E0
2.439573979E0,1.046859920E-1,-2.461616248E-1,-9.858728409E0,9.862356744E0
2.442018458E0,8.075776696E-2,-2.557329237E-1,-9.856335640E0,9.859983438E0
2.444462156E0,9.272187948E-2,-2.605185509E-1,-9.875477791E0,9.879348605E0
2.446906740E0,9.750752151E-2,-2.581257522E-1,-9.875477791E0,9.879331871E0
2.449352000E0,9.272187948E-2,-2.533400953E-1,-9.868299484E0,9.871986288E0
2.451796479E0,1.046859920E-1,-2.581257522E-1,-9.868299484E0,9.872229878E0
2.454240177E0,9.511470050E-2,-2.437688112E-1,-9.873085022E0,9.876551923E0
2.456684761E0,9.750752151E-2,-2.533400953E-1,-9.863513947E0,9.867248669E0
2.459130021E0,1.022931710E-1,-2.461616248E-1,-9.861121178E0,9.864723530E0
2.461574500E0,8.075776696E-2,-2.581257522E-1,-9.875477791E0,9.879180751E0
2.464018198E0,9.032905847E-2,-2.485544533E-1,-9.861121178E0,9.864666722E0
2.466462781E0,9.032905847E-2,-2.581257522E-1,-9.868299484E0,9.872088075E0
2.468908094E0,1.022931710E-1,-2.509472668E-1,-9.851550102E0,9.855276650E0
2.471352521E0,1.070788130E-1,-2.557329237E-1,-9.863513947E0,9.867409618E0
2.473796219E0,9.511470050E-2,-2.509472668E-1,-9.861121178E0,9.864772284E0
2.476240802E0,9.032905847E-2,-2.581257522E-1,-9.875477791E0,9.879263628E0
2.478686115E0,9.272187948E-2,-2.557329237E-1,-9.863513947E0,9.867264264E0
2.481130542E0,1.094716340E-1,-2.533400953E-1,-9.844371796E0,9.848239502E0
2.483574292E0,7.836493850E-2,-2.700898647E-1,-9.877870560E0,9.881873122E0
2.486018771E0,8.793623000E-2,-2.605185509E-1,-9.868299484E0,9.872129325E0
2.488464136E0,8.315058798E-2,-2.700898647E-1,-9.863513947E0,9.867561499E0
2.490908563E0,8.793623000E-2,-2.389831543E-1,-9.894620895E0,9.897897170E0
2.493352313E0,9.272187948E-2,-2.653042078E-1,-9.861121178E0,9.865125166E0
2.495796792E0,8.075776696E-2,-2.533400953E-1,-9.856335640E0,9.859921666E0
2.498242156E0,7.597211748E-2,-2.581257522E-1,-9.851550102E0,9.855224000E0
2.500686583E0,9.511470050E-2,-2.605185509E-1,-9.856335640E0,9.860236760E0
2.503130333E0,8.793623000E-2,-2.557329237E-1,-9.865906715E0,9.869612324E0
2.505574813E0,1.046859920E-1,-2.557329237E-1,-9.865906715E0,9.869775773E0
2.508020177E0,9.511470050E-2,-2.724826932E-1,-9.868299484E0,9.872518845E0
2.510464656E0,8.793623000E-2,-2.485544533E-1,-9.849157333E0,9.852685536E0
2.512908354E0,1.022931710E-1,-2.533400953E-1,-9.865906715E0,9.869688972E0
2.515352833E0,8.315058798E-2,-2.581257522E-1,-9.861121178E0,9.864849406E0
2.517798198E0,1.118644550E-1,-2.533400953E-1,-9.875477791E0,9.879360124E0
2.520242677E0,9.032905847E-2,-2.533400953E-1,-9.880263329E0,9.883923512E0
2.522686375E0,8.554340899E-2,-2.437688112E-1,-9.865906715E0,9.869288537E0
2.525130854E0,9.272187948E-2,-2.581257522E-1,-9.856335640E0,9.860151038E0
2.527576219E0,9.990034252E-2,-2.509472668E-1,-9.853942871E0,9.857643974E0
2.530020698E0,8.793623000E-2,-2.581257522E-1,-9.877870560E0,9.881633897E0
2.532464396E0,8.075776696E-2,-2.653042078E-1,-9.865906715E0,9.869803618E0
2.534908979E0,9.272187948E-2,-2.581257522E-1,-9.873085022E0,9.876893950E0
2.537354240E0,8.554340899E-2,-2.413759828E-1,-9.863513947E0,9.866837762E0
2.539798719E0,8.793623000E-2,-2.485544533E-1,-9.861121178E0,9.864645101E0
2.542242417E0,9.032905847E-2,-2.581257522E-1,-9.861121178E0,9.864912525E0
2.544687000E0,9.990034252E-2,-2.461616248E-1,-9.870692253E0,9.874266615E0
2.547132313E0,8.075776696E-2,-2.365903407E-1,-9.875477791E0,9.878641526E0
2.549576740E0,1.166501045E-1,-2.485544533E-1,-9.880263329E0,9.884077600E0
2.552020438E0,9.990034252E-2,-2.557329237E-1,-9.877870560E0,9.881685393E0
2.554465021E0,9.272187948E-2,-2.533400953E-1,-9.873085022E0,9.876770039E0
2.556910333E0,9.511470050E-2,-2.533400953E-1,-9.849157333E0,9.852874108E0
2.559354761E0,9.990034252E-2,-2.509472668E-1,-9.877870560E0,9.881562700E0
2.561798458E0,1.046859920E-1,-2.629113793E-1,-9.861121178E0,9.865180811E0
2.564243042E0,9.032905847E-2,-2.629113793E-1,-9.861121178E0,9.865038906E0
2.566688354E0,9.272187948E-2,-2.700898647E-1,-9.856335640E0,9.860471496E0
2.569132781E0,9.990034252E-2,-2.533400953E-1,-9.868299484E0,9.872056320E0
2.571576531E0,9.990034252E-2,-2.533400953E-1,-9.851550102E0,9.855313323E0
2.574021011E0,9.272187948E-2,-2.676970363E-1,-9.865906715E0,9.869973372E0
2.576466375E0,9.511470050E-2,-2.533400953E-1,-9.877870560E0,9.881576534E0
2.578910802E0,1.094716340E-1,-2.605185509E-1,-9.861121178E0,9.865169276E0
2.581354552E0,9.032905847E-2,-2.533400953E-1,-9.844371796E0,9.848045318E0
2.583799031E0,9.750752151E-2,-2.509472668E-1,-9.873085022E0,9.876755039E0
2.586244396E0,7.118647546E-2,-2.557329237E-1,-9.865906715E0,9.869477299E0
2.588688823E0,9.032905847E-2,-2.605185509E-1,-9.844371796E0,9.848232598E0
2.591132573E0,9.511470050E-2,-2.461616248E-1,-9.856335640E0,9.859867879E0
2.593577052E0,9.750752151E-2,-2.700898647E-1,-9.870692253E0,9.874868192E0
2.596022417E0,8.554340899E-2,-2.653042078E-1,-9.861121178E0,9.865060308E0
2.598466896E0,9.750752151E-2,-2.461616248E-1,-9.861121178E0,9.864675065E0
2.600910594E0,7.118647546E-2,-2.581257522E-1,-9.846764565E0,9.850404500E0
2.603355073E0,8.793623000E-2,-2.437688112E-1,-9.851550102E0,9.854957911E0
2.605800438E0,9.990034252E-2,-2.557329237E-1,-9.863513947E0,9.867334330E0
2.608244917E0,9.511470050E-2,-2.389831543E-1,-9.870692253E0,9.874043007E0
2.610688615E0,7.597211748E-2,-2.629113793E-1,-9.853942871E0,9.857742351E0
2.613133198E0,1.022931710E-1,-2.653042078E-1,-9.875477791E0,9.879570427E0
2.615578458E0,9.032905847E-2,-2.533400953E-1,-9.868299484E0,9.871964103E0
2.618022938E0,1.070788130E-1,-2.605185509E-1,-9.882657051E0,9.886670126E0
2.620466636E0,9.750752151E-2,-2.533400953E-1,-9.873085022E0,9.876816125E0
2.622911219E0,1.046859920E-1,-2.533400953E-1,-9.863513947E0,9.867322217E0
2.625356479E0,9.032905847E-2,-2.437688112E-1,-9.844371796E0,9.847803746E0
2.627800958E0,9.511470050E-2,-2.509472668E-1,-9.868299484E0,9.871947936E0
2.630244656E0,9.272187948E-2,-2.509472668E-1,-9.858728409E0,9.862357615E0
2.632689240E0,1.022931710E-1,-2.581257522E-1,-9.882657051E0,9.886556690E0
2.635134552E0,9.750752151E-2,-2.509472668E-1,-9.861121178E0,9.864795646E0
2.637578979E0,1.070788130E-1,-2.437688112E-1,-9.861121178E0,9.864714896E0
2.640022677E0,9.032905847E-2,-2.485544533E-1,-9.863513947E0,9.867058631E0
2.642467261E0,1.142572835E-1,-2.557329237E-1,-9.873085022E0,9.877057351E0
2.644912573E0,8.315058798E-2,-2.581257522E-1,-9.873085022E0,9.876808734E0
2.647357000E0,1.046859920E-1,-2.509472668E-1,-9.851550102E0,9.855301776E0
2.649800698E0,1.022931710E-1,-2.294118702E-1,-9.875477791E0,9.878671737E0
2.652245281E0,8.793623000E-2,-2.629113793E-1,-9.841979027E0,9.845882710E0
2.654690594E0,9.750752151E-2,-2.676970363E-1,-9.844371796E0,9.848493564E0
2.657135021E0,8.075776696E-2,-2.581257522E-1,-9.841979027E0,9.845694586E0
2.659578719E0,9.032905847E-2,-2.485544533E-1,-9.868299484E0,9.871842450E0
2.662023302E0,9.750752151E-2,-2.509472668E-1,-9.863513947E0,9.867187523E0
2.664468615E0,7.836493850E-2,-2.485544533E-1,-9.865906715E0,9.869348291E0
2.666913042E0,8.554340899E-2,-2.533400953E-1,-9.880263329E0,9.883880934E0
2.669356792E0,9.272187948E-2,-2.533400953E-1,-9.863513947E0,9.867202538E0
2.671801271E0,9.750752151E-2,-2.605185509E-1,-9.870692253E0,9.874611040E0
2.674246636E0,8.554340899E-2,-2.389831543E-1,-9.861121178E0,9.864387538E0
2.676691219E0,9.511470050E-2,-2.461616248E-1,-9.856335640E0,9.859867879E0
2.679134813E0,8.793623000E-2,-2.533400953E-1,-9.853942871E0,9.857591191E0
2.681579292E0,9.750752151E-2,-2.557329237E-1,-9.853942871E0,9.857743005E0
2.684024656E0,8.793623000E-2,-2.485544533E-1,-9.863513947E0,9.867037016E0
2.686469136E0,8.554340899E-2,-2.485544533E-1,-9.865906715E0,9.869407901E0
2.688912833E0,9.990034252E-2,-2.629113793E-1,-9.858728409E0,9.862739392E0
2.691357313E0,1.070788130E-1,-2.557329237E-1,-9.861121178E0,9.865017794E0
2.693802677E0,8.793623000E-2,-2.700898647E-1,-9.839586258E0,9.843685237E0
2.696247156E0,1.046859920E-1,-2.485544533E-1,-9.861121178E0,9.864808632E0
2.698690854E0,8.554340899E-2,-2.581257522E-1,-9.861121178E0,9.864869865E0
2.701135333E0,9.990034252E-2,-2.653042078E-1,-9.870692253E0,9.874762375E0
2.703580698E0,8.075776696E-2,-2.557329237E-1,-9.853942871E0,9.857591554E0
2.706025177E0,8.793623000E-2,-2.365903407E-1,-9.856335640E0,9.859566928E0
2.708468875E0,8.075776696E-2,-2.485544533E-1,-9.856335640E0,9.859799865E0
2.710913458E0,1.094716340E-1,-2.389831543E-1,-9.858728409E0,9.862232142E0
2.713358719E0,9.990034252E-2,-2.700898647E-1,-9.870692253E0,9.874892109E0
2.715803198E0,7.597211748E-2,-2.485544533E-1,-9.868299484E0,9.871721521E0
2.718246896E0,8.075776696E-2,-2.509472668E-1,-9.863513947E0,9.867036218E0
2.720691479E0,9.272187948E-2,-2.509472668E-1,-9.875477791E0,9.879100843E0
2.723136792E0,1.070788130E-1,-2.653042078E-1,-9.873085022E0,9.877229371E0
2.725581219E0,8.554340899E-2,-2.772683203E-1,-9.868299484E0,9.872564515E0
2.728024917E0,9.750752151E-2,-2.485544533E-1,-9.875477791E0,9.879086427E0
2.730469500E0,8.315058798E-2,-2.581257522E-1,-9.856335640E0,9.860065678E0
2.732914813E0,1.022931710E-1,-2.676970363E-1,-9.870692253E0,9.874851450E0
2.735359240E0,8.554340899E-2,-2.629113793E-1,-9.882657051E0,9.886523679E0
2.737802938E0,1.070788130E-1,-2.485544533E-1,-9.863513947E0,9.867226184E0
2.740247521E0,8.075776696E-2,-2.557329237E-1,-9.868299484E0,9.871942861E0
2.742692833E0,9.750752151E-2,-2.365903407E-1,-9.849157333E0,9.852481052E0
2.745137261E0,8.554340899E-2,-2.413759828E-1,-9.882657051E0,9.885974430E0
2.747580958E0,9.990034252E-2,-2.461616248E-1,-9.844371796E0,9.847955710E0
2.750025542E0,9.272187948E-2,-2.557329237E-1,-9.861121178E0,9.864872404E0
2.752470854E0,9.272187948E-2,-2.629113793E-1,-9.853942871E0,9.857885668E0
2.754915281E0,9.272187948E-2,-2.533400953E-1,-9.870692253E0,9.874378163E0
2.757359031E0,1.094716340E-1,-2.629113793E-1,-9.882657051E0,9.886759672E0
2.759803511E0,1.070788130E-1,-2.533400953E-1,-9.844371796E0,9.848213195E0
2.762248875E0,1.142572835E-1,-2.485544533E-1,-9.858728409E0,9.862522998E0
2.764693302E0,8.793623000E-2,-2.581257522E-1,-9.877870560E0,9.881633897E0
2.767137052E0,1.118644550E-1,-2.437688112E-1,-9.863513947E0,9.867159888E0
2.769581531E0,9.272187948E-2,-2.318046987E-1,-9.858728409E0,9.861889099E0
2.772026896E0,9.032905847E-2,-2.581257522E-1,-9.863513947E0,9.867304374E0
2.774471375E0,9.750752151E-2,-2.653042078E-1,-9.873085022E0,9.877130246E0
2.776915073E0,8.075776696E-2,-2.485544533E-1,-9.873085022E0,9.876543372E0
2.779359552E0,9.990034252E-2,-2.461616248E-1,-9.858728409E0,9.862307106E0
2.781804917E0,9.272187948E-2,-2.605185509E-1,-9.873085022E0,9.876956774E0
2.784249396E0,8.554340899E-2,-2.557329237E-1,-9.863513947E0,9.867199419E0
2.786693094E0,9.511470050E-2,-2.533400953E-1,-9.849157333E0,9.852874108E0
2.789137573E0,1.022931710E-1,-2.461616248E-1,-9.870692253E0,9.874291113E0
2.791582938E0,9.272187948E-2,-2.461616248E-1,-9.868299484E0,9.871804678E0
2.794027417E0,8.075776696E-2,-2.485544533E-1,-9.873085022E0,9.876543372E0
2.796471115E0,9.990034252E-2,-2.365903407E-1,-9.870692253E0,9.874032642E0
2.798915698E0,1.070788130E-1,-2.437688112E-1,-9.868299484E0,9.871890590E0
2.801360958E0,1.046859920E-1,-2.461616248E-1,-9.873085022E0,9.876708083E0
2.803805438E0,1.046859920E-1,-2.700898647E-1,-9.846764565E0,9.851024316E0
2.806249136E0,9.750752151E-2,-2.557329237E-1,-9.853942871E0,9.857743005E0
2.808693719E0,9.990034252E-2,-2.605185509E-1,-9.858728409E0,9.862675896E0
2.811139031E0,9.272187948E-2,-2.605185509E-1,-9.880263329E0,9.884132269E0
2.813583458E0,1.190429255E-1,-2.653042078E-1,-9.868299484E0,9.872582856E0
2.816027156E0,9.511470050E-2,-2.413759828E-1,-9.844371796E0,9.847789865E0
2.818471740E0,1.046859920E-1,-2.341975123E-1,-9.853942871E0,9.857281458E0
2.820917052E0,9.272187948E-2,-2.581257522E-1,-9.868299484E0,9.872110259E0
2.823361479E0,8.315058798E-2,-2.413759828E-1,-9.875477791E0,9.878777150E0
2.825805177E0,9.272187948E-2,-2.437688112E-1,-9.865906715E0,9.869353368E0
2.828249761E0,1.166501045E-1,-2.509472668E-1,-9.873085022E0,9.876962571E0
2.830695073E0,1.022931710E-1,-2.485544533E-1,-9.851550102E0,9.855216011E0
2.833139500E0,8.793623000E-2,-2.557329237E-1,-9.858728409E0,9.862436715E0
2.835583250E0,8.793623000E-2,-2.557329237E-1,-9.885049820E0,9.888748255E0
2.838027729E0,9.032905847E-2,-2.581257522E-1,-9.868299484E0,9.872088075E0
2.840473094E0,1.070788130E-1,-2.509472668E-1,-9.846764565E0,9.850543782E0
2.842917521E0,8.315058798E-2,-2.461616248E-1,-9.880263329E0,9.883679123E0
2.845361271E0,9.032905847E-2,-2.557329237E-1,-9.870692253E0,9.874417665E0
2.847805750E0,9.511470050E-2,-2.581257522E-1,-9.868299484E0,9.872133023E0
2.850251115E0,9.750752151E-2,-2.557329237E-1,-9.865906715E0,9.869702243E0
2.852695542E0,1.118644550E-1,-2.437688112E-1,-9.877870560E0,9.881511204E0
2.855139292E0,9.511470050E-2,-2.485544533E-1,-9.856335640E0,9.859927909E0
2.857583771E0,9.750752151E-2,-2.605185509E-1,-9.861121178E0,9.865043766E0
2.860029136E0,9.511470050E-2,-2.341975123E-1,-9.861121178E0,9.864360403E0
2.862473615E0,1.022931710E-1,-2.461616248E-1,-9.861121178E0,9.864723530E0
2.864917313E0,1.094716340E-1,-2.724826932E-1,-9.865906715E0,9.870275891E0
2.867361792E0,9.511470050E-2,-2.461616248E-1,-9.861121178E0,9.864651704E0
2.869807156E0,1.022931710E-1,-2.533400953E-1,-9.861121178E0,9.864905270E0
2.872251636E0,1.094716340E-1,-2.605185509E-1,-9.885049820E0,9.889088123E0
2.874695333E0,1.118644550E-1,-2.605185509E-1,-9.865906715E0,9.869979680E0
2.877139917E0,7.597211748E-2,-2.509472668E-1,-9.882657051E0,9.886134567E0
2.879585177E0,7.836493850E-2,-2.485544533E-1,-9.877870560E0,9.881307969E0
2.882029656E0,9.990034252E-2,-2.605185509E-1,-9.865906715E0,9.869851332E0
2.884473354E0,9.511470050E-2,-2.629113793E-1,-9.868299484E0,9.872259311E0
2.886917938E0,9.750752151E-2,-2.700898647E-1,-9.873085022E0,9.877259949E0
2.889363198E0,9.750752151E-2,-2.676970363E-1,-9.873085022E0,9.877194808E0
2.891807677E0,9.750752151E-2,-2.581257522E-1,-9.863513947E0,9.867372700E0
2.894251375E0,7.357929647E-2,-2.485544533E-1,-9.868299484E0,9.871703396E0
2.896695958E0,1.070788130E-1,-2.653042078E-1,-9.853942871E0,9.858095267E0
2.899141271E0,8.793623000E-2,-2.557329237E-1,-9.875477791E0,9.879179809E0
2.901585698E0,9.511470050E-2,-2.557329237E-1,-9.853942871E0,9.857719627E0
2.904029396E0,8.554340899E-2,-2.509472668E-1,-9.875477791E0,9.879036077E0
2.906473979E0,9.032905847E-2,-2.389831543E-1,-9.887442589E0,9.890742805E0
2.908919292E0,9.511470050E-2,-2.724826932E-1,-9.851550102E0,9.855776633E0
2.911363719E0,9.032905847E-2,-2.605185509E-1,-9.877870560E0,9.881718274E0
2.913807417E0,8.793623000E-2,-2.533400953E-1,-9.882657051E0,9.886294775E0
2.916252000E0,8.075776696E-2,-2.605185509E-1,-9.889835358E0,9.893595663E0
2.918697313E0,8.315058798E-2,-2.533400953E-1,-9.865906715E0,9.869509134E0
2.921141740E0,8.075776696E-2,-2.581257522E-1,-9.865906715E0,9.869613267E0
2.923585490E0,8.554340899E-2,-2.437688112E-1,-9.880263329E0,9.883640238E0
2.926029969E0,1.166501045E-1,-2.485544533E-1,-9.868299484E0,9.872118378E0
2.928475333E0,9.511470050E-2,-2.629113793E-1,-9.865906715E0,9.869867502E0
2.930919761E0,1.070788130E-1,-2.533400953E-1,-9.892228127E0,9.896050949E0
2.933363511E0,9.750752151E-2,-2.605185509E-1,-9.870692253E0,9.874611040E0
2.935807990E0,9.511470050E-2,-2.724826932E-1,-9.853942871E0,9.858168376E0
2.938253354E0,1.022931710E-1,-2.581257522E-1,-9.849157333E0,9.853070231E0
2.940697781E0,9.511470050E-2,-2.557329237E-1,-9.846764565E0,9.850544072E0
2.943141531E0,9.750752151E-2,-2.437688112E-1,-9.851550102E0,9.855047964E0
2.945586011E0,8.793623000E-2,-2.437688112E-1,-9.846764565E0,9.850174029E0
2.948031375E0,9.272187948E-2,-2.605185509E-1,-9.870692253E0,9.874564943E0
2.950475854E0,9.990034252E-2,-2.653042078E-1,-9.856335640E0,9.860411688E0
2.952919552E0,9.750752151E-2,-2.509472668E-1,-9.870692253E0,9.874363159E0
2.955364031E0,9.750752151E-2,-2.629113793E-1,-9.844371796E0,9.848364644E0
2.957809396E0,9.032905847E-2,-2.509472668E-1,-9.873085022E0,9.876686779E0
2.960253875E0,9.990034252E-2,-2.509472668E-1,-9.856335640E0,9.860035845E0
2.962697573E0,8.315058798E-2,-2.653042078E-1,-9.851550102E0,9.855472579E0
2.965142052E0,9.511470050E-2,-2.700898647E-1,-9.861121178E0,9.865277808E0
2.967587417E0,1.094716340E-1,-2.676970363E-1,-9.865906715E0,9.870144936E0
2.970031896E0,9.511470050E-2,-2.676970363E-1,-9.880263329E0,9.884346815E0
2.972475594E0,1.118644550E-1,-2.676970363E-1,-9.877870560E0,9.882130446E0
2.974920177E0,1.022931710E-1,-2.557329237E-1,-9.870692253E0,9.874534357E0
2.977365438E0,9.032905847E-2,-2.341975123E-1,-9.875477791E0,9.878667390E0
2.979809917E0,9.272187948E-2,-2.581257522E-1,-9.861121178E0,9.864934725E0
2.982253615E0,1.118644550E-1,-2.557329237E-1,-9.861121178E0,9.865070900E0
2.984698198E0,8.315058798E-2,-2.509472668E-1,-9.865906715E0,9.869448002E0
2.987143458E0,9.750752151E-2,-2.581257522E-1,-9.865906715E0,9.869764533E0
2.989587938E0,9.990034252E-2,-2.748754919E-1,-9.856335640E0,9.860673854E0
2.992031636E0,8.793623000E-2,-2.629113793E-1,-9.865906715E0,9.869800935E0
2.994476219E0,9.272187948E-2,-2.629113793E-1,-9.865906715E0,9.869844733E0
2.996921531E0,8.554340899E-2,-2.413759828E-1,-9.858728409E0,9.862053837E0
2.999365958E0,8.793623000E-2,-2.629113793E-1,-9.865906715E0,9.869800935E0
3.001809656E0,7.836493850E-2,-2.772683203E-1,-9.853942871E0,9.858154436E0
3.004254240E0,8.793623000E-2,-2.557329237E-1,-9.863513947E0,9.867220454E0
3.006699552E0,1.070788130E-1,-2.485544533E-1,-9.858728409E0,9.862442447E0
3.009143979E0,9.990034252E-2,-2.413759828E-1,-9.870692253E0,9.874148470E0
3.011587677E0,9.272187948E-2,-2.557329237E-1,-9.875477791E0,9.879223566E0
3.014032261E0,1.022931710E-1,-2.605185509E-1,-9.873085022E0,9.877051263E0
3.016477573E0,8.554340899E-2,-2.461616248E-1,-9.877870560E0,9.881307607E0
3.018922000E0,9.990034252E-2,-2.437688112E-1,-9.865906715E0,9.869423419E0
3.021365750E0,9.750752151E-2,-2.676970363E-1,-9.875477791E0,9.879586581E0
3.023810229E0,9.511470050E-2,-2.772683203E-1,-9.865906715E0,9.870260374E0
3.026255594E0,1.070788130E-1,-2.724826932E-1,-9.839586258E0,9.843940797E0
3.028700021E0,8.554340899E-2,-2.341975123E-1,-9.863513947E0,9.866664762E0
3.031143771E0,9.990034252E-2,-2.557329237E-1,-9.863513947E0,9.867334330E0
3.033588250E0,1.070788130E-1,-2.485544533E-1,-9.853942871E0,9.857658713E0
3.036033615E0,9.511470050E-2,-2.389831543E-1,-9.865906715E0,9.869259094E0
3.038478094E0,8.075776696E-2,-2.653042078E-1,-9.856335640E0,9.860236325E0
3.040921792E0,1.070788130E-1,-2.676970363E-1,-9.846764565E0,9.850984721E0
3.043366271E0,1.046859920E-1,-2.581257522E-1,-9.849157333E0,9.853095363E0
3.045811636E0,9.272187948E-2,-2.461616248E-1,-9.861121178E0,9.864628922E0
3.048256115E0,9.750752151E-2,-2.700898647E-1,-9.870692253E0,9.874868192E0
3.050699813E0,8.075776696E-2,-2.653042078E-1,-9.877870560E0,9.881762744E0
3.053144292E0,1.022931710E-1,-2.653042078E-1,-9.870692253E0,9.874786872E0
3.055589656E0,1.118644550E-1,-2.700898647E-1,-9.853942871E0,9.858278364E0
3.058034136E0,1.046859920E-1,-2.533400953E-1,-9.863513947E0,9.867322217E0
3.060477833E0,9.032905847E-2,-2.533400953E-1,-9.851550102E0,9.855220949E0
3.062922417E0,9.032905847E-2,-2.437688112E-1,-9.851550102E0,9.854979553E0
3.065367677E0,1.070788130E-1,-2.557329237E-1,-9.868299484E0,9.872193268E0
3.067812156E0,9.750752151E-2,-2.581257522E-1,-9.861121178E0,9.864980867E0
3.070255854E0,1.214357466E-1,-2.676970363E-1,-9.875477791E0,9.879851717E0
3.072700438E0,1.046859920E-1,-2.557329237E-1,-9.858728409E0,9.862600282E0
3.075145698E0,1.046859920E-1,-2.533400953E-1,-9.858728409E0,9.862538527E0
3.077590177E0,7.836493850E-2,-2.365903407E-1,-9.851550102E0,9.854702201E0
3.080033875E0,9.511470050E-2,-2.653042078E-1,-9.853942871E0,9.857972572E0
3.082478458E0,1.022931710E-1,-2.629113793E-1,-9.861121178E0,9.865155709E0
3.084923771E0,9.990034252E-2,-2.605185509E-1,-9.861121178E0,9.865067708E0
3.087368198E0,9.990034252E-2,-2.389831543E-1,-9.877870560E0,9.881266104E0
3.089811896E0,8.554340899E-2,-2.605185509E-1,-9.858728409E0,9.862540922E0
3.092256479E0,9.990034252E-2,-2.653042078E-1,-9.865906715E0,9.869978810E0
3.094701792E0,9.750752151E-2,-2.629113793E-1,-9.853942871E0,9.857931843E0
3.097146219E0,1.166501045E-1,-2.557329237E-1,-9.863513947E0,9.867518125E0
3.099589969E0,9.272187948E-2,-2.533400953E-1,-9.849157333E0,9.852851299E0
3.102034448E0,9.032905847E-2,-2.533400953E-1,-9.865906715E0,9.869572223E0
3.104479813E0,7.836493850E-2,-2.509472668E-1,-9.858728409E0,9.862233086E0
3.106924240E0,8.554340899E-2,-2.509472668E-1,-9.873085022E0,9.876644170E0
3.109367990E0,8.075776696E-2,-2.796611488E-1,-9.858728409E0,9.863024790E0
3.111812469E0,8.075776696E-2,-2.653042078E-1,-9.877870560E0,9.881762744E0
3.114257833E0,8.554340899E-2,-2.485544533E-1,-9.875477791E0,9.878975584E0
3.116702313E0,8.554340899E-2,-2.629113793E-1,-9.875477791E0,9.879347229E0
3.119146011E0,8.793623000E-2,-2.533400953E-1,-9.873085022E0,9.876726271E0
3.121590490E0,1.166501045E-1,-2.365903407E-1,-9.880263329E0,9.883783976E0
3.124035854E0,9.990034252E-2,-2.653042078E-1,-9.863513947E0,9.867587029E0
3.126480333E0,7.357929647E-2,-2.605185509E-1,-9.865906715E0,9.869620010E0
3.128924031E0,8.554340899E-2,-2.461616248E-1,-9.865906715E0,9.869347929E0
3.131368511E0,1.094716340E-1,-2.605185509E-1,-9.863513947E0,9.867561063E0
3.133813875E0,9.990034252E-2,-2.605185509E-1,-9.861121178E0,9.865067708E0
3.136258354E0,9.272187948E-2,-2.629113793E-1,-9.887442589E0,9.891372033E0
3.138702052E0,7.597211748E-2,-2.437688112E-1,-9.868299484E0,9.871602185E0
3.141146531E0,9.990034252E-2,-2.437688112E-1,-9.858728409E0,9.862247672E0
3.143591896E0,9.032905847E-2,-2.557329237E-1,-9.846764565E0,9.850499026E0
3.146036375E0,1.118644550E-1,-2.581257522E-1,-9.853942871E0,9.857957835E0
3.148480073E0,1.022931710E-1,-2.653042078E-1,-9.851550102E0,9.855652674E0
3.150924656E0,1.166501045E-1,-2.653042078E-1,-9.873085022E0,9.877337770E0
3.153369917E0,1.022931710E-1,-2.437688112E-1,-9.873085022E0,9.876623663E0
3.155814396E0,7.597211748E-2,-2.461616248E-1,-9.863513947E0,9.866877656E0
3.158258094E0,8.554340899E-2,-2.605185509E-1,-9.861121178E0,9.864932766E0
3.160702677E0,9.032905847E-2,-2.581257522E-1,-9.870692253E0,9.874479925E0
3.163147990E0,9.032905847E-2,-2.676970363E-1,-9.858728409E0,9.862775820E0
3.165592417E0,7.836493850E-2,-2.605185509E-1,-9.863513947E0,9.867264988E0
3.168036115E0,7.118647546E-2,-2.533400953E-1,-9.858728409E0,9.862239835E0
3.170480698E0,9.511470050E-2,-2.557329237E-1,-9.853942871E0,9.857719627E0
3.172926011E0,9.511470050E-2,-2.533400953E-1,-9.865906715E0,9.869617182E0
3.175370438E0,7.597211748E-2,-2.533400953E-1,-9.851550102E0,9.855099816E0
3.177814136E0,9.032905847E-2,-2.413759828E-1,-9.849157333E0,9.852528705E0
3.180258719E0,8.793623000E-2,-2.557329237E-1,-9.870692253E0,9.874396066E0
3.182704031E0,1.070788130E-1,-2.557329237E-1,-9.865906715E0,9.869801443E0
3.185148458E0,8.315058798E-2,-2.437688112E-1,-9.880263329E0,9.883619817E0
3.187592156E0,8.075776696E-2,-2.724826932E-1,-9.870692253E0,9.874782741E0
3.190036740E0,7.597211748E-2,-2.605185509E-1,-9.856335640E0,9.860070686E0
3.192482052E0,9.032905847E-2,-2.676970363E-1,-9.875477791E0,9.879518340E0
3.194926479E0,9.750752151E-2,-2.605185509E-1,-9.875477791E0,9.879394679E0
3.197370229E0,1.046859920E-1,-2.629113793E-1,-9.863513947E0,9.867572595E0
3.199814708E0,8.554340899E-2,-2.437688112E-1,-9.875477791E0,9.878856336E0
3.202260073E0,9.272187948E-2,-2.629113793E-1,-9.880263329E0,9.884195626E0
3.204704500E0,1.046859920E-1,-2.461616248E-1,-9.868299484E0,9.871924301E0
3.207148250E0,1.094716340E-1,-2.485544533E-1,-9.870692253E0,9.874428030E0
3.209592729E0,1.070788130E-1,-2.581257522E-1,-9.841979027E0,9.845945660E0
3.212038094E0,1.070788130E-1,-2.653042078E-1,-9.880263329E0,9.884404668E0
3.214482521E0,9.511470050E-2,-2.605185509E-1,-9.873085022E0,9.876979527E0
3.216926271E0,5.922235921E-2,-2.653042078E-1,-9.861121178E0,9.864867181E0
3.219370750E0,7.836493850E-2,-2.533400953E-1,-9.856335640E0,9.859902358E0
3.221816115E0,1.046859920E-1,-2.509472668E-1,-9.863513947E0,9.867261072E0
3.224260594E0,8.554340899E-2,-2.581257522E-1,-9.863513947E0,9.867261725E0
3.226704292E0,8.793623000E-2,-2.533400953E-1,-9.861121178E0,9.864766843E0
3.229148771E0,8.554340899E-2,-2.557329237E-1,-9.861121178E0,9.864807544E0
3.231594136E0,1.022931710E-1,-2.413759828E-1,-9.870692253E0,9.874172969E0
3.234038615E0,1.070788130E-1,-2.605185509E-1,-9.880263329E0,9.884277375E0
3.236482313E0,1.046859920E-1,-2.461616248E-1,-9.882657051E0,9.886276604E0
3.238926792E0,1.046859920E-1,-2.461616248E-1,-9.853942871E0,9.857572967E0
3.241372156E0,9.272187948E-2,-2.509472668E-1,-9.858728409E0,9.862357615E0
3.243816636E0,8.554340899E-2,-2.485544533E-1,-9.875477791E0,9.878975584E0
3.246260333E0,9.511470050E-2,-2.557329237E-1,-9.868299484E0,9.872070748E0
3.248704917E0,8.793623000E-2,-2.581257522E-1,-9.844371796E0,9.848147934E0
3.251150177E0,9.272187948E-2,-2.676970363E-1,-9.861121178E0,9.865189807E0
3.253594656E0,9.750752151E-2,-2.437688112E-1,-9.853942871E0,9.857439884E0
3.256038354E0,8.793623000E-2,-2.485544533E-1,-9.858728409E0,9.862253188E0
3.258482938E0,9.750752151E-2,-2.437688112E-1,-9.865906715E0,9.869399489E0
3.260928198E0,8.315058798E-2,-2.581257522E-1,-9.870692253E0,9.874416868E0
3.263372677E0,9.032905847E-2,-2.509472668E-1,-9.870692253E0,9.874294882E0
3.265816375E0,1.022931710E-1,-2.557329237E-1,-9.863513947E0,9.867358846E0
3.268260958E0,9.990034252E-2,-2.533400953E-1,-9.865906715E0,9.869664462E0
3.270706271E0,9.272187948E-2,-2.509472668E-1,-9.870692253E0,9.874317062E0
3.273150698E0,1.046859920E-1,-2.605185509E-1,-9.851550102E0,9.855550136E0
3.275594396E0,9.511470050E-2,-2.748754919E-1,-9.856335640E0,9.860626531E0
3.278038979E0,9.750752151E-2,-2.581257522E-1,-9.853942871E0,9.857805371E0
3.280484292E0,1.094716340E-1,-2.796611488E-1,-9.853942871E0,9.858518373E0
3.282928719E0,1.070788130E-1,-2.676970363E-1,-9.865906715E0,9.870118687E0
3.285372469E0,9.990034252E-2,-2.581257522E-1,-9.858728409E0,9.862612981E0
3.287816948E0,1.094716340E-1,-2.581257522E-1,-9.865906715E0,9.869889982E0
3.290262313E0,1.046859920E-1,-2.485544533E-1,-9.875477791E0,9.879159887E0
3.292706740E0,9.511470050E-2,-2.533400953E-1,-9.863513947E0,9.867225313E0
3.295150490E0,1.046859920E-1,-2.389831543E-1,-9.892228127E0,9.895668215E0
3.297594969E0,1.022931710E-1,-2.485544533E-1,-9.861121178E0,9.864783530E0
3.300040333E0,9.990034252E-2,-2.533400953E-1,-9.877870560E0,9.881623757E0
3.302484761E0,8.075776696E-2,-2.485544533E-1,-9.868299484E0,9.871759511E0
3.304928511E0,1.022931710E-1,-2.748754919E-1,-9.865906715E0,9.870265232E0
3.307372990E0,9.990034252E-2,-2.461616248E-1,-9.880263329E0,9.883834229E0
3.309818354E0,9.032905847E-2,-2.509472668E-1,-9.858728409E0,9.862335408E0
3.312262833E0,9.750752151E-2,-2.700898647E-1,-9.868299484E0,9.872476435E0
3.314706531E0,9.272187948E-2,-2.653042078E-1,-9.887442589E0,9.891435923E0
3.317151011E0,9.750752151E-2,-2.509472668E-1,-9.865906715E0,9.869579402E0
3.319596375E0,1.046859920E-1,-2.629113793E-1,-9.882657051E0,9.886707841E0
3.322040854E0,1.022931710E-1,-2.629113793E-1,-9.861121178E0,9.865155709E0
3.324484552E0,1.118644550E-1,-2.605185509E-1,-9.863513947E0,9.867587899E0
3.326929031E0,9.990034252E-2,-2.509472668E-1,-9.858728409E0,9.862427716E0
3.329374396E0,9.032905847E-2,-2.557329237E-1,-9.841979027E0,9.845715303E0
3.331818875E0,1.046859920E-1,-2.509472668E-1,-9.858728409E0,9.862477352E0
3.334262573E0,6.879365444E-2,-2.557329237E-1,-9.865906715E0,9.869460330E0
3.336707156E0,9.990034252E-2,-2.557329237E-1,-9.856335640E0,9.860158805E0
3.339152417E0,8.793623000E-2,-2.485544533E-1,-9.844371796E0,9.847901713E0
3.341596896E0,1.046859920E-1,-2.605185509E-1,-9.873085022E0,9.877076335E0
3.344040594E0,9.272187948E-2,-2.605185509E-1,-9.880263329E0,9.884132269E0
3.346485177E0,9.272187948E-2,-2.676970363E-1,-9.863513947E0,9.867581589E0
3.348930438E0,7.597211748E-2,-2.629113793E-1,-9.870692253E0,9.874485288E0
3.351374917E0,7.836493850E-2,-2.318046987E-1,-9.861121178E0,9.864156597E0
3.353818615E0,1.094716340E-1,-2.533400953E-1,-9.870692253E0,9.874549650E0
3.356263198E0,9.032905847E-2,-2.724826932E-1,-9.858728409E0,9.862906874E0
3.358708511E0,9.511470050E-2,-2.485544533E-1,-9.868299484E0,9.871887400E0
3.361152938E0,9.990034252E-2,-2.724826932E-1,-9.841979027E0,9.846257058E0
3.363596636E0,7.357929647E-2,-2.605185509E-1,-9.861121178E0,9.864836274E0
3.366038540E0,9.750752151E-2,-2.533400953E-1,-9.846764565E0,9.850505637E0
3.368483852E0,9.990034252E-2,-2.557329237E-1,-9.861121178E0,9.864942488E0
3.370928279E0,9.272187948E-2,-2.629113793E-1,-9.875477791E0,9.879411994E0
3.373371977E0,7.597211748E-2,-2.437688112E-1,-9.861121178E0,9.864426282E0
3.375816561E0,7.118647546E-2,-2.533400953E-1,-9.875477791E0,9.878983263E0
3.378261873E0,8.075776696E-2,-2.581257522E-1,-9.870692253E0,9.874397008E0
3.380706300E0,9.511470050E-2,-2.605185509E-1,-9.877870560E0,9.881763178E0
3.383150050E0,8.793623000E-2,-2.533400953E-1,-9.851550102E0,9.855199308E0
3.385594529E0,1.046859920E-1,-2.629113793E-1,-9.861121178E0,9.865180811E0
3.388039894E0,7.597211748E-2,-2.557329237E-1,-9.875477791E0,9.879080559E0
3.390484321E0,1.094716340E-1,-2.653042078E-1,-9.856335640E0,9.860513304E0
3.392928071E0,9.990034252E-2,-2.653042078E-1,-9.863513947E0,9.867587029E0
3.395372550E0,9.511470050E-2,-2.485544533E-1,-9.875477791E0,9.879063099E0
3.397817915E0,9.750752151E-2,-2.772683203E-1,-9.873085022E0,9.877458848E0
3.400262342E0,8.793623000E-2,-2.605185509E-1,-9.861121178E0,9.864953805E0
3.402706092E0,1.046859920E-1,-2.485544533E-1,-9.889835358E0,9.893512110E0
3.405150571E0,8.075776696E-2,-2.653042078E-1,-9.880263329E0,9.884154571E0
3.407595936E0,1.070788130E-1,-2.581257522E-1,-9.861121178E0,9.865080114E0
3.410040415E0,9.272187948E-2,-2.365903407E-1,-9.870692253E0,9.873962624E0
3.412484113E0,8.315058798E-2,-2.461616248E-1,-9.865906715E0,9.869327479E0
3.414928592E0,9.511470050E-2,-2.629113793E-1,-9.853942871E0,9.857908465E0
3.417373957E0,9.990034252E-2,-2.389831543E-1,-9.853942871E0,9.857346658E0
3.419818436E0,8.315058798E-2,-2.461616248E-1,-9.863513947E0,9.866935539E0
3.422262134E0,6.879365444E-2,-2.700898647E-1,-9.868299484E0,9.872234591E0
3.424706613E0,9.272187948E-2,-2.629113793E-1,-9.858728409E0,9.862669293E0
3.427151977E0,8.075776696E-2,-2.533400953E-1,-9.863513947E0,9.867097364E0
3.429596457E0,7.836493850E-2,-2.653042078E-1,-9.856335640E0,9.860217018E0
3.432040154E0,8.793623000E-2,-2.509472668E-1,-9.873085022E0,9.876665184E0
3.434484738E0,1.046859920E-1,-2.676970363E-1,-9.861121178E0,9.865309511E0
3.436929998E0,1.094716340E-1,-2.653042078E-1,-9.851550102E0,9.855729794E0
3.439374477E0,9.032905847E-2,-2.581257522E-1,-9.858728409E0,9.862520676E0
3.441818175E0,1.022931710E-1,-2.581257522E-1,-9.861121178E0,9.865029330E0
3.444262759E0,1.022931710E-1,-2.676970363E-1,-9.868299484E0,9.872459689E0
3.446708019E0,1.118644550E-1,-2.581257522E-1,-9.865906715E0,9.869916812E0
3.449152498E0,9.511470050E-2,-2.389831543E-1,-9.841979027E0,9.845339553E0
3.451596196E0,9.511470050E-2,-2.461616248E-1,-9.868299484E0,9.871827443E0
3.454040779E0,9.750752151E-2,-2.485544533E-1,-9.853942871E0,9.857559391E0
3.456486040E0,9.272187948E-2,-2.533400953E-1,-9.861121178E0,9.864810664E0
3.458930519E0,9.990034252E-2,-2.461616248E-1,-9.856335640E0,9.859915206E0
3.461374217E0,9.990034252E-2,-2.413759828E-1,-9.856335640E0,9.859796889E0
3.463818800E0,9.272187948E-2,-2.437688112E-1,-9.861121178E0,9.864569502E0
3.466264113E0,9.750752151E-2,-2.629113793E-1,-9.861121178E0,9.865107247E0
3.468708540E0,1.142572835E-1,-2.676970363E-1,-9.863513947E0,9.867807447E0
3.471152238E0,9.511470050E-2,-2.485544533E-1,-9.841979027E0,9.845576534E0
3.473596821E0,9.272187948E-2,-2.629113793E-1,-9.861121178E0,9.865061106E0
3.476042134E0,8.793623000E-2,-2.389831543E-1,-9.865906715E0,9.869192522E0
3.478486561E0,8.793623000E-2,-2.653042078E-1,-9.870692253E0,9.874648584E0
3.480930311E0,1.262213886E-1,-2.605185509E-1,-9.865906715E0,9.870152839E0
3.483374790E0,1.022931710E-1,-2.509472668E-1,-9.853942871E0,9.857668514E0
3.485820154E0,9.750752151E-2,-2.557329237E-1,-9.853942871E0,9.857743005E0
3.488264582E0,8.793623000E-2,-2.437688112E-1,-9.863513947E0,9.866917623E0
3.490708332E0,1.022931710E-1,-2.605185509E-1,-9.873085022E0,9.877051263E0
3.493152811E0,9.272187948E-2,-2.533400953E-1,-9.846764565E0,9.850459428E0
3.495598175E0,8.793623000E-2,-2.509472668E-1,-9.863513947E0,9.867097582E0
3.498042654E0,9.032905847E-2,-2.581257522E-1,-9.849157333E0,9.852953284E0
3.500486352E0,7.597211748E-2,-2.676970363E-1,-9.870692253E0,9.874613867E0
3.502930832E0,9.511470050E-2,-2.700898647E-1,-9.844371796E0,9.848535495E0
3.505376196E0,8.075776696E-2,-2.653042078E-1,-9.839586258E0,9.843493580E0
3.507820675E0,9.990034252E-2,-2.653042078E-1,-9.868299484E0,9.872370592E0
3.510264373E0,7.836493850E-2,-2.557329237E-1,-9.870692253E0,9.874315467E0
3.512708852E0,9.511470050E-2,-2.533400953E-1,-9.856335640E0,9.860049709E0
3.515154217E0,9.990034252E-2,-2.485544533E-1,-9.841979027E0,9.845623929E0
3.517598696E0,9.750752151E-2,-2.605185509E-1,-9.849157333E0,9.853084685E0
3.520042394E0,1.118644550E-1,-2.581257522E-1,-9.853942871E0,9.857957835E0
3.522486873E0,9.990034252E-2,-2.653042078E-1,-9.861121178E0,9.865195248E0
3.524932238E0,1.022931710E-1,-2.437688112E-1,-9.863513947E0,9.867056020E0
3.527376717E0,1.118644550E-1,-2.509472668E-1,-9.846764565E0,9.850596965E0
3.529820415E0,9.272187948E-2,-2.557329237E-1,-9.870692253E0,9.874439844E0
3.532264998E0,9.990034252E-2,-2.533400953E-1,-9.870692253E0,9.874448179E0
3.534710259E0,8.075776696E-2,-2.605185509E-1,-9.841979027E0,9.845757609E0
3.537154738E0,9.272187948E-2,-2.605185509E-1,-9.865906715E0,9.869781283E0
3.539598436E0,1.118644550E-1,-2.294118702E-1,-9.880263329E0,9.883559425E0
3.542043019E0,1.142572835E-1,-2.485544533E-1,-9.865906715E0,9.869698545E0
3.544488279E0,9.990034252E-2,-2.605185509E-1,-9.844371796E0,9.848325038E0
3.546932759E0,8.554340899E-2,-2.509472668E-1,-9.861121178E0,9.864684642E0
3.549376457E0,9.990034252E-2,-2.437688112E-1,-9.861121178E0,9.864639588E0
3.551821040E0,9.032905847E-2,-2.389831543E-1,-9.873085022E0,9.876390036E0
3.554266300E0,9.990034252E-2,-2.509472668E-1,-9.853942871E0,9.857643974E0
3.556710779E0,1.022931710E-1,-2.557329237E-1,-9.856335640E0,9.860183338E0
3.559154477E0,7.357929647E-2,-2.413759828E-1,-9.892228127E0,9.895446103E0
3.561599061E0,9.511470050E-2,-2.341975123E-1,-9.873085022E0,9.876320323E0
3.564044373E0,8.554340899E-2,-2.653042078E-1,-9.868299484E0,9.872235750E0
3.566488800E0,8.075776696E-2,-2.629113793E-1,-9.863513947E0,9.867347748E0
3.568932498E0,8.554340899E-2,-2.629113793E-1,-9.868299484E0,9.872171736E0
3.571377082E0,1.094716340E-1,-2.509472668E-1,-9.870692253E0,9.874488550E0
3.573822394E0,9.990034252E-2,-2.653042078E-1,-9.877870560E0,9.881937725E0
3.576266821E0,6.879365444E-2,-2.700898647E-1,-9.858728409E0,9.862667334E0
3.578710571E0,9.750752151E-2,-2.700898647E-1,-9.873085022E0,9.877259949E0
3.581155050E0,7.836493850E-2,-2.461616248E-1,-9.865906715E0,9.869288319E0
3.583600415E0,7.357929647E-2,-2.461616248E-1,-9.865906715E0,9.869251480E0
3.586044842E0,1.022931710E-1,-2.533400953E-1,-9.865906715E0,9.869688972E0
3.588488592E0,1.046859920E-1,-2.557329237E-1,-9.851550102E0,9.855424796E0
3.590933071E0,8.315058798E-2,-2.653042078E-1,-9.868299484E0,9.872215306E0
3.593378436E0,9.032905847E-2,-2.653042078E-1,-9.858728409E0,9.862711164E0
3.595822863E0,1.046859920E-1,-2.653042078E-1,-9.877870560E0,9.881987263E0
3.598266613E0,9.990034252E-2,-2.533400953E-1,-9.858728409E0,9.862488891E0
3.600711092E0,1.022931710E-1,-2.676970363E-1,-9.865906715E0,9.870067928E0
3.603156457E0,7.836493850E-2,-2.653042078E-1,-9.853942871E0,9.857825191E0
3.605600936E0,9.032905847E-2,-2.485544533E-1,-9.851550102E0,9.855099090E0
3.608044634E0,9.990034252E-2,-2.509472668E-1,-9.858728409E0,9.862427716E0
3.610489113E0,9.032905847E-2,-2.533400953E-1,-9.861121178E0,9.864788463E0
3.612934477E0,8.315058798E-2,-2.413759828E-1,-9.851550102E0,9.854857472E0
3.615378957E0,1.046859920E-1,-2.629113793E-1,-9.868299484E0,9.872356166E0
3.617822654E0,9.032905847E-2,-2.629113793E-1,-9.856335640E0,9.860255269E0
3.620267134E0,8.315058798E-2,-2.413759828E-1,-9.849157333E0,9.852465507E0
3.622712498E0,8.554340899E-2,-2.557329237E-1,-9.858728409E0,9.862415670E0
3.625156977E0,1.022931710E-1,-2.724826932E-1,-9.851550102E0,9.855848524E0
3.627600675E0,9.032905847E-2,-2.533400953E-1,-9.858728409E0,9.862396584E0
3.630045259E0,9.990034252E-2,-2.533400953E-1,-9.868299484E0,9.872056320E0
3.632490519E0,1.022931710E-1,-2.581257522E-1,-9.863513947E0,9.867421151E0
3.634934998E0,1.046859920E-1,-2.461616248E-1,-9.870692253E0,9.874316192E0
3.637378696E0,9.750752151E-2,-2.318046987E-1,-9.865906715E0,9.869111229E0
3.639823279E0,9.750752151E-2,-2.581257522E-1,-9.868299484E0,9.872156367E0
3.642268540E0,1.166501045E-1,-2.796611488E-1,-9.868299484E0,9.872950538E0
3.644713019E0,1.022931710E-1,-2.581257522E-1,-9.873085022E0,9.876988440E0
3.647156717E0,9.990034252E-2,-2.676970363E-1,-9.877870560E0,9.882002255E0
3.649601300E0,1.022931710E-1,-2.509472668E-1,-9.875477791E0,9.879195312E0
3.652046613E0,1.142572835E-1,-2.581257522E-1,-9.865906715E0,9.869944222E0
3.654491040E0,1.046859920E-1,-2.437688112E-1,-9.846764565E0,9.850337800E0
3.656934738E0,9.272187948E-2,-2.413759828E-1,-9.863513947E0,9.866902608E0
3.659379321E0,8.793623000E-2,-2.533400953E-1,-9.870692253E0,9.874334385E0
3.661824634E0,9.990034252E-2,-2.509472668E-1,-9.882657051E0,9.886347404E0
3.664269061E0,9.990034252E-2,-2.533400953E-1,-9.875477791E0,9.879231897E0
3.666712759E0,1.094716340E-1,-2.724826932E-1,-9.873085022E0,9.877451023E0
3.669157342E0,9.032905847E-2,-2.676970363E-1,-9.856335640E0,9.860384034E0
3.671602654E0,1.022931710E-1,-2.629113793E-1,-9.858728409E0,9.862763919E0
3.674047082E0,9.990034252E-2,-2.700898647E-1,-9.861121178E0,9.865325108E0
3.676490779E0,7.118647546E-2,-2.533400953E-1,-9.870692253E0,9.874199424E0
3.678935363E0,9.272187948E-2,-2.629113793E-1,-9.851550102E0,9.855493857E0
3.681380675E0,1.046859920E-1,-2.629113793E-1,-9.873085022E0,9.877139738E0
3.683825102E0,8.315058798E-2,-2.461616248E-1,-9.885049820E0,9.888463961E0
3.686268852E0,7.597211748E-2,-2.772683203E-1,-9.865906715E0,9.870094468E0
3.688713332E0,9.990034252E-2,-2.533400953E-1,-9.873085022E0,9.876840038E0
3.691158696E0,7.836493850E-2,-2.437688112E-1,-9.870692253E0,9.874012855E0
3.693603123E0,8.554340899E-2,-2.509472668E-1,-9.865906715E0,9.869468452E0
3.696046873E0,1.022931710E-1,-2.509472668E-1,-9.853942871E0,9.857668514E0
3.698491352E0,1.070788130E-1,-2.389831543E-1,-9.873085022E0,9.876557430E0
3.700936717E0,8.075776696E-2,-2.653042078E-1,-9.880263329E0,9.884154571E0
3.703381196E0,8.075776696E-2,-2.509472668E-1,-9.880263329E0,9.883779631E0
3.705824894E0,9.750752151E-2,-2.605185509E-1,-9.868299484E0,9.872219221E0
3.708269373E0,8.793623000E-2,-2.485544533E-1,-9.863513947E0,9.867037016E0
3.710714738E0,1.046859920E-1,-2.533400953E-1,-9.873085022E0,9.876889602E0
3.713159217E0,9.272187948E-2,-2.437688112E-1,-9.880263329E0,9.883704974E0
3.715602915E0,8.554340899E-2,-2.533400953E-1,-9.865906715E0,9.869529583E0
3.718047394E0,9.272187948E-2,-2.629113793E-1,-9.877870560E0,9.881803810E0
3.720492759E0,9.750752151E-2,-2.509472668E-1,-9.861121178E0,9.864795646E0
3.722937238E0,9.272187948E-2,-2.581257522E-1,-9.863513947E0,9.867326569E0
3.725380936E0,9.511470050E-2,-2.461616248E-1,-9.870692253E0,9.874219357E0
3.727825415E0,7.597211748E-2,-2.389831543E-1,-9.858728409E0,9.861917184E0
3.730270779E0,9.990034252E-2,-2.461616248E-1,-9.868299484E0,9.871874712E0
3.732715259E0,1.214357466E-1,-2.653042078E-1,-9.856335640E0,9.860653387E0
3.735158957E0,8.554340899E-2,-2.461616248E-1,-9.861121178E0,9.864564060E0
3.737603540E0,9.511470050E-2,-2.485544533E-1,-9.877870560E0,9.881455000E0
3.740048800E0,1.046859920E-1,-2.533400953E-1,-9.868299484E0,9.872105909E0
3.742493279E0,9.750752151E-2,-2.485544533E-1,-9.877870560E0,9.881478322E0
3.744936977E0,9.032905847E-2,-2.629113793E-1,-9.863513947E0,9.867430725E0
3.747381561E0,8.793623000E-2,-2.772683203E-1,-9.887442589E0,9.891720348E0
3.749826821E0,8.793623000E-2,-2.437688112E-1,-9.868299484E0,9.871701511E0
3.752271300E0,9.511470050E-2,-2.605185509E-1,-9.856335640E0,9.860236760E0
3.754714998E0,9.750752151E-2,-2.605185509E-1,-9.877870560E0,9.881786500E0
3.757159582E0,9.511470050E-2,-2.533400953E-1,-9.875477791E0,9.879184663E0
3.759604894E0,1.118644550E-1,-2.653042078E-1,-9.865906715E0,9.870107157E0
3.762049321E0,8.793623000E-2,-2.629113793E-1,-9.861121178E0,9.865017286E0
3.764493019E0,1.166501045E-1,-2.437688112E-1,-9.873085022E0,9.876782793E0
3.766937602E0,1.094716340E-1,-2.485544533E-1,-9.861121178E0,9.864860579E0
3.769382915E0,1.022931710E-1,-2.509472668E-1,-9.870692253E0,9.874411576E0
3.771827342E0,8.793623000E-2,-2.724826932E-1,-9.849157333E0,9.853318211E0
3.774271040E0,1.166501045E-1,-2.724826932E-1,-9.865906715E0,9.870358118E0
3.776715623E0,1.022931710E-1,-2.437688112E-1,-9.856335640E0,9.859880292E0
3.779160936E0,9.990034252E-2,-2.437688112E-1,-9.858728409E0,9.862247672E0
3.781605363E0,7.597211748E-2,-2.820539773E-1,-9.863513947E0,9.867838344E0
3.784049113E0,8.793623000E-2,-2.748754919E-1,-9.861121178E0,9.865343390E0
3.786493592E0,9.750752151E-2,-2.605185509E-1,-9.863513947E0,9.867435584E0
3.788938957E0,1.022931710E-1,-2.820539773E-1,-9.868299484E0,9.872859416E0
3.791383384E0,9.032905847E-2,-2.653042078E-1,-9.875477791E0,9.879453794E0
3.793827134E0,9.032905847E-2,-2.509472668E-1,-9.865906715E0,9.869511092E0
3.796271613E0,9.032905847E-2,-2.341975123E-1,-9.853942871E0,9.857139439E0
3.798716977E0,1.070788130E-1,-2.509472668E-1,-9.865906715E0,9.869678603E0
3.801161404E0,8.554340899E-2,-2.461616248E-1,-9.870692253E0,9.874131799E0
3.803605154E0,1.070788130E-1,-2.461616248E-1,-9.877870560E0,9.881517506E0
3.806049634E0,1.094716340E-1,-2.485544533E-1,-9.875477791E0,9.879211758E0
3.808494998E0,1.046859920E-1,-2.485544533E-1,-9.868299484E0,9.871984258E0
3.810939425E0,1.166501045E-1,-2.365903407E-1,-9.868299484E0,9.871824398E0
3.813383175E0,8.554340899E-2,-2.485544533E-1,-9.846764565E0,9.850272554E0
3.815827654E0,9.990034252E-2,-2.605185509E-1,-9.861121178E0,9.865067708E0
3.818273019E0,7.357929647E-2,-2.533400953E-1,-9.856335640E0,9.859865484E0
3.820717498E0,9.750752151E-2,-2.724826932E-1,-9.877870560E0,9.882109154E0
3.823161196E0,7.836493850E-2,-2.653042078E-1,-9.858728409E0,9.862608845E0
3.825605675E0,9.032905847E-2,-2.509472668E-1,-9.863513947E0,9.867119197E0
3.828051040E0,1.022931710E-1,-2.605185509E-1,-9.861121178E0,9.865092229E0
3.830495519E0,1.046859920E-1,-2.533400953E-1,-9.853942871E0,9.857754839E0
3.832939217E0,1.022931710E-1,-2.365903407E-1,-9.861121178E0,9.864489331E0
3.835383696E0,8.315058798E-2,-2.509472668E-1,-9.846764565E0,9.850312733E0
3.837829061E0,9.511470050E-2,-2.605185509E-1,-9.846764565E0,9.850669475E0
3.840273540E0,8.315058798E-2,-2.485544533E-1,-9.870692253E0,9.874171302E0
3.842717238E0,7.357929647E-2,-2.629113793E-1,-9.877870560E0,9.881642733E0
3.845161821E0,9.511470050E-2,-2.485544533E-1,-9.853942871E0,9.857536012E0
3.847607082E0,7.836493850E-2,-2.461616248E-1,-9.849157333E0,9.852544686E0
3.850051561E0,8.554340899E-2,-2.700898647E-1,-9.875477791E0,9.879540870E0
3.852495259E0,5.682953820E-2,-2.485544533E-1,-9.853942871E0,9.857240944E0
3.854939842E0,1.022931710E-1,-2.581257522E-1,-9.873085022E0,9.876988440E0
3.857385154E0,1.142572835E-1,-2.485544533E-1,-9.870692253E0,9.874482245E0
3.859829582E0,9.990034252E-2,-2.533400953E-1,-9.863513947E0,9.867272605E0
3.862273279E0,1.094716340E-1,-2.509472668E-1,-9.863513947E0,9.867313005E0
3.864717863E0,8.315058798E-2,-2.653042078E-1,-9.861121178E0,9.865039849E0
3.867163175E0,1.022931710E-1,-2.676970363E-1,-9.851550102E0,9.855717377E0
3.869607602E0,1.142572835E-1,-2.533400953E-1,-9.861121178E0,9.865036584E0
3.872051300E0,9.750752151E-2,-2.653042078E-1,-9.853942871E0,9.857995950E0
3.874495884E0,1.094716340E-1,-2.557329237E-1,-9.865906715E0,9.869827693E0
3.876941196E0,8.793623000E-2,-2.700898647E-1,-9.863513947E0,9.867602986E0
3.879385623E0,8.075776696E-2,-2.461616248E-1,-9.870692253E0,9.874091498E0
3.881829321E0,8.554340899E-2,-2.461616248E-1,-9.861121178E0,9.864564060E0
3.884273904E0,8.554340899E-2,-2.605185509E-1,-9.892228127E0,9.896027733E0
3.886719217E0,9.511470050E-2,-2.533400953E-1,-9.858728409E0,9.862441576E0
3.889163644E0,9.032905847E-2,-2.700898647E-1,-9.873085022E0,9.877191692E0
3.891607394E0,1.070788130E-1,-2.509472668E-1,-9.841979027E0,9.845760081E0
3.894051873E0,9.511470050E-2,-2.557329237E-1,-9.887442589E0,9.891206553E0
3.896497238E0,8.075776696E-2,-2.581257522E-1,-9.853942871E0,9.857653921E0
3.898941665E0,7.597211748E-2,-2.461616248E-1,-9.849157333E0,9.852525944E0
3.901385415E0,8.554340899E-2,-2.437688112E-1,-9.873085022E0,9.876464386E0
3.903829894E0,9.990034252E-2,-2.700898647E-1,-9.861121178E0,9.865325108E0
3.906275259E0,7.836493850E-2,-2.676970363E-1,-9.837192535E0,9.841146262E0
3.908719686E0,7.357929647E-2,-2.772683203E-1,-9.865906715E0,9.870076340E0
3.911163436E0,9.272187948E-2,-2.676970363E-1,-9.868299484E0,9.872365155E0
3.913607915E0,7.357929647E-2,-2.557329237E-1,-9.885049820E0,9.888631007E0
3.916053279E0,1.070788130E-1,-2.413759828E-1,-9.875477791E0,9.879007533E0
3.918497707E0,1.046859920E-1,-2.748754919E-1,-9.865906715E0,9.870290320E0
3.920941457E0,9.990034252E-2,-2.581257522E-1,-9.873085022E0,9.876963948E0
3.923385936E0,9.032905847E-2,-2.389831543E-1,-9.873085022E0,9.876390036E0
3.925831300E0,8.793623000E-2,-2.365903407E-1,-9.880263329E0,9.883486794E0
3.928275779E0,9.272187948E-2,-2.461616248E-1,-9.868299484E0,9.871804678E0
3.930719477E0,8.554340899E-2,-2.676970363E-1,-9.870692253E0,9.874692144E0
3.933163957E0,1.022931710E-1,-2.772683203E-1,-9.849157333E0,9.853590300E0
3.935609321E0,9.750752151E-2,-2.581257522E-1,-9.846764565E0,9.850629879E0
3.938053800E0,9.511470050E-2,-2.557329237E-1,-9.868299484E0,9.872070748E0
3.940497498E0,9.511470050E-2,-2.629113793E-1,-9.861121178E0,9.865083886E0
3.942942082E0,8.315058798E-2,-2.389831543E-1,-9.868299484E0,9.871543024E0
3.945387342E0,8.315058798E-2,-2.533400953E-1,-9.856335640E0,9.859941555E0
3.947831821E0,9.511470050E-2,-2.629113793E-1,-9.885049820E0,9.889002940E0
3.950275519E0,7.597211748E-2,-2.413759828E-1,-9.851550102E0,9.854799518E0
3.952719998E0,1.118644550E-1,-2.629113793E-1,-9.875477791E0,9.879610197E0
3.955165363E0,8.793623000E-2,-2.629113793E-1,-9.851550102E0,9.855449994E0
3.957609842E0,7.357929647E-2,-2.629113793E-1,-9.882657051E0,9.886427398E0
3.960053540E0,9.511470050E-2,-2.461616248E-1,-9.861121178E0,9.864651704E0
3.962498123E0,8.315058798E-2,-2.629113793E-1,-9.882657051E0,9.886503265E0
3.964943384E0,1.070788130E-1,-2.533400953E-1,-9.853942871E0,9.857780540E0
3.967387863E0,1.070788130E-1,-2.533400953E-1,-9.870692253E0,9.874523413E0
3.969831561E0,9.750752151E-2,-2.653042078E-1,-9.853942871E0,9.857995950E0
3.972276144E0,1.142572835E-1,-2.461616248E-1,-9.868299484E0,9.872030439E0
3.974721457E0,9.272187948E-2,-2.605185509E-1,-9.856335640E0,9.860213969E0
