"Time (s)","Gyroscope x (rad/s)","Gyroscope y (rad/s)","Gyroscope z (rad/s)","Absolute (rad/s)"
4.199028100E-2,3.054236295E-4,-2.443389036E-3,1.679830020E-3,2.980815739E-3
4.443543800E-2,1.527118147E-3,-1.221694518E-3,-1.985253533E-3,2.786729072E-3
4.687970900E-2,1.527118147E-3,-1.221694518E-3,-7.635590737E-4,2.099440352E-3
4.932325000E-2,1.527118147E-3,-1.221694518E-3,4.581354442E-4,2.008610320E-3
5.176762500E-2,3.054236295E-4,-1.221694518E-3,4.581354442E-4,1.340040736E-3
5.421272900E-2,3.054236295E-4,-1.221694518E-3,2.901524538E-3,3.163015291E-3
5.665700000E-2,3.054236295E-4,-1.221694518E-3,4.581354442E-4,1.340040736E-3
5.910054200E-2,3.054236295E-4,0.000000000E0,-7.635590737E-4,8.223782903E-4
6.154491700E-2,1.527118147E-3,0.000000000E0,-7.635590737E-4,1.707369994E-3
6.399002100E-2,3.054236295E-4,-1.221694518E-3,-7.635590737E-4,1.472699408E-3
6.643429200E-2,-9.162708884E-4,-1.221694518E-3,-7.635590737E-4,1.707369994E-3
6.887783400E-2,3.054236295E-4,-1.221694518E-3,4.581354442E-4,1.340040736E-3
7.132220900E-2,3.054236295E-4,-1.221694518E-3,4.581354442E-4,1.340040736E-3
7.376736500E-2,1.527118147E-3,0.000000000E0,1.679830020E-3,2.270224379E-3
7.621163600E-2,-2.137965523E-3,0.000000000E0,-7.635590737E-4,2.270224446E-3
7.865517700E-2,3.054236295E-4,-1.221694518E-3,-1.985253533E-3,2.350968456E-3
8.109955200E-2,3.054236295E-4,-1.221694518E-3,-1.985253533E-3,2.350968456E-3
8.354465600E-2,3.054236295E-4,-1.221694518E-3,4.581354442E-4,1.340040736E-3
8.598892700E-2,3.054236295E-4,-1.221694518E-3,-7.635590737E-4,1.472699408E-3
8.843246900E-2,3.054236295E-4,-1.221694518E-3,-7.635590737E-4,1.472699408E-3
9.087684400E-2,1.527118147E-3,0.000000000E0,4.581354442E-4,1.594358153E-3
9.332200000E-2,3.054236295E-4,1.221694518E-3,4.581354442E-4,1.340040736E-3
9.576627100E-2,1.527118147E-3,0.000000000E0,1.679830020E-3,2.270224379E-3
9.820976100E-2,3.054236295E-4,-1.221694518E-3,4.581354442E-4,1.340040736E-3
1.006541360E-1,3.054236295E-4,0.000000000E0,2.901524538E-3,2.917555182E-3
1.030992920E-1,3.054236295E-4,-1.221694518E-3,4.581354442E-4,1.340040736E-3
1.055435630E-1,3.054236295E-4,-1.221694518E-3,-7.635590737E-4,1.472699408E-3
1.079871040E-1,1.527118147E-3,-1.221694518E-3,-1.985253533E-3,2.786729072E-3
1.104314790E-1,-9.162708884E-4,0.000000000E0,-7.635590737E-4,1.192717402E-3
1.128765840E-1,3.054236295E-4,0.000000000E0,-7.635590737E-4,8.223782903E-4
1.153208540E-1,-9.162708884E-4,0.000000000E0,1.679830020E-3,1.913473605E-3
1.177643960E-1,3.054236295E-4,0.000000000E0,-7.635590737E-4,8.223782903E-4
1.202087710E-1,3.054236295E-4,-1.221694518E-3,1.679830020E-3,2.099440398E-3
1.226539270E-1,-9.162708884E-4,0.000000000E0,1.679830020E-3,1.913473605E-3
1.250981980E-1,3.054236295E-4,-1.221694518E-3,-1.985253533E-3,2.350968456E-3
1.275416880E-1,3.054236295E-4,1.221694518E-3,-7.635590737E-4,1.472699408E-3
1.299861150E-1,3.054236295E-4,0.000000000E0,-7.635590737E-4,8.223782903E-4
1.324312190E-1,1.527118147E-3,-1.221694518E-3,-7.635590737E-4,2.099440352E-3
1.348754900E-1,1.527118147E-3,-1.221694518E-3,4.581354442E-4,2.008610320E-3
1.373190310E-1,1.527118147E-3,0.000000000E0,1.679830020E-3,2.270224379E-3
1.397634060E-1,-9.162708884E-4,-1.221694518E-3,4.581354442E-4,1.594358153E-3
1.422085110E-1,3.054236295E-4,-2.443389036E-3,4.581354442E-4,2.504659989E-3
1.446527810E-1,-9.162708884E-4,0.000000000E0,4.581354442E-4,1.024421996E-3
1.470963230E-1,-9.162708884E-4,0.000000000E0,4.581354442E-4,1.024421996E-3
1.495406980E-1,-9.162708884E-4,0.000000000E0,4.581354442E-4,1.024421996E-3
1.519858540E-1,1.527118147E-3,0.000000000E0,1.679830020E-3,2.270224379E-3
1.544301250E-1,-9.162708884E-4,0.000000000E0,4.581354442E-4,1.024421996E-3
1.568736150E-1,-9.162708884E-4,0.000000000E0,4.581354442E-4,1.024421996E-3
1.593180420E-1,3.054236295E-4,0.000000000E0,4.581354442E-4,5.506102784E-4
1.617631460E-1,3.054236295E-4,0.000000000E0,-7.635590737E-4,8.223782903E-4
1.642074170E-1,3.054236295E-4,0.000000000E0,-7.635590737E-4,8.223782903E-4
1.666509590E-1,3.054236295E-4,-1.221694518E-3,-7.635590737E-4,1.472699408E-3
1.690953340E-1,1.527118147E-3,-1.221694518E-3,4.581354442E-4,2.008610320E-3
1.715404380E-1,3.054236295E-4,0.000000000E0,-7.635590737E-4,8.223782903E-4
1.739847090E-1,1.527118147E-3,-2.443389036E-3,-1.985253533E-3,3.499067220E-3
1.764282500E-1,1.527118147E-3,-2.443389036E-3,4.581354442E-4,2.917555124E-3
1.788726250E-1,3.054236295E-4,0.000000000E0,4.581354442E-4,5.506102784E-4
1.813177810E-1,3.054236295E-4,-1.221694518E-3,-7.635590737E-4,1.472699408E-3
1.837620520E-1,1.527118147E-3,-1.221694518E-3,-7.635590737E-4,2.099440352E-3
1.862055940E-1,3.054236295E-4,0.000000000E0,-1.985253533E-3,2.008610262E-3
1.886499690E-1,-9.162708884E-4,1.221694518E-3,1.679830020E-3,2.270224379E-3
1.910950730E-1,-9.162708884E-4,1.221694518E-3,-7.635590737E-4,1.707369994E-3
1.935393440E-1,-9.162708884E-4,0.000000000E0,-7.635590737E-4,1.192717402E-3
1.959828860E-1,-9.162708884E-4,0.000000000E0,-1.985253533E-3,2.186500385E-3
1.984272610E-1,-9.162708884E-4,0.000000000E0,4.581354442E-4,1.024421996E-3
2.008723650E-1,3.054236295E-4,-1.221694518E-3,4.581354442E-4,1.340040736E-3
2.033166360E-1,1.527118147E-3,-2.443389036E-3,4.581354442E-4,2.917555124E-3
2.057601770E-1,3.054236295E-4,-1.221694518E-3,-1.985253533E-3,2.350968456E-3
2.082045520E-1,3.054236295E-4,0.000000000E0,4.581354442E-4,5.506102784E-4
2.106497090E-1,1.527118147E-3,0.000000000E0,4.581354442E-4,1.594358153E-3
2.130939790E-1,1.527118147E-3,-1.221694518E-3,4.581354442E-4,2.008610320E-3
2.155375210E-1,2.748812549E-3,-1.221694518E-3,1.679830020E-3,3.445335516E-3
2.179818960E-1,1.527118147E-3,-1.221694518E-3,-7.635590737E-4,2.099440352E-3
2.204270000E-1,3.054236295E-4,-1.221694518E-3,1.679830020E-3,2.099440398E-3
2.228712710E-1,-9.162708884E-4,0.000000000E0,4.581354442E-4,1.024421996E-3
2.253148130E-1,1.527118147E-3,0.000000000E0,-7.635590737E-4,1.707369994E-3
2.277591880E-1,3.054236295E-4,-2.443389036E-3,4.581354442E-4,2.504659989E-3
2.302042920E-1,3.054236295E-4,-1.221694518E-3,1.679830020E-3,2.099440398E-3
2.326485630E-1,-9.162708884E-4,-1.221694518E-3,4.581354442E-4,1.594358153E-3
2.350921040E-1,3.054236295E-4,1.221694518E-3,-7.635590737E-4,1.472699408E-3
2.375364790E-1,1.527118147E-3,-1.221694518E-3,4.581354442E-4,2.008610320E-3
2.399816360E-1,1.527118147E-3,-1.221694518E-3,1.679830020E-3,2.578072192E-3
2.424259060E-1,3.054236295E-4,-1.221694518E-3,4.581354442E-4,1.340040736E-3
2.448694480E-1,1.527118147E-3,-1.221694518E-3,-7.635590737E-4,2.099440352E-3
2.473138230E-1,-9.162708884E-4,0.000000000E0,-7.635590737E-4,1.192717402E-3
2.497589270E-1,3.054236295E-4,-1.221694518E-3,1.679830020E-3,2.099440398E-3
2.522031980E-1,3.054236295E-4,0.000000000E0,1.679830020E-3,1.707370051E-3
2.546467400E-1,1.527118147E-3,0.000000000E0,4.581354442E-4,1.594358153E-3
2.570911150E-1,3.054236295E-4,1.221694518E-3,1.679830020E-3,2.099440398E-3
2.595362710E-1,3.054236295E-4,0.000000000E0,1.679830020E-3,1.707370051E-3
2.619804900E-1,3.054236295E-4,-1.221694518E-3,4.581354442E-4,1.340040736E-3
2.644240310E-1,3.054236295E-4,-1.221694518E-3,-7.635590737E-4,1.472699408E-3
2.668684060E-1,3.054236295E-4,-1.221694518E-3,-1.985253533E-3,2.350968456E-3
2.693135630E-1,1.527118147E-3,1.221694518E-3,4.581354442E-4,2.008610320E-3
2.717578340E-1,3.054236295E-4,-1.221694518E-3,-7.635590737E-4,1.472699408E-3
2.742013750E-1,3.054236295E-4,0.000000000E0,-7.635590737E-4,8.223782903E-4
2.766457500E-1,1.527118147E-3,-1.221694518E-3,4.581354442E-4,2.008610320E-3
2.790908540E-1,3.054236295E-4,1.221694518E-3,-1.985253533E-3,2.350968456E-3
2.815351250E-1,-9.162708884E-4,0.000000000E0,-7.635590737E-4,1.192717402E-3
2.839786670E-1,3.054236295E-4,-2.443389036E-3,-1.985253533E-3,3.163015202E-3
2.864230420E-1,-9.162708884E-4,-2.443389036E-3,-7.635590737E-4,2.718956561E-3
2.888681980E-1,1.527118147E-3,-1.221694518E-3,4.581354442E-4,2.008610320E-3
2.913124690E-1,1.527118147E-3,-1.221694518E-3,-7.635590737E-4,2.099440352E-3
2.937559590E-1,3.054236295E-4,0.000000000E0,-7.635590737E-4,8.223782903E-4
2.962003860E-1,-9.162708884E-4,-1.221694518E-3,-7.635590737E-4,1.707369994E-3
2.986454900E-1,-9.162708884E-4,1.221694518E-3,4.581354442E-4,1.594358153E-3
3.010897610E-1,3.054236295E-4,0.000000000E0,4.581354442E-4,5.506102784E-4
3.035333020E-1,3.054236295E-4,-1.221694518E-3,-3.206948051E-3,3.445335527E-3
3.059776770E-1,3.054236295E-4,-1.221694518E-3,4.581354442E-4,1.340040736E-3
3.084227810E-1,3.054236295E-4,-2.443389036E-3,-7.635590737E-4,2.578072154E-3
3.108670520E-1,3.054236295E-4,-1.221694518E-3,-7.635590737E-4,1.472699408E-3
3.133105940E-1,3.054236295E-4,0.000000000E0,4.581354442E-4,5.506102784E-4
3.157549690E-1,-9.162708884E-4,0.000000000E0,1.679830020E-3,1.913473605E-3
3.182001250E-1,3.054236295E-4,0.000000000E0,4.581354442E-4,5.506102784E-4
3.206443960E-1,2.748812549E-3,-1.221694518E-3,-7.635590737E-4,3.103470699E-3
3.230879380E-1,1.527118147E-3,-2.443389036E-3,1.679830020E-3,3.335276407E-3
3.255323130E-1,3.054236295E-4,0.000000000E0,4.581354442E-4,5.506102784E-4
3.279774170E-1,3.054236295E-4,1.221694518E-3,-7.635590737E-4,1.472699408E-3
3.304216880E-1,3.054236295E-4,-1.221694518E-3,4.581354442E-4,1.340040736E-3
3.328652290E-1,3.054236295E-4,0.000000000E0,-7.635590737E-4,8.223782903E-4
3.353096040E-1,1.527118147E-3,-1.221694518E-3,4.581354442E-4,2.008610320E-3
3.377547090E-1,2.748812549E-3,0.000000000E0,2.901524538E-3,3.996850644E-3
3.401989790E-1,3.054236295E-4,0.000000000E0,1.679830020E-3,1.707370051E-3
3.426425210E-1,3.054236295E-4,-3.665083554E-3,-7.635590737E-4,3.756213986E-3
3.450868960E-1,3.054236295E-4,-1.221694518E-3,-1.985253533E-3,2.350968456E-3
3.475320520E-1,-9.162708884E-4,-1.221694518E-3,4.581354442E-4,1.594358153E-3
3.499763230E-1,3.054236295E-4,1.221694518E-3,1.679830020E-3,2.099440398E-3
3.524198650E-1,1.527118147E-3,-1.221694518E-3,-7.635590737E-4,2.099440352E-3
3.548642400E-1,1.527118147E-3,-1.221694518E-3,-7.635590737E-4,2.099440352E-3
3.573093440E-1,-9.162708884E-4,0.000000000E0,4.581354442E-4,1.024421996E-3
3.597536150E-1,3.054236295E-4,-1.221694518E-3,4.581354442E-4,1.340040736E-3
3.621971560E-1,3.054236295E-4,0.000000000E0,-7.635590737E-4,8.223782903E-4
3.646415310E-1,-9.162708884E-4,0.000000000E0,4.581354442E-4,1.024421996E-3
3.670866360E-1,3.054236295E-4,0.000000000E0,4.581354442E-4,5.506102784E-4
3.695310110E-1,3.054236295E-4,-1.221694518E-3,4.581354442E-4,1.340040736E-3
3.719744480E-1,3.054236295E-4,0.000000000E0,-7.635590737E-4,8.223782903E-4
3.744188230E-1,3.054236295E-4,0.000000000E0,4.581354442E-4,5.506102784E-4
3.768639790E-1,3.054236295E-4,1.221694518E-3,4.581354442E-4,1.340040736E-3
3.793082500E-1,3.054236295E-4,-1.221694518E-3,1.679830020E-3,2.099440398E-3
3.817517920E-1,3.054236295E-4,0.000000000E0,-7.635590737E-4,8.223782903E-4
3.841961670E-1,-2.137965523E-3,-1.221694518E-3,-7.635590737E-4,2.578072251E-3
3.866412710E-1,-9.162708884E-4,0.000000000E0,4.581354442E-4,1.024421996E-3
3.890855420E-1,3.054236295E-4,-1.221694518E-3,-7.635590737E-4,1.472699408E-3
3.915290840E-1,3.054236295E-4,-1.221694518E-3,4.581354442E-4,1.340040736E-3
3.939734590E-1,3.054236295E-4,0.000000000E0,-7.635590737E-4,8.223782903E-4
3.964185630E-1,3.054236295E-4,0.000000000E0,-7.635590737E-4,8.223782903E-4
3.988629380E-1,2.748812549E-3,-2.443389036E-3,-1.985253533E-3,4.179396129E-3
4.013063750E-1,-9.162708884E-4,-1.221694518E-3,-1.985253533E-3,2.504659943E-3
4.037507500E-1,1.527118147E-3,-3.665083554E-3,4.581354442E-4,3.996850682E-3
4.061959060E-1,3.054236295E-4,-2.443389036E-3,-1.985253533E-3,3.163015202E-3
4.086401770E-1,3.054236295E-4,0.000000000E0,-7.635590737E-4,8.223782903E-4
4.110837190E-1,3.054236295E-4,0.000000000E0,-1.985253533E-3,2.008610262E-3
4.135280940E-1,1.527118147E-3,-1.221694518E-3,4.581354442E-4,2.008610320E-3
4.159731980E-1,3.054236295E-4,-1.221694518E-3,4.581354442E-4,1.340040736E-3
4.184174690E-1,3.054236295E-4,0.000000000E0,-7.635590737E-4,8.223782903E-4
4.208610110E-1,3.054236295E-4,-1.221694518E-3,4.581354442E-4,1.340040736E-3
4.233053860E-1,3.054236295E-4,0.000000000E0,1.679830020E-3,1.707370051E-3
4.257505420E-1,3.054236295E-4,1.221694518E-3,4.581354442E-4,1.340040736E-3
4.281948130E-1,3.054236295E-4,0.000000000E0,4.581354442E-4,5.506102784E-4
4.306383020E-1,3.054236295E-4,-1.221694518E-3,-7.635590737E-4,1.472699408E-3
4.330826770E-1,3.054236295E-4,0.000000000E0,4.581354442E-4,5.506102784E-4
4.355278340E-1,3.054236295E-4,-1.221694518E-3,4.581354442E-4,1.340040736E-3
4.379721040E-1,3.054236295E-4,-1.221694518E-3,4.581354442E-4,1.340040736E-3
4.404156460E-1,3.054236295E-4,-1.221694518E-3,-7.635590737E-4,1.472699408E-3
4.428600210E-1,-9.162708884E-4,1.221694518E-3,-7.635590737E-4,1.707369994E-3
4.453051250E-1,1.527118147E-3,0.000000000E0,4.581354442E-4,1.594358153E-3
4.477493960E-1,3.054236295E-4,0.000000000E0,-7.635590737E-4,8.223782903E-4
4.501929380E-1,-9.162708884E-4,0.000000000E0,-7.635590737E-4,1.192717402E-3
4.526373130E-1,3.054236295E-4,0.000000000E0,1.679830020E-3,1.707370051E-3
4.550824690E-1,1.527118147E-3,1.221694518E-3,1.679830020E-3,2.578072192E-3
4.575267400E-1,3.054236295E-4,-1.221694518E-3,4.581354442E-4,1.340040736E-3
4.599702290E-1,1.527118147E-3,-1.221694518E-3,4.581354442E-4,2.008610320E-3
4.624146040E-1,3.054236295E-4,-2.443389036E-3,1.679830020E-3,2.980815739E-3
4.648597610E-1,3.054236295E-4,0.000000000E0,-7.635590737E-4,8.223782903E-4
4.673040310E-1,3.054236295E-4,-1.221694518E-3,-7.635590737E-4,1.472699408E-3
4.697475730E-1,3.054236295E-4,0.000000000E0,1.679830020E-3,1.707370051E-3
4.721919480E-1,3.054236295E-4,0.000000000E0,-7.635590737E-4,8.223782903E-4
4.746370520E-1,3.054236295E-4,1.221694518E-3,-7.635590737E-4,1.472699408E-3
4.770813230E-1,3.054236295E-4,1.221694518E-3,-7.635590737E-4,1.472699408E-3
4.795248650E-1,1.527118147E-3,-1.221694518E-3,-1.985253533E-3,2.786729072E-3
4.819692400E-1,3.054236295E-4,0.000000000E0,-7.635590737E-4,8.223782903E-4
4.844143960E-1,-9.162708884E-4,0.000000000E0,-1.985253533E-3,2.186500385E-3
4.868586670E-1,3.054236295E-4,-1.221694518E-3,4.581354442E-4,1.340040736E-3
4.893022090E-1,3.054236295E-4,-1.221694518E-3,1.679830020E-3,2.099440398E-3
4.917465840E-1,1.527118147E-3,-1.221694518E-3,4.581354442E-4,2.008610320E-3
4.941916880E-1,1.527118147E-3,-1.221694518E-3,4.581354442E-4,2.008610320E-3
4.966359590E-1,3.054236295E-4,0.000000000E0,4.581354442E-4,5.506102784E-4
4.990795000E-1,1.527118147E-3,-1.221694518E-3,1.679830020E-3,2.578072192E-3
5.015238750E-1,3.054236295E-4,0.000000000E0,-7.635590737E-4,8.223782903E-4
5.039689790E-1,-9.162708884E-4,1.221694518E-3,-7.635590737E-4,1.707369994E-3
5.064132500E-1,3.054236295E-4,0.000000000E0,1.679830020E-3,1.707370051E-3
5.088567920E-1,3.054236295E-4,1.221694518E-3,1.679830020E-3,2.099440398E-3
5.113011670E-1,3.054236295E-4,0.000000000E0,4.581354442E-4,5.506102784E-4
5.137463230E-1,-9.162708884E-4,0.000000000E0,1.679830020E-3,1.913473605E-3
5.161905940E-1,3.054236295E-4,0.000000000E0,4.581354442E-4,5.506102784E-4
5.186341360E-1,3.054236295E-4,-2.443389036E-3,-1.985253533E-3,3.163015202E-3
5.210785110E-1,-9.162708884E-4,-1.221694518E-3,-1.985253533E-3,2.504659943E-3
5.235236150E-1,3.054236295E-4,0.000000000E0,4.581354442E-4,5.506102784E-4
5.259678860E-1,1.527118147E-3,0.000000000E0,4.581354442E-4,1.594358153E-3
5.284114270E-1,3.054236295E-4,1.221694518E-3,4.581354442E-4,1.340040736E-3
5.308558020E-1,3.054236295E-4,0.000000000E0,-7.635590737E-4,8.223782903E-4
5.333009060E-1,-2.137965523E-3,-2.443389036E-3,4.581354442E-4,3.278861791E-3
5.357451770E-1,3.054236295E-4,1.221694518E-3,4.581354442E-4,1.340040736E-3
5.381887190E-1,3.054236295E-4,1.221694518E-3,-7.635590737E-4,1.472699408E-3
5.406330940E-1,3.054236295E-4,0.000000000E0,-7.635590737E-4,8.223782903E-4
5.430782500E-1,3.054236295E-4,-1.221694518E-3,-1.985253533E-3,2.350968456E-3
5.455225210E-1,1.527118147E-3,0.000000000E0,-1.985253533E-3,2.504659943E-3
5.479660630E-1,1.527118147E-3,1.221694518E-3,-7.635590737E-4,2.099440352E-3
5.504104380E-1,-9.162708884E-4,0.000000000E0,-7.635590737E-4,1.192717402E-3
5.528555420E-1,3.054236295E-4,-1.221694518E-3,-7.635590737E-4,1.472699408E-3
5.552998130E-1,-9.162708884E-4,1.221694518E-3,1.679830020E-3,2.270224379E-3
5.577433540E-1,3.054236295E-4,-2.443389036E-3,-7.635590737E-4,2.578072154E-3
5.601877290E-1,3.054236295E-4,-1.221694518E-3,4.581354442E-4,1.340040736E-3
5.626328340E-1,1.527118147E-3,-1.221694518E-3,-7.635590737E-4,2.099440352E-3
5.650771040E-1,3.054236295E-4,-1.221694518E-3,1.679830020E-3,2.099440398E-3
5.675206460E-1,3.054236295E-4,-1.221694518E-3,-7.635590737E-4,1.472699408E-3
5.699650210E-1,1.527118147E-3,0.000000000E0,-7.635590737E-4,1.707369994E-3
5.724101770E-1,3.054236295E-4,-1.221694518E-3,-7.635590737E-4,1.472699408E-3
5.748544480E-1,-9.162708884E-4,-1.221694518E-3,1.679830020E-3,2.270224379E-3
5.772979900E-1,-9.162708884E-4,0.000000000E0,-1.985253533E-3,2.186500385E-3
5.797423650E-1,3.054236295E-4,-2.443389036E-3,4.581354442E-4,2.504659989E-3
5.821874690E-1,1.527118147E-3,-1.221694518E-3,-7.635590737E-4,2.099440352E-3
5.846317400E-1,3.054236295E-4,0.000000000E0,4.581354442E-4,5.506102784E-4
5.870752810E-1,3.054236295E-4,0.000000000E0,-3.206948051E-3,3.221459203E-3
5.895196560E-1,1.527118147E-3,-2.443389036E-3,-1.985253533E-3,3.499067220E-3
5.919647610E-1,3.054236295E-4,-1.221694518E-3,-7.635590737E-4,1.472699408E-3
5.944091360E-1,1.527118147E-3,-1.221694518E-3,-7.635590737E-4,2.099440352E-3
5.968525730E-1,3.054236295E-4,0.000000000E0,-1.985253533E-3,2.008610262E-3
5.992969480E-1,3.054236295E-4,0.000000000E0,-7.635590737E-4,8.223782903E-4
6.017421040E-1,3.054236295E-4,0.000000000E0,-7.635590737E-4,8.223782903E-4
6.041863750E-1,3.054236295E-4,-1.221694518E-3,-1.985253533E-3,2.350968456E-3
6.066299170E-1,3.054236295E-4,-1.221694518E-3,-7.635590737E-4,1.472699408E-3
6.090742920E-1,3.054236295E-4,0.000000000E0,4.581354442E-4,5.506102784E-4
6.115193960E-1,3.054236295E-4,-1.221694518E-3,1.679830020E-3,2.099440398E-3
6.139636670E-1,3.054236295E-4,-1.221694518E-3,4.581354442E-4,1.340040736E-3
6.164072090E-1,3.054236295E-4,-1.221694518E-3,1.679830020E-3,2.099440398E-3
6.188515840E-1,-9.162708884E-4,0.000000000E0,4.581354442E-4,1.024421996E-3
6.212966880E-1,1.527118147E-3,-1.221694518E-3,1.679830020E-3,2.578072192E-3
6.237409590E-1,2.748812549E-3,-2.443389036E-3,1.679830020E-3,4.043259738E-3
6.261845000E-1,3.054236295E-4,-1.221694518E-3,-7.635590737E-4,1.472699408E-3
6.286288750E-1,3.054236295E-4,-1.221694518E-3,-7.635590737E-4,1.472699408E-3
6.310740310E-1,3.054236295E-4,0.000000000E0,4.581354442E-4,5.506102784E-4
6.335183020E-1,3.054236295E-4,-2.443389036E-3,-7.635590737E-4,2.578072154E-3
6.359618440E-1,1.527118147E-3,1.221694518E-3,-7.635590737E-4,2.099440352E-3
6.384062190E-1,3.054236295E-4,0.000000000E0,4.581354442E-4,5.506102784E-4
6.408513230E-1,3.054236295E-4,-2.443389036E-3,-1.985253533E-3,3.163015202E-3
6.432955940E-1,1.527118147E-3,-1.221694518E-3,4.581354442E-4,2.008610320E-3
6.457391360E-1,1.527118147E-3,-1.221694518E-3,4.581354442E-4,2.008610320E-3
6.481835110E-1,1.527118147E-3,0.000000000E0,4.581354442E-4,1.594358153E-3
6.506286150E-1,3.054236295E-4,1.221694518E-3,1.679830020E-3,2.099440398E-3
6.530729900E-1,1.527118147E-3,0.000000000E0,1.679830020E-3,2.270224379E-3
6.555164270E-1,1.527118147E-3,0.000000000E0,4.581354442E-4,1.594358153E-3
6.579608540E-1,3.054236295E-4,-1.221694518E-3,-7.635590737E-4,1.472699408E-3
6.604059590E-1,1.527118147E-3,-1.221694518E-3,4.581354442E-4,2.008610320E-3
6.628502290E-1,1.527118147E-3,0.000000000E0,4.581354442E-4,1.594358153E-3
6.652937710E-1,3.054236295E-4,0.000000000E0,1.679830020E-3,1.707370051E-3
6.677381460E-1,-9.162708884E-4,0.000000000E0,-1.985253533E-3,2.186500385E-3
6.701832500E-1,1.527118147E-3,-1.221694518E-3,-7.635590737E-4,2.099440352E-3
6.726275210E-1,3.054236295E-4,0.000000000E0,1.679830020E-3,1.707370051E-3
6.750710630E-1,3.054236295E-4,0.000000000E0,4.581354442E-4,5.506102784E-4
6.775154380E-1,1.527118147E-3,-2.443389036E-3,-1.985253533E-3,3.499067220E-3
6.799605940E-1,1.527118147E-3,-1.221694518E-3,-7.635590737E-4,2.099440352E-3
6.824048650E-1,3.054236295E-4,-1.221694518E-3,4.581354442E-4,1.340040736E-3
6.848484060E-1,-9.162708884E-4,-2.443389036E-3,-7.635590737E-4,2.718956561E-3
6.872927810E-1,3.054236295E-4,-2.443389036E-3,4.581354442E-4,2.504659989E-3
6.897378860E-1,3.054236295E-4,0.000000000E0,-7.635590737E-4,8.223782903E-4
6.921821560E-1,3.054236295E-4,1.221694518E-3,4.581354442E-4,1.340040736E-3
6.946256980E-1,3.054236295E-4,1.221694518E-3,4.581354442E-4,1.340040736E-3
6.970700730E-1,1.527118147E-3,-1.221694518E-3,4.581354442E-4,2.008610320E-3
6.995151770E-1,-9.162708884E-4,0.000000000E0,-7.635590737E-4,1.192717402E-3
7.019594480E-1,3.054236295E-4,-1.221694518E-3,1.679830020E-3,2.099440398E-3
7.044029900E-1,2.748812549E-3,-1.221694518E-3,4.123218823E-3,5.103865338E-3
7.068473650E-1,1.527118147E-3,-1.221694518E-3,4.581354442E-4,2.008610320E-3
7.092925210E-1,3.054236295E-4,0.000000000E0,-7.635590737E-4,8.223782903E-4
7.117367920E-1,3.054236295E-4,0.000000000E0,4.581354442E-4,5.506102784E-4
7.141803340E-1,-9.162708884E-4,1.221694518E-3,1.679830020E-3,2.270224379E-3
7.166247090E-1,3.054236295E-4,1.221694518E-3,4.581354442E-4,1.340040736E-3
7.190698130E-1,3.054236295E-4,-1.221694518E-3,-3.206948051E-3,3.445335527E-3
7.215140840E-1,-9.162708884E-4,-1.221694518E-3,-3.206948051E-3,3.551986154E-3
7.239576250E-1,3.054236295E-4,1.221694518E-3,1.679830020E-3,2.099440398E-3
7.264020000E-1,3.054236295E-4,0.000000000E0,4.581354442E-4,5.506102784E-4
7.288471040E-1,-9.162708884E-4,0.000000000E0,-7.635590737E-4,1.192717402E-3
7.312913750E-1,3.054236295E-4,-1.221694518E-3,1.679830020E-3,2.099440398E-3
7.337349170E-1,3.054236295E-4,-1.221694518E-3,4.581354442E-4,1.340040736E-3
7.361792920E-1,3.054236295E-4,-1.221694518E-3,4.581354442E-4,1.340040736E-3
7.386244480E-1,1.527118147E-3,0.000000000E0,4.581354442E-4,1.594358153E-3
7.410687190E-1,1.527118147E-3,-1.221694518E-3,4.581354442E-4,2.008610320E-3
7.435122610E-1,3.054236295E-4,-1.221694518E-3,-7.635590737E-4,1.472699408E-3
7.459566360E-1,1.527118147E-3,1.221694518E-3,4.581354442E-4,2.008610320E-3
7.484017400E-1,3.054236295E-4,1.221694518E-3,4.581354442E-4,1.340040736E-3
7.508460110E-1,1.527118147E-3,-1.221694518E-3,1.679830020E-3,2.578072192E-3
7.532895520E-1,3.054236295E-4,-1.221694518E-3,4.581354442E-4,1.340040736E-3
7.557339270E-1,-9.162708884E-4,0.000000000E0,-7.635590737E-4,1.192717402E-3
7.581790310E-1,-9.162708884E-4,0.000000000E0,4.581354442E-4,1.024421996E-3
7.606233020E-1,3.054236295E-4,1.221694518E-3,-7.635590737E-4,1.472699408E-3
7.630668440E-1,3.054236295E-4,-1.221694518E-3,-1.985253533E-3,2.350968456E-3
7.655112190E-1,-9.162708884E-4,-1.221694518E-3,-1.985253533E-3,2.504659943E-3
7.679563750E-1,-9.162708884E-4,-1.221694518E-3,-7.635590737E-4,1.707369994E-3
7.704006460E-1,1.527118147E-3,0.000000000E0,4.581354442E-4,1.594358153E-3
7.728441880E-1,3.054236295E-4,0.000000000E0,-1.985253533E-3,2.008610262E-3
7.752885630E-1,3.054236295E-4,1.221694518E-3,-7.635590737E-4,1.472699408E-3
7.777336670E-1,3.054236295E-4,0.000000000E0,4.581354442E-4,5.506102784E-4
7.801779380E-1,1.527118147E-3,0.000000000E0,1.679830020E-3,2.270224379E-3
7.826214790E-1,1.527118147E-3,-2.443389036E-3,-1.985253533E-3,3.499067220E-3
7.850658540E-1,3.054236295E-4,0.000000000E0,-7.635590737E-4,8.223782903E-4
7.875109590E-1,3.054236295E-4,0.000000000E0,-7.635590737E-4,8.223782903E-4
7.899552290E-1,3.054236295E-4,-1.221694518E-3,4.581354442E-4,1.340040736E-3
7.923987710E-1,-9.162708884E-4,0.000000000E0,4.581354442E-4,1.024421996E-3
7.948431460E-1,3.054236295E-4,-1.221694518E-3,-7.635590737E-4,1.472699408E-3
7.972883020E-1,3.054236295E-4,-1.221694518E-3,-7.635590737E-4,1.472699408E-3
7.997325730E-1,3.054236295E-4,0.000000000E0,4.581354442E-4,5.506102784E-4
8.021761150E-1,3.054236295E-4,-2.443389036E-3,-7.635590737E-4,2.578072154E-3
8.046204900E-1,-9.162708884E-4,-1.221694518E-3,-1.985253533E-3,2.504659943E-3
8.070655940E-1,3.054236295E-4,-2.443389036E-3,1.679830020E-3,2.980815739E-3
8.095098650E-1,1.527118147E-3,0.000000000E0,-7.635590737E-4,1.707369994E-3
8.119534060E-1,3.054236295E-4,1.221694518E-3,-7.635590737E-4,1.472699408E-3
8.143977810E-1,2.748812549E-3,1.221694518E-3,4.581354442E-4,3.042761247E-3
8.168428860E-1,3.054236295E-4,-1.221694518E-3,-7.635590737E-4,1.472699408E-3
8.192872610E-1,1.527118147E-3,-2.443389036E-3,-7.635590737E-4,2.980815706E-3
8.217306980E-1,3.054236295E-4,-1.221694518E-3,4.581354442E-4,1.340040736E-3
8.241750730E-1,3.054236295E-4,0.000000000E0,-7.635590737E-4,8.223782903E-4
8.266202290E-1,1.527118147E-3,-1.221694518E-3,-7.635590737E-4,2.099440352E-3
8.290645000E-1,-9.162708884E-4,1.221694518E-3,4.581354442E-4,1.594358153E-3
8.315080420E-1,-9.162708884E-4,-1.221694518E-3,-7.635590737E-4,1.707369994E-3
8.339524170E-1,-9.162708884E-4,-1.221694518E-3,-1.985253533E-3,2.504659943E-3
8.363975210E-1,1.527118147E-3,0.000000000E0,-7.635590737E-4,1.707369994E-3
8.388417920E-1,3.054236295E-4,-1.221694518E-3,4.581354442E-4,1.340040736E-3
8.412853340E-1,-9.162708884E-4,-1.221694518E-3,-7.635590737E-4,1.707369994E-3
8.437297090E-1,3.054236295E-4,-1.221694518E-3,-7.635590737E-4,1.472699408E-3
8.461748130E-1,3.054236295E-4,0.000000000E0,-7.635590737E-4,8.223782903E-4
8.486191880E-1,3.054236295E-4,-2.443389036E-3,4.581354442E-4,2.504659989E-3
8.510626250E-1,1.527118147E-3,0.000000000E0,4.581354442E-4,1.594358153E-3
8.535070520E-1,3.054236295E-4,-1.221694518E-3,-1.985253533E-3,2.350968456E-3
8.559521560E-1,-2.137965523E-3,1.221694518E-3,-1.985253533E-3,3.163015280E-3
8.583964270E-1,3.054236295E-4,0.000000000E0,-7.635590737E-4,8.223782903E-4
8.608399690E-1,3.054236295E-4,-1.221694518E-3,4.581354442E-4,1.340040736E-3
8.632843440E-1,3.054236295E-4,0.000000000E0,-7.635590737E-4,8.223782903E-4
8.657294480E-1,3.054236295E-4,-1.221694518E-3,-1.985253533E-3,2.350968456E-3
8.681737190E-1,3.054236295E-4,-1.221694518E-3,-1.985253533E-3,2.350968456E-3
8.706172610E-1,1.527118147E-3,0.000000000E0,4.581354442E-4,1.594358153E-3
8.730616360E-1,-9.162708884E-4,0.000000000E0,4.581354442E-4,1.024421996E-3
8.755067920E-1,3.054236295E-4,0.000000000E0,-7.635590737E-4,8.223782903E-4
8.779510630E-1,-9.162708884E-4,1.221694518E-3,1.679830020E-3,2.270224379E-3
8.803945520E-1,3.054236295E-4,1.221694518E-3,4.581354442E-4,1.340040736E-3
8.828389790E-1,-9.162708884E-4,-1.221694518E-3,4.581354442E-4,1.594358153E-3
8.852840840E-1,1.527118147E-3,-1.221694518E-3,-7.635590737E-4,2.099440352E-3
8.877283540E-1,3.054236295E-4,0.000000000E0,-7.635590737E-4,8.223782903E-4
8.901718960E-1,-9.162708884E-4,-1.221694518E-3,4.581354442E-4,1.594358153E-3
8.926162710E-1,-9.162708884E-4,-1.221694518E-3,4.581354442E-4,1.594358153E-3
8.950613750E-1,3.054236295E-4,-1.221694518E-3,-7.635590737E-4,1.472699408E-3
8.975056460E-1,3.054236295E-4,-1.221694518E-3,-7.635590737E-4,1.472699408E-3
8.999491880E-1,1.527118147E-3,-1.221694518E-3,4.581354442E-4,2.008610320E-3
9.023935630E-1,3.054236295E-4,0.000000000E0,-1.985253533E-3,2.008610262E-3
9.048387190E-1,3.054236295E-4,-2.443389036E-3,4.581354442E-4,2.504659989E-3
9.072829900E-1,-9.162708884E-4,0.000000000E0,1.679830020E-3,1.913473605E-3
9.097265310E-1,3.054236295E-4,1.221694518E-3,-7.635590737E-4,1.472699408E-3
9.121709060E-1,3.054236295E-4,0.000000000E0,4.581354442E-4,5.506102784E-4
9.146160110E-1,3.054236295E-4,-1.221694518E-3,-1.985253533E-3,2.350968456E-3
9.170602810E-1,-9.162708884E-4,-1.221694518E-3,-1.985253533E-3,2.504659943E-3
9.195038230E-1,1.527118147E-3,-1.221694518E-3,4.581354442E-4,2.008610320E-3
9.219481980E-1,1.527118147E-3,-1.221694518E-3,1.679830020E-3,2.578072192E-3
9.243933020E-1,-9.162708884E-4,-1.221694518E-3,-7.635590737E-4,1.707369994E-3
9.268375730E-1,3.054236295E-4,-1.221694518E-3,4.581354442E-4,1.340040736E-3
9.292811150E-1,-9.162708884E-4,-1.221694518E-3,-7.635590737E-4,1.707369994E-3
9.317254900E-1,3.054236295E-4,-1.221694518E-3,1.679830020E-3,2.099440398E-3
9.341706460E-1,1.527118147E-3,-1.221694518E-3,-7.635590737E-4,2.099440352E-3
9.366149170E-1,3.054236295E-4,0.000000000E0,-7.635590737E-4,8.223782903E-4
9.390584590E-1,-9.162708884E-4,1.221694518E-3,-7.635590737E-4,1.707369994E-3
9.415028340E-1,3.054236295E-4,1.221694518E-3,-7.635590737E-4,1.472699408E-3
9.439479380E-1,3.054236295E-4,-1.221694518E-3,-7.635590737E-4,1.472699408E-3
9.463922090E-1,1.527118147E-3,0.000000000E0,-7.635590737E-4,1.707369994E-3
9.488357500E-1,3.054236295E-4,0.000000000E0,-7.635590737E-4,8.223782903E-4
9.512801250E-1,3.054236295E-4,-1.221694518E-3,-7.635590737E-4,1.472699408E-3
9.537252290E-1,1.527118147E-3,-1.221694518E-3,4.581354442E-4,2.008610320E-3
9.561695000E-1,3.054236295E-4,0.000000000E0,-1.985253533E-3,2.008610262E-3
9.586130420E-1,-9.162708884E-4,0.000000000E0,-7.635590737E-4,1.192717402E-3
9.610574170E-1,-9.162708884E-4,-1.221694518E-3,1.679830020E-3,2.270224379E-3
9.635025730E-1,3.054236295E-4,0.000000000E0,4.581354442E-4,5.506102784E-4
9.659468440E-1,3.054236295E-4,0.000000000E0,4.581354442E-4,5.506102784E-4
9.683903860E-1,1.527118147E-3,-1.221694518E-3,1.679830020E-3,2.578072192E-3
9.708347610E-1,1.527118147E-3,-2.443389036E-3,2.901524538E-3,4.089142265E-3
9.732798650E-1,3.054236295E-4,-1.221694518E-3,1.679830020E-3,2.099440398E-3
9.757241360E-1,3.054236295E-4,0.000000000E0,-7.635590737E-4,8.223782903E-4
9.781676770E-1,1.527118147E-3,-1.221694518E-3,-7.635590737E-4,2.099440352E-3
9.806120520E-1,1.527118147E-3,-1.221694518E-3,-1.985253533E-3,2.786729072E-3
9.830571560E-1,1.527118147E-3,0.000000000E0,4.581354442E-4,1.594358153E-3
9.855014270E-1,3.054236295E-4,0.000000000E0,-7.635590737E-4,8.223782903E-4
9.879449690E-1,3.054236295E-4,0.000000000E0,4.581354442E-4,5.506102784E-4
9.903893440E-1,3.054236295E-4,-1.221694518E-3,-7.635590737E-4,1.472699408E-3
9.928345000E-1,3.054236295E-4,0.000000000E0,4.581354442E-4,5.506102784E-4
9.952787710E-1,3.054236295E-4,-1.221694518E-3,-7.635590737E-4,1.472699408E-3
9.977223130E-1,3.054236295E-4,0.000000000E0,-7.635590737E-4,8.223782903E-4
1.000166688E0,-9.162708884E-4,-1.221694518E-3,4.581354442E-4,1.594358153E-3
1.002611792E0,1.527118147E-3,-1.221694518E-3,4.581354442E-4,2.008610320E-3
1.005056063E0,3.054236295E-4,-1.221694518E-3,1.679830020E-3,2.099440398E-3
1.007499604E0,3.054236295E-4,0.000000000E0,4.581354442E-4,5.506102784E-4
1.009943979E0,3.054236295E-4,0.000000000E0,-1.985253533E-3,2.008610262E-3
1.012389084E0,1.527118147E-3,-2.443389036E-3,4.581354442E-4,2.917555124E-3
1.014833459E0,1.527118147E-3,-1.221694518E-3,4.581354442E-4,2.008610320E-3
1.017276896E0,1.527118147E-3,0.000000000E0,-7.635590737E-4,1.707369994E-3
1.019721271E0,3.054236295E-4,-1.221694518E-3,-7.635590737E-4,1.472699408E-3
1.022166427E0,3.054236295E-4,-1.221694518E-3,1.679830020E-3,2.099440398E-3
1.024610698E0,1.527118147E-3,0.000000000E0,1.679830020E-3,2.270224379E-3
1.027054240E0,3.054236295E-4,-1.221694518E-3,4.581354442E-4,1.340040736E-3
1.029498615E0,-2.137965523E-3,-2.443389036E-3,-1.985253533E-3,3.805558848E-3
1.031943719E0,-9.162708884E-4,0.000000000E0,-7.635590737E-4,1.192717402E-3
1.034387990E0,3.054236295E-4,0.000000000E0,4.581354442E-4,5.506102784E-4
1.036831531E0,2.748812549E-3,-1.221694518E-3,4.581354442E-4,3.042761247E-3
1.039275906E0,1.527118147E-3,0.000000000E0,4.581354442E-4,1.594358153E-3
1.041721011E0,3.054236295E-4,0.000000000E0,4.581354442E-4,5.506102784E-4
1.044165281E0,3.054236295E-4,-2.443389036E-3,-1.985253533E-3,3.163015202E-3
1.046608823E0,3.054236295E-4,-1.221694518E-3,-7.635590737E-4,1.472699408E-3
1.049053198E0,-9.162708884E-4,-1.221694518E-3,-7.635590737E-4,1.707369994E-3
1.051498354E0,-9.162708884E-4,0.000000000E0,4.581354442E-4,1.024421996E-3
1.053942625E0,1.527118147E-3,0.000000000E0,4.581354442E-4,1.594358153E-3
1.056386167E0,-9.162708884E-4,0.000000000E0,4.581354442E-4,1.024421996E-3
1.058830542E0,-9.162708884E-4,0.000000000E0,4.581354442E-4,1.024421996E-3
1.061275646E0,1.527118147E-3,-2.443389036E-3,4.581354442E-4,2.917555124E-3
1.063719917E0,3.054236295E-4,0.000000000E0,4.581354442E-4,5.506102784E-4
1.066163459E0,-9.162708884E-4,0.000000000E0,-1.985253533E-3,2.186500385E-3
1.068607834E0,-9.162708884E-4,0.000000000E0,-7.635590737E-4,1.192717402E-3
1.071052938E0,3.054236295E-4,0.000000000E0,-7.635590737E-4,8.223782903E-4
1.073497313E0,-9.162708884E-4,0.000000000E0,-7.635590737E-4,1.192717402E-3
1.075940750E0,-9.162708884E-4,0.000000000E0,-7.635590737E-4,1.192717402E-3
1.078385125E0,3.054236295E-4,-1.221694518E-3,-7.635590737E-4,1.472699408E-3
1.080830281E0,3.054236295E-4,-1.221694518E-3,-7.635590737E-4,1.472699408E-3
1.083274552E0,-9.162708884E-4,0.000000000E0,-1.985253533E-3,2.186500385E-3
1.085718094E0,-9.162708884E-4,0.000000000E0,-1.985253533E-3,2.186500385E-3
1.088162469E0,1.527118147E-3,0.000000000E0,1.679830020E-3,2.270224379E-3
1.090607573E0,-9.162708884E-4,-1.221694518E-3,4.581354442E-4,1.594358153E-3
1.093051844E0,3.054236295E-4,-1.221694518E-3,4.581354442E-4,1.340040736E-3
1.095495386E0,3.054236295E-4,-2.443389036E-3,4.581354442E-4,2.504659989E-3
1.097939761E0,3.054236295E-4,-2.443389036E-3,4.581354442E-4,2.504659989E-3
1.100384917E0,3.054236295E-4,-1.221694518E-3,-7.635590737E-4,1.472699408E-3
1.102829188E0,-9.162708884E-4,-1.221694518E-3,-7.635590737E-4,1.707369994E-3
1.105272677E0,3.054236295E-4,0.000000000E0,4.581354442E-4,5.506102784E-4
1.107717052E0,-9.162708884E-4,0.000000000E0,4.581354442E-4,1.024421996E-3
1.110162209E0,3.054236295E-4,-1.221694518E-3,-7.635590737E-4,1.472699408E-3
1.112606479E0,3.054236295E-4,-1.221694518E-3,-1.985253533E-3,2.350968456E-3
1.115050021E0,3.054236295E-4,-1.221694518E-3,-7.635590737E-4,1.472699408E-3
1.117494396E0,3.054236295E-4,-2.443389036E-3,1.679830020E-3,2.980815739E-3
1.119939500E0,-9.162708884E-4,0.000000000E0,4.581354442E-4,1.024421996E-3
1.122383771E0,3.054236295E-4,-1.221694518E-3,-3.206948051E-3,3.445335527E-3
1.124827313E0,-9.162708884E-4,-2.443389036E-3,-7.635590737E-4,2.718956561E-3
1.127271688E0,-9.162708884E-4,0.000000000E0,4.581354442E-4,1.024421996E-3
1.129716844E0,3.054236295E-4,0.000000000E0,-1.985253533E-3,2.008610262E-3
1.132161115E0,-9.162708884E-4,0.000000000E0,-3.206948051E-3,3.335276322E-3
1.134604604E0,-9.162708884E-4,-1.221694518E-3,-7.635590737E-4,1.707369994E-3
1.137049031E0,-9.162708884E-4,-2.443389036E-3,-7.635590737E-4,2.718956561E-3
1.139494136E0,3.054236295E-4,-1.221694518E-3,4.581354442E-4,1.340040736E-3
1.141938406E0,3.054236295E-4,-1.221694518E-3,1.679830020E-3,2.099440398E-3
1.144381948E0,3.054236295E-4,0.000000000E0,-7.635590737E-4,8.223782903E-4
1.146826323E0,3.054236295E-4,0.000000000E0,4.581354442E-4,5.506102784E-4
1.149271427E0,3.054236295E-4,0.000000000E0,4.581354442E-4,5.506102784E-4
1.151715698E0,1.527118147E-3,0.000000000E0,4.581354442E-4,1.594358153E-3
1.154159240E0,3.054236295E-4,0.000000000E0,-7.635590737E-4,8.223782903E-4
1.156603615E0,1.527118147E-3,0.000000000E0,4.581354442E-4,1.594358153E-3
1.159048771E0,1.527118147E-3,-1.221694518E-3,-7.635590737E-4,2.099440352E-3
1.161493042E0,3.054236295E-4,0.000000000E0,-7.635590737E-4,8.223782903E-4
1.163936584E0,3.054236295E-4,1.221694518E-3,-1.985253533E-3,2.350968456E-3
1.166380959E0,3.054236295E-4,-1.221694518E-3,-3.206948051E-3,3.445335527E-3
1.168826063E0,-9.162708884E-4,-1.221694518E-3,-1.985253533E-3,2.504659943E-3
1.171270334E0,-9.162708884E-4,0.000000000E0,4.581354442E-4,1.024421996E-3
1.173713875E0,-9.162708884E-4,0.000000000E0,-7.635590737E-4,1.192717402E-3
1.176158250E0,3.054236295E-4,-1.221694518E-3,-7.635590737E-4,1.472699408E-3
1.178603354E0,1.527118147E-3,-2.443389036E-3,-7.635590737E-4,2.980815706E-3
1.181047625E0,3.054236295E-4,0.000000000E0,-7.635590737E-4,8.223782903E-4
1.183491167E0,3.054236295E-4,-1.221694518E-3,1.679830020E-3,2.099440398E-3
1.185935542E0,3.054236295E-4,0.000000000E0,1.679830020E-3,1.707370051E-3
1.188380698E0,3.054236295E-4,-1.221694518E-3,-7.635590737E-4,1.472699408E-3
1.190824969E0,3.054236295E-4,0.000000000E0,-7.635590737E-4,8.223782903E-4
1.193268511E0,3.054236295E-4,0.000000000E0,4.581354442E-4,5.506102784E-4
1.195712886E0,3.054236295E-4,-1.221694518E-3,-1.985253533E-3,2.350968456E-3
1.198157990E0,1.527118147E-3,-1.221694518E-3,-7.635590737E-4,2.099440352E-3
1.200602261E0,3.054236295E-4,0.000000000E0,-7.635590737E-4,8.223782903E-4
1.203045802E0,3.054236295E-4,1.221694518E-3,-1.985253533E-3,2.350968456E-3
1.205490177E0,1.527118147E-3,-3.665083554E-3,-1.985253533E-3,4.439161957E-3
1.207935281E0,3.054236295E-4,-2.443389036E-3,-7.635590737E-4,2.578072154E-3
1.210379552E0,3.054236295E-4,-1.221694518E-3,-1.985253533E-3,2.350968456E-3
1.212823094E0,3.054236295E-4,-1.221694518E-3,4.581354442E-4,1.340040736E-3
1.215267469E0,3.054236295E-4,-1.221694518E-3,4.581354442E-4,1.340040736E-3
1.217712625E0,-9.162708884E-4,1.221694518E-3,-7.635590737E-4,1.707369994E-3
1.220156896E0,-9.162708884E-4,2.443389036E-3,-7.635590737E-4,2.718956561E-3
1.222600438E0,-2.137965523E-3,0.000000000E0,-7.635590737E-4,2.270224446E-3
1.225044813E0,-9.162708884E-4,1.221694518E-3,4.581354442E-4,1.594358153E-3
1.227489917E0,1.527118147E-3,-1.221694518E-3,4.581354442E-4,2.008610320E-3
1.229934188E0,-9.162708884E-4,-1.221694518E-3,-7.635590737E-4,1.707369994E-3
1.232377729E0,-9.162708884E-4,0.000000000E0,-1.985253533E-3,2.186500385E-3
1.234822104E0,1.527118147E-3,-1.221694518E-3,1.679830020E-3,2.578072192E-3
1.237267209E0,3.054236295E-4,-1.221694518E-3,-7.635590737E-4,1.472699408E-3
1.239711479E0,-9.162708884E-4,1.221694518E-3,4.581354442E-4,1.594358153E-3
1.242155021E0,1.527118147E-3,-1.221694518E-3,4.581354442E-4,2.008610320E-3
1.244599396E0,3.054236295E-4,-1.221694518E-3,-7.635590737E-4,1.472699408E-3
1.247044552E0,3.054236295E-4,-1.221694518E-3,-7.635590737E-4,1.472699408E-3
1.249488823E0,3.054236295E-4,0.000000000E0,4.581354442E-4,5.506102784E-4
1.251932365E0,1.527118147E-3,-1.221694518E-3,4.581354442E-4,2.008610320E-3
1.254376740E0,3.054236295E-4,-1.221694518E-3,-7.635590737E-4,1.472699408E-3
1.256821844E0,3.054236295E-4,-1.221694518E-3,-7.635590737E-4,1.472699408E-3
1.259266115E0,-9.162708884E-4,0.000000000E0,4.581354442E-4,1.024421996E-3
1.261709656E0,3.054236295E-4,0.000000000E0,4.581354442E-4,5.506102784E-4
1.264154031E0,3.054236295E-4,-1.221694518E-3,-7.635590737E-4,1.472699408E-3
1.266599136E0,-9.162708884E-4,-1.221694518E-3,-1.985253533E-3,2.504659943E-3
1.269043406E0,3.054236295E-4,1.221694518E-3,4.581354442E-4,1.340040736E-3
1.271486948E0,3.054236295E-4,-1.221694518E-3,-7.635590737E-4,1.472699408E-3
1.273931323E0,3.054236295E-4,-1.221694518E-3,-7.635590737E-4,1.472699408E-3
1.276376479E0,3.054236295E-4,-1.221694518E-3,1.679830020E-3,2.099440398E-3
1.278820750E0,-9.162708884E-4,0.000000000E0,4.581354442E-4,1.024421996E-3
1.281264292E0,3.054236295E-4,0.000000000E0,-7.635590737E-4,8.223782903E-4
1.283708667E0,3.054236295E-4,-1.221694518E-3,4.581354442E-4,1.340040736E-3
1.286153771E0,3.054236295E-4,-1.221694518E-3,-1.985253533E-3,2.350968456E-3
1.288598042E0,3.054236295E-4,0.000000000E0,4.581354442E-4,5.506102784E-4
1.291041584E0,3.054236295E-4,-1.221694518E-3,4.581354442E-4,1.340040736E-3
1.293485959E0,3.054236295E-4,0.000000000E0,-7.635590737E-4,8.223782903E-4
1.295931063E0,3.054236295E-4,-1.221694518E-3,4.581354442E-4,1.340040736E-3
1.298375438E0,3.054236295E-4,-1.221694518E-3,4.581354442E-4,1.340040736E-3
1.300818875E0,3.054236295E-4,-2.443389036E-3,-7.635590737E-4,2.578072154E-3
1.303263250E0,3.054236295E-4,-1.221694518E-3,-7.635590737E-4,1.472699408E-3
1.305708406E0,1.527118147E-3,-1.221694518E-3,-7.635590737E-4,2.099440352E-3
1.308152677E0,1.527118147E-3,-1.221694518E-3,4.581354442E-4,2.008610320E-3
1.310596219E0,-9.162708884E-4,1.221694518E-3,-7.635590737E-4,1.707369994E-3
1.313040594E0,3.054236295E-4,-1.221694518E-3,-7.635590737E-4,1.472699408E-3
1.315485698E0,3.054236295E-4,-1.221694518E-3,-7.635590737E-4,1.472699408E-3
1.317929969E0,3.054236295E-4,-1.221694518E-3,-7.635590737E-4,1.472699408E-3
1.320373511E0,-9.162708884E-4,0.000000000E0,-7.635590737E-4,1.192717402E-3
1.322817886E0,3.054236295E-4,1.221694518E-3,4.581354442E-4,1.340040736E-3
1.325262990E0,-9.162708884E-4,-1.221694518E-3,4.581354442E-4,1.594358153E-3
1.327707261E0,3.054236295E-4,0.000000000E0,1.679830020E-3,1.707370051E-3
1.330150802E0,3.054236295E-4,-1.221694518E-3,1.679830020E-3,2.099440398E-3
1.332595177E0,1.527118147E-3,-3.665083554E-3,1.679830020E-3,4.311236039E-3
1.335040334E0,1.527118147E-3,-1.221694518E-3,4.581354442E-4,2.008610320E-3
1.337484604E0,3.054236295E-4,-1.221694518E-3,1.679830020E-3,2.099440398E-3
1.339928146E0,-9.162708884E-4,-1.221694518E-3,-7.635590737E-4,1.707369994E-3
1.342372521E0,-9.162708884E-4,0.000000000E0,-7.635590737E-4,1.192717402E-3
1.344817625E0,3.054236295E-4,-1.221694518E-3,4.581354442E-4,1.340040736E-3
1.347261896E0,1.527118147E-3,0.000000000E0,4.581354442E-4,1.594358153E-3
1.349705438E0,1.527118147E-3,-1.221694518E-3,-1.985253533E-3,2.786729072E-3
1.352149813E0,3.054236295E-4,-1.221694518E-3,-7.635590737E-4,1.472699408E-3
1.354594917E0,3.054236295E-4,0.000000000E0,-1.985253533E-3,2.008610262E-3
1.357039292E0,1.527118147E-3,0.000000000E0,4.581354442E-4,1.594358153E-3
1.359482729E0,1.527118147E-3,-1.221694518E-3,4.581354442E-4,2.008610320E-3
1.361927104E0,3.054236295E-4,-2.443389036E-3,1.679830020E-3,2.980815739E-3
1.364372261E0,1.527118147E-3,-1.221694518E-3,2.901524538E-3,3.499067301E-3
1.366816531E0,3.054236295E-4,0.000000000E0,1.679830020E-3,1.707370051E-3
1.369260073E0,1.527118147E-3,-1.221694518E-3,2.901524538E-3,3.499067301E-3
1.371704448E0,3.054236295E-4,-2.443389036E-3,-7.635590737E-4,2.578072154E-3
1.374149552E0,-9.162708884E-4,0.000000000E0,-1.985253533E-3,2.186500385E-3
1.376593823E0,-9.162708884E-4,0.000000000E0,-1.985253533E-3,2.186500385E-3
1.379037365E0,1.527118147E-3,0.000000000E0,-7.635590737E-4,1.707369994E-3
1.381481740E0,3.054236295E-4,0.000000000E0,4.581354442E-4,5.506102784E-4
1.383926844E0,3.054236295E-4,-1.221694518E-3,4.581354442E-4,1.340040736E-3
1.386371219E0,1.527118147E-3,-1.221694518E-3,4.581354442E-4,2.008610320E-3
1.388814656E0,3.054236295E-4,0.000000000E0,1.679830020E-3,1.707370051E-3
1.391259031E0,3.054236295E-4,1.221694518E-3,-7.635590737E-4,1.472699408E-3
1.393704188E0,-2.137965523E-3,0.000000000E0,-1.985253533E-3,2.917555170E-3
1.396148459E0,-9.162708884E-4,0.000000000E0,1.679830020E-3,1.913473605E-3
1.398592000E0,1.527118147E-3,-1.221694518E-3,-7.635590737E-4,2.099440352E-3
1.401036375E0,3.054236295E-4,-1.221694518E-3,-7.635590737E-4,1.472699408E-3
1.403481479E0,3.054236295E-4,-1.221694518E-3,-1.985253533E-3,2.350968456E-3
1.405925750E0,1.527118147E-3,0.000000000E0,4.581354442E-4,1.594358153E-3
1.408369292E0,3.054236295E-4,2.443389036E-3,1.679830020E-3,2.980815739E-3
1.410813667E0,1.527118147E-3,0.000000000E0,-7.635590737E-4,1.707369994E-3
1.413258771E0,1.527118147E-3,-1.221694518E-3,-7.635590737E-4,2.099440352E-3
1.415703146E0,1.527118147E-3,-1.221694518E-3,4.581354442E-4,2.008610320E-3
1.418146584E0,1.527118147E-3,0.000000000E0,4.581354442E-4,1.594358153E-3
1.420591011E0,1.527118147E-3,1.221694518E-3,1.679830020E-3,2.578072192E-3
1.423036115E0,1.527118147E-3,0.000000000E0,1.679830020E-3,2.270224379E-3
1.425480386E0,1.527118147E-3,0.000000000E0,1.679830020E-3,2.270224379E-3
1.427923927E0,3.054236295E-4,-1.221694518E-3,-7.635590737E-4,1.472699408E-3
1.430368302E0,3.054236295E-4,-1.221694518E-3,-7.635590737E-4,1.472699408E-3
1.432813406E0,1.527118147E-3,-1.221694518E-3,1.679830020E-3,2.578072192E-3
1.435257677E0,3.054236295E-4,-2.443389036E-3,4.581354442E-4,2.504659989E-3
1.437701219E0,-9.162708884E-4,0.000000000E0,-1.985253533E-3,2.186500385E-3
1.440145594E0,3.054236295E-4,0.000000000E0,4.581354442E-4,5.506102784E-4
1.442590750E0,3.054236295E-4,-1.221694518E-3,4.581354442E-4,1.340040736E-3
1.445035021E0,3.054236295E-4,-2.443389036E-3,4.581354442E-4,2.504659989E-3
1.447478563E0,3.054236295E-4,-2.443389036E-3,-7.635590737E-4,2.578072154E-3
1.449922938E0,-9.162708884E-4,0.000000000E0,4.581354442E-4,1.024421996E-3
1.452368042E0,3.054236295E-4,0.000000000E0,2.901524538E-3,2.917555182E-3
1.454812313E0,3.054236295E-4,0.000000000E0,1.679830020E-3,1.707370051E-3
1.457255854E0,3.054236295E-4,0.000000000E0,-1.985253533E-3,2.008610262E-3
1.459700229E0,1.527118147E-3,-2.443389036E-3,-1.985253533E-3,3.499067220E-3
1.462145334E0,3.054236295E-4,-1.221694518E-3,-7.635590737E-4,1.472699408E-3
1.464589604E0,3.054236295E-4,-1.221694518E-3,4.581354442E-4,1.340040736E-3
1.467033146E0,3.054236295E-4,1.221694518E-3,4.581354442E-4,1.340040736E-3
1.469477521E0,-9.162708884E-4,0.000000000E0,-1.985253533E-3,2.186500385E-3
1.471922625E0,3.054236295E-4,-1.221694518E-3,1.679830020E-3,2.099440398E-3
1.474367000E0,3.054236295E-4,-1.221694518E-3,2.901524538E-3,3.163015291E-3
1.476810438E0,-2.137965523E-3,-1.221694518E-3,4.581354442E-4,2.504660088E-3
1.479254865E0,-9.162708884E-4,-1.221694518E-3,-1.985253533E-3,2.504659943E-3
1.481699969E0,1.527118147E-3,0.000000000E0,1.679830020E-3,2.270224379E-3
1.484144240E0,3.054236295E-4,-1.221694518E-3,4.581354442E-4,1.340040736E-3
1.486587781E0,3.054236295E-4,-2.443389036E-3,-7.635590737E-4,2.578072154E-3
1.489032156E0,3.054236295E-4,0.000000000E0,-1.985253533E-3,2.008610262E-3
1.491477261E0,3.054236295E-4,0.000000000E0,-7.635590737E-4,8.223782903E-4
1.493921531E0,3.054236295E-4,-1.221694518E-3,4.581354442E-4,1.340040736E-3
1.496365073E0,-9.162708884E-4,0.000000000E0,-7.635590737E-4,1.192717402E-3
1.498809448E0,3.054236295E-4,-1.221694518E-3,4.581354442E-4,1.340040736E-3
1.501254604E0,3.054236295E-4,-2.443389036E-3,-1.985253533E-3,3.163015202E-3
1.503698875E0,3.054236295E-4,-1.221694518E-3,4.581354442E-4,1.340040736E-3
1.506142417E0,3.054236295E-4,0.000000000E0,1.679830020E-3,1.707370051E-3
1.508586792E0,1.527118147E-3,0.000000000E0,-7.635590737E-4,1.707369994E-3
1.511031896E0,3.054236295E-4,-1.221694518E-3,-7.635590737E-4,1.472699408E-3
1.513476167E0,1.527118147E-3,0.000000000E0,-7.635590737E-4,1.707369994E-3
1.515919709E0,3.054236295E-4,0.000000000E0,4.581354442E-4,5.506102784E-4
1.518364084E0,3.054236295E-4,-1.221694518E-3,4.581354442E-4,1.340040736E-3
1.520809188E0,1.527118147E-3,-1.221694518E-3,4.581354442E-4,2.008610320E-3
1.523253459E0,3.054236295E-4,-2.443389036E-3,-1.985253533E-3,3.163015202E-3
1.525697000E0,3.054236295E-4,-1.221694518E-3,1.679830020E-3,2.099440398E-3
1.528141375E0,1.527118147E-3,0.000000000E0,1.679830020E-3,2.270224379E-3
1.530586531E0,3.054236295E-4,0.000000000E0,-7.635590737E-4,8.223782903E-4
1.533030802E0,-9.162708884E-4,-1.221694518E-3,4.581354442E-4,1.594358153E-3
1.535474292E0,3.054236295E-4,-1.221694518E-3,-1.985253533E-3,2.350968456E-3
1.537918719E0,1.527118147E-3,0.000000000E0,-1.985253533E-3,2.504659943E-3
1.540363823E0,3.054236295E-4,0.000000000E0,4.581354442E-4,5.506102784E-4
1.542808094E0,1.527118147E-3,-2.443389036E-3,4.581354442E-4,2.917555124E-3
1.545251636E0,3.054236295E-4,-1.221694518E-3,-7.635590737E-4,1.472699408E-3
1.547696011E0,3.054236295E-4,-1.221694518E-3,4.581354442E-4,1.340040736E-3
1.550141115E0,3.054236295E-4,0.000000000E0,4.581354442E-4,5.506102784E-4
1.552585386E0,3.054236295E-4,1.221694518E-3,4.581354442E-4,1.340040736E-3
1.555028927E0,-9.162708884E-4,1.221694518E-3,4.581354442E-4,1.594358153E-3
1.557473302E0,3.054236295E-4,0.000000000E0,-7.635590737E-4,8.223782903E-4
1.559918459E0,1.527118147E-3,0.000000000E0,-7.635590737E-4,1.707369994E-3
1.562362729E0,3.054236295E-4,0.000000000E0,4.581354442E-4,5.506102784E-4
1.564806219E0,3.054236295E-4,0.000000000E0,4.581354442E-4,5.506102784E-4
1.567250646E0,3.054236295E-4,-2.443389036E-3,4.581354442E-4,2.504659989E-3
1.569695750E0,-9.162708884E-4,0.000000000E0,-1.985253533E-3,2.186500385E-3
1.572140021E0,1.527118147E-3,0.000000000E0,1.679830020E-3,2.270224379E-3
1.574583563E0,1.527118147E-3,-1.221694518E-3,4.581354442E-4,2.008610320E-3
1.577027938E0,1.527118147E-3,-1.221694518E-3,4.581354442E-4,2.008610320E-3
1.579473042E0,1.527118147E-3,-2.443389036E-3,-7.635590737E-4,2.980815706E-3
1.581917313E0,3.054236295E-4,-1.221694518E-3,4.581354442E-4,1.340040736E-3
1.584360854E0,3.054236295E-4,-2.443389036E-3,4.581354442E-4,2.504659989E-3
1.586805229E0,-9.162708884E-4,-1.221694518E-3,4.581354442E-4,1.594358153E-3
1.589250386E0,1.527118147E-3,-1.221694518E-3,4.581354442E-4,2.008610320E-3
1.591694656E0,3.054236295E-4,-1.221694518E-3,4.581354442E-4,1.340040736E-3
1.594138198E0,3.054236295E-4,-1.221694518E-3,1.679830020E-3,2.099440398E-3
1.596582573E0,3.054236295E-4,0.000000000E0,4.581354442E-4,5.506102784E-4
1.599027677E0,3.054236295E-4,-1.221694518E-3,1.679830020E-3,2.099440398E-3
1.601471948E0,-9.162708884E-4,1.221694518E-3,-7.635590737E-4,1.707369994E-3
1.603915490E0,-9.162708884E-4,0.000000000E0,-7.635590737E-4,1.192717402E-3
1.606359865E0,-9.162708884E-4,1.221694518E-3,-7.635590737E-4,1.707369994E-3
1.608804969E0,-9.162708884E-4,0.000000000E0,-1.985253533E-3,2.186500385E-3
1.611249240E0,3.054236295E-4,0.000000000E0,4.581354442E-4,5.506102784E-4
1.613692781E0,3.054236295E-4,1.221694518E-3,-1.985253533E-3,2.350968456E-3
1.616137156E0,3.054236295E-4,-1.221694518E-3,-7.635590737E-4,1.472699408E-3
1.618582313E0,1.527118147E-3,-1.221694518E-3,2.901524538E-3,3.499067301E-3
1.621026584E0,3.054236295E-4,0.000000000E0,-7.635590737E-4,8.223782903E-4
1.623470125E0,-9.162708884E-4,1.221694518E-3,-7.635590737E-4,1.707369994E-3
1.625914500E0,3.054236295E-4,0.000000000E0,1.679830020E-3,1.707370051E-3
1.628359604E0,3.054236295E-4,-1.221694518E-3,4.581354442E-4,1.340040736E-3
1.630803875E0,3.054236295E-4,0.000000000E0,-1.985253533E-3,2.008610262E-3
1.633247417E0,3.054236295E-4,-2.443389036E-3,-7.635590737E-4,2.578072154E-3
1.635691792E0,3.054236295E-4,0.000000000E0,4.581354442E-4,5.506102784E-4
1.638136896E0,3.054236295E-4,1.221694518E-3,4.581354442E-4,1.340040736E-3
1.640581167E0,3.054236295E-4,0.000000000E0,-7.635590737E-4,8.223782903E-4
1.643024709E0,1.527118147E-3,0.000000000E0,1.679830020E-3,2.270224379E-3
1.645469084E0,3.054236295E-4,0.000000000E0,-7.635590737E-4,8.223782903E-4
1.647914240E0,-9.162708884E-4,0.000000000E0,4.581354442E-4,1.024421996E-3
1.650358511E0,3.054236295E-4,-1.221694518E-3,-7.635590737E-4,1.472699408E-3
1.652802052E0,3.054236295E-4,-1.221694518E-3,4.581354442E-4,1.340040736E-3
1.655246427E0,-9.162708884E-4,-1.221694518E-3,4.581354442E-4,1.594358153E-3
1.657691531E0,3.054236295E-4,0.000000000E0,-7.635590737E-4,8.223782903E-4
1.660135802E0,3.054236295E-4,-1.221694518E-3,-7.635590737E-4,1.472699408E-3
1.662579344E0,3.054236295E-4,-2.443389036E-3,-7.635590737E-4,2.578072154E-3
1.665023719E0,-9.162708884E-4,0.000000000E0,-1.985253533E-3,2.186500385E-3
1.667468823E0,1.527118147E-3,-1.221694518E-3,2.901524538E-3,3.499067301E-3
1.669913094E0,3.054236295E-4,0.000000000E0,1.679830020E-3,1.707370051E-3
1.672356636E0,3.054236295E-4,-1.221694518E-3,-7.635590737E-4,1.472699408E-3
1.674801011E0,1.527118147E-3,-1.221694518E-3,4.581354442E-4,2.008610320E-3
1.677246167E0,1.527118147E-3,-1.221694518E-3,-7.635590737E-4,2.099440352E-3
1.679690438E0,-9.162708884E-4,-1.221694518E-3,-7.635590737E-4,1.707369994E-3
1.682133979E0,1.527118147E-3,0.000000000E0,4.581354442E-4,1.594358153E-3
1.684578354E0,1.527118147E-3,-1.221694518E-3,1.679830020E-3,2.578072192E-3
1.687023459E0,1.527118147E-3,-1.221694518E-3,4.581354442E-4,2.008610320E-3
1.689467729E0,3.054236295E-4,-2.443389036E-3,4.581354442E-4,2.504659989E-3
1.691911271E0,1.527118147E-3,0.000000000E0,4.581354442E-4,1.594358153E-3
1.694355646E0,-9.162708884E-4,1.221694518E-3,4.581354442E-4,1.594358153E-3
1.696800750E0,3.054236295E-4,0.000000000E0,-7.635590737E-4,8.223782903E-4
1.699245021E0,3.054236295E-4,0.000000000E0,1.679830020E-3,1.707370051E-3
1.701688563E0,3.054236295E-4,-2.443389036E-3,1.679830020E-3,2.980815739E-3
1.704132938E0,3.054236295E-4,-1.221694518E-3,-7.635590737E-4,1.472699408E-3
1.706578094E0,3.054236295E-4,2.443389036E-3,4.581354442E-4,2.504659989E-3
1.709022365E0,3.054236295E-4,0.000000000E0,4.581354442E-4,5.506102784E-4
1.711465906E0,3.054236295E-4,0.000000000E0,4.581354442E-4,5.506102784E-4
1.713910281E0,3.054236295E-4,-1.221694518E-3,4.581354442E-4,1.340040736E-3
1.716355386E0,-9.162708884E-4,0.000000000E0,-7.635590737E-4,1.192717402E-3
1.718799656E0,3.054236295E-4,0.000000000E0,-1.985253533E-3,2.008610262E-3
1.721243198E0,3.054236295E-4,0.000000000E0,-7.635590737E-4,8.223782903E-4
1.723687573E0,3.054236295E-4,0.000000000E0,1.679830020E-3,1.707370051E-3
1.726132677E0,-9.162708884E-4,1.221694518E-3,-1.985253533E-3,2.504659943E-3
1.728576948E0,3.054236295E-4,0.000000000E0,-7.635590737E-4,8.223782903E-4
1.731020490E0,3.054236295E-4,0.000000000E0,4.581354442E-4,5.506102784E-4
1.733464865E0,-9.162708884E-4,0.000000000E0,4.581354442E-4,1.024421996E-3
1.735910021E0,3.054236295E-4,-1.221694518E-3,-7.635590737E-4,1.472699408E-3
1.738354292E0,2.748812549E-3,0.000000000E0,4.581354442E-4,2.786728999E-3
1.740797834E0,3.054236295E-4,0.000000000E0,-7.635590737E-4,8.223782903E-4
1.743242209E0,3.054236295E-4,-1.221694518E-3,4.581354442E-4,1.340040736E-3
1.745687313E0,3.054236295E-4,-1.221694518E-3,4.581354442E-4,1.340040736E-3
1.748131584E0,3.054236295E-4,-1.221694518E-3,4.581354442E-4,1.340040736E-3
1.750575125E0,3.054236295E-4,-1.221694518E-3,-7.635590737E-4,1.472699408E-3
1.753019500E0,1.527118147E-3,-1.221694518E-3,4.581354442E-4,2.008610320E-3
1.755464604E0,3.054236295E-4,-1.221694518E-3,4.581354442E-4,1.340040736E-3
1.757908875E0,-9.162708884E-4,-1.221694518E-3,-7.635590737E-4,1.707369994E-3
1.760352417E0,-9.162708884E-4,-1.221694518E-3,-7.635590737E-4,1.707369994E-3
1.762796792E0,3.054236295E-4,-1.221694518E-3,4.581354442E-4,1.340040736E-3
1.765241948E0,-9.162708884E-4,-2.443389036E-3,4.581354442E-4,2.649450963E-3
1.767686219E0,3.054236295E-4,-1.221694518E-3,1.679830020E-3,2.099440398E-3
1.770129761E0,1.527118147E-3,0.000000000E0,4.581354442E-4,1.594358153E-3
1.772574136E0,3.054236295E-4,0.000000000E0,-7.635590737E-4,8.223782903E-4
1.775019240E0,3.054236295E-4,-1.221694518E-3,1.679830020E-3,2.099440398E-3
1.777463511E0,1.527118147E-3,0.000000000E0,4.581354442E-4,1.594358153E-3
1.779907052E0,1.527118147E-3,-1.221694518E-3,-7.635590737E-4,2.099440352E-3
1.782351427E0,3.054236295E-4,-2.443389036E-3,-7.635590737E-4,2.578072154E-3
1.784796584E0,3.054236295E-4,-1.221694518E-3,4.581354442E-4,1.340040736E-3
1.787240854E0,3.054236295E-4,-1.221694518E-3,2.901524538E-3,3.163015291E-3
1.789684344E0,3.054236295E-4,-1.221694518E-3,-1.985253533E-3,2.350968456E-3
1.792128719E0,3.054236295E-4,1.221694518E-3,-7.635590737E-4,1.472699408E-3
1.794573875E0,3.054236295E-4,-1.221694518E-3,4.581354442E-4,1.340040736E-3
1.797018146E0,3.054236295E-4,0.000000000E0,-1.985253533E-3,2.008610262E-3
1.799461688E0,3.054236295E-4,1.221694518E-3,1.679830020E-3,2.099440398E-3
1.801906063E0,1.527118147E-3,-2.443389036E-3,-7.635590737E-4,2.980815706E-3
1.804351167E0,3.054236295E-4,-1.221694518E-3,4.581354442E-4,1.340040736E-3
1.806795438E0,-9.162708884E-4,0.000000000E0,1.679830020E-3,1.913473605E-3
1.809238979E0,-9.162708884E-4,0.000000000E0,-7.635590737E-4,1.192717402E-3
1.811683354E0,3.054236295E-4,1.221694518E-3,-7.635590737E-4,1.472699408E-3
1.814128511E0,-9.162708884E-4,-1.221694518E-3,-7.635590737E-4,1.707369994E-3
1.816572729E0,3.054236295E-4,0.000000000E0,4.581354442E-4,5.506102784E-4
1.819016271E0,3.054236295E-4,-1.221694518E-3,-7.635590737E-4,1.472699408E-3
1.821460646E0,-9.162708884E-4,-1.221694518E-3,-1.985253533E-3,2.504659943E-3
1.823905802E0,3.054236295E-4,0.000000000E0,-7.635590737E-4,8.223782903E-4
1.826350073E0,3.054236295E-4,-1.221694518E-3,1.679830020E-3,2.099440398E-3
1.828793615E0,-9.162708884E-4,-1.221694518E-3,4.581354442E-4,1.594358153E-3
1.831237990E0,1.527118147E-3,-2.443389036E-3,1.679830020E-3,3.335276407E-3
1.833683094E0,3.054236295E-4,-2.443389036E-3,4.581354442E-4,2.504659989E-3
1.836127365E0,3.054236295E-4,0.000000000E0,-7.635590737E-4,8.223782903E-4
1.838570906E0,3.054236295E-4,-1.221694518E-3,4.581354442E-4,1.340040736E-3
1.841015281E0,3.054236295E-4,0.000000000E0,1.679830020E-3,1.707370051E-3
1.843460386E0,3.054236295E-4,-1.221694518E-3,2.901524538E-3,3.163015291E-3
1.845904761E0,3.054236295E-4,-1.221694518E-3,-7.635590737E-4,1.472699408E-3
1.848348198E0,3.054236295E-4,0.000000000E0,-1.985253533E-3,2.008610262E-3
1.850792573E0,1.527118147E-3,-2.443389036E-3,4.581354442E-4,2.917555124E-3
1.853237729E0,3.054236295E-4,-1.221694518E-3,1.679830020E-3,2.099440398E-3
1.855682000E0,3.054236295E-4,-1.221694518E-3,-7.635590737E-4,1.472699408E-3
1.858125542E0,3.054236295E-4,-1.221694518E-3,-7.635590737E-4,1.472699408E-3
1.860569917E0,3.054236295E-4,-1.221694518E-3,-7.635590737E-4,1.472699408E-3
1.863015021E0,3.054236295E-4,-1.221694518E-3,4.581354442E-4,1.340040736E-3
1.865459292E0,3.054236295E-4,-2.443389036E-3,-1.985253533E-3,3.163015202E-3
1.867902834E0,3.054236295E-4,-2.443389036E-3,-1.985253533E-3,3.163015202E-3
1.870347209E0,3.054236295E-4,-2.443389036E-3,-7.635590737E-4,2.578072154E-3
1.872792313E0,3.054236295E-4,1.221694518E-3,-7.635590737E-4,1.472699408E-3
1.875236688E0,1.527118147E-3,0.000000000E0,-7.635590737E-4,1.707369994E-3
1.877680125E0,-9.162708884E-4,-1.221694518E-3,-7.635590737E-4,1.707369994E-3
1.880124552E0,-9.162708884E-4,-1.221694518E-3,-1.985253533E-3,2.504659943E-3
1.882569656E0,3.054236295E-4,-1.221694518E-3,4.581354442E-4,1.340040736E-3
1.885013927E0,3.054236295E-4,-1.221694518E-3,-7.635590737E-4,1.472699408E-3
1.887457469E0,3.054236295E-4,0.000000000E0,4.581354442E-4,5.506102784E-4
1.889901844E0,3.054236295E-4,-1.221694518E-3,-7.635590737E-4,1.472699408E-3
1.892346948E0,3.054236295E-4,0.000000000E0,-7.635590737E-4,8.223782903E-4
1.894791219E0,-9.162708884E-4,0.000000000E0,-1.985253533E-3,2.186500385E-3
1.897234761E0,3.054236295E-4,0.000000000E0,-7.635590737E-4,8.223782903E-4
1.899679136E0,3.054236295E-4,0.000000000E0,4.581354442E-4,5.506102784E-4
1.902124292E0,3.054236295E-4,-2.443389036E-3,-7.635590737E-4,2.578072154E-3
1.904568563E0,1.527118147E-3,0.000000000E0,4.581354442E-4,1.594358153E-3
1.907012052E0,3.054236295E-4,0.000000000E0,-7.635590737E-4,8.223782903E-4
1.909456479E0,3.054236295E-4,0.000000000E0,-7.635590737E-4,8.223782903E-4
1.911901584E0,1.527118147E-3,-1.221694518E-3,1.679830020E-3,2.578072192E-3
1.914345854E0,1.527118147E-3,-1.221694518E-3,-7.635590737E-4,2.099440352E-3
1.916789396E0,3.054236295E-4,0.000000000E0,4.581354442E-4,5.506102784E-4
1.919233771E0,3.054236295E-4,-1.221694518E-3,-7.635590737E-4,1.472699408E-3
1.921678875E0,1.527118147E-3,-2.443389036E-3,1.679830020E-3,3.335276407E-3
1.924123146E0,3.054236295E-4,-1.221694518E-3,4.581354442E-4,1.340040736E-3
1.926566688E0,3.054236295E-4,0.000000000E0,1.679830020E-3,1.707370051E-3
1.929011063E0,3.054236295E-4,0.000000000E0,4.581354442E-4,5.506102784E-4
1.931456219E0,3.054236295E-4,-1.221694518E-3,4.581354442E-4,1.340040736E-3
1.933900490E0,3.054236295E-4,0.000000000E0,4.581354442E-4,5.506102784E-4
1.936343979E0,1.527118147E-3,0.000000000E0,4.581354442E-4,1.594358153E-3
1.938788406E0,-9.162708884E-4,0.000000000E0,-7.635590737E-4,1.192717402E-3
1.941233511E0,-9.162708884E-4,1.221694518E-3,4.581354442E-4,1.594358153E-3
1.943677781E0,3.054236295E-4,-1.221694518E-3,4.581354442E-4,1.340040736E-3
1.946121323E0,1.527118147E-3,0.000000000E0,4.581354442E-4,1.594358153E-3
1.948565698E0,3.054236295E-4,0.000000000E0,4.581354442E-4,5.506102784E-4
1.951010802E0,-9.162708884E-4,-1.221694518E-3,4.581354442E-4,1.594358153E-3
1.953455073E0,3.054236295E-4,-1.221694518E-3,4.581354442E-4,1.340040736E-3
1.955898615E0,1.527118147E-3,1.221694518E-3,-7.635590737E-4,2.099440352E-3
1.958342990E0,3.054236295E-4,0.000000000E0,4.581354442E-4,5.506102784E-4
1.960788094E0,1.527118147E-3,-1.221694518E-3,1.679830020E-3,2.578072192E-3
1.963232469E0,3.054236295E-4,-1.221694518E-3,4.581354442E-4,1.340040736E-3
1.965675906E0,-9.162708884E-4,1.221694518E-3,-7.635590737E-4,1.707369994E-3
1.968120334E0,1.527118147E-3,0.000000000E0,4.581354442E-4,1.594358153E-3
1.970565438E0,1.527118147E-3,-1.221694518E-3,1.679830020E-3,2.578072192E-3
1.973009709E0,3.054236295E-4,0.000000000E0,1.679830020E-3,1.707370051E-3
1.975453250E0,3.054236295E-4,-1.221694518E-3,1.679830020E-3,2.099440398E-3
1.977897625E0,3.054236295E-4,0.000000000E0,4.581354442E-4,5.506102784E-4
1.980342729E0,3.054236295E-4,0.000000000E0,-7.635590737E-4,8.223782903E-4
1.982787000E0,-9.162708884E-4,0.000000000E0,-3.206948051E-3,3.335276322E-3
1.985230542E0,3.054236295E-4,-1.221694518E-3,4.581354442E-4,1.340040736E-3
1.987674917E0,3.054236295E-4,-1.221694518E-3,4.581354442E-4,1.340040736E-3
1.990120073E0,1.527118147E-3,-1.221694518E-3,-7.635590737E-4,2.099440352E-3
1.992564344E0,3.054236295E-4,0.000000000E0,4.581354442E-4,5.506102784E-4
1.995007834E0,3.054236295E-4,0.000000000E0,4.581354442E-4,5.506102784E-4
1.997452261E0,1.527118147E-3,-2.443389036E-3,4.581354442E-4,2.917555124E-3
1.999897365E0,-9.162708884E-4,0.000000000E0,-7.635590737E-4,1.192717402E-3
2.002341636E0,3.054236295E-4,0.000000000E0,1.679830020E-3,1.707370051E-3
2.004785177E0,3.054236295E-4,0.000000000E0,4.581354442E-4,5.506102784E-4
2.007229552E0,3.054236295E-4,-1.221694518E-3,-7.635590737E-4,1.472699408E-3
2.009674656E0,3.054236295E-4,-1.221694518E-3,-7.635590737E-4,1.472699408E-3
2.012118927E0,3.054236295E-4,-1.221694518E-3,4.581354442E-4,1.340040736E-3
2.014562469E0,3.054236295E-4,-1.221694518E-3,-7.635590737E-4,1.472699408E-3
2.017006844E0,3.054236295E-4,-1.221694518E-3,-7.635590737E-4,1.472699408E-3
2.019452000E0,-9.162708884E-4,1.221694518E-3,-7.635590737E-4,1.707369994E-3
2.021896271E0,1.527118147E-3,0.000000000E0,-7.635590737E-4,1.707369994E-3
2.024339813E0,3.054236295E-4,0.000000000E0,4.581354442E-4,5.506102784E-4
2.026784188E0,3.054236295E-4,-1.221694518E-3,-7.635590737E-4,1.472699408E-3
2.029229292E0,1.527118147E-3,0.000000000E0,-7.635590737E-4,1.707369994E-3
2.031673563E0,1.527118147E-3,-1.221694518E-3,-7.635590737E-4,2.099440352E-3
2.034117104E0,3.054236295E-4,0.000000000E0,-7.635590737E-4,8.223782903E-4
2.036561479E0,3.054236295E-4,-1.221694518E-3,-7.635590737E-4,1.472699408E-3
2.039006584E0,3.054236295E-4,-2.443389036E-3,4.581354442E-4,2.504659989E-3
2.041450854E0,1.527118147E-3,-3.665083554E-3,4.581354442E-4,3.996850682E-3
2.043894396E0,1.527118147E-3,-2.443389036E-3,1.679830020E-3,3.335276407E-3
2.046338771E0,1.527118147E-3,-1.221694518E-3,4.581354442E-4,2.008610320E-3
2.048783927E0,3.054236295E-4,-1.221694518E-3,-1.985253533E-3,2.350968456E-3
2.051228198E0,1.527118147E-3,0.000000000E0,4.581354442E-4,1.594358153E-3
2.053671688E0,1.527118147E-3,0.000000000E0,4.581354442E-4,1.594358153E-3
2.056116115E0,1.527118147E-3,0.000000000E0,4.581354442E-4,1.594358153E-3
2.058561219E0,3.054236295E-4,1.221694518E-3,-7.635590737E-4,1.472699408E-3
2.061005490E0,3.054236295E-4,1.221694518E-3,4.581354442E-4,1.340040736E-3
2.063449031E0,3.054236295E-4,-2.443389036E-3,4.581354442E-4,2.504659989E-3
2.065893406E0,3.054236295E-4,-2.443389036E-3,4.581354442E-4,2.504659989E-3
2.068338511E0,1.527118147E-3,-2.443389036E-3,4.581354442E-4,2.917555124E-3
2.070782781E0,3.054236295E-4,-2.443389036E-3,-1.985253533E-3,3.163015202E-3
2.073226323E0,3.054236295E-4,0.000000000E0,-7.635590737E-4,8.223782903E-4
2.075670698E0,3.054236295E-4,-1.221694518E-3,2.901524538E-3,3.163015291E-3
2.078115854E0,3.054236295E-4,-1.221694518E-3,-7.635590737E-4,1.472699408E-3
2.080560125E0,3.054236295E-4,-1.221694518E-3,-7.635590737E-4,1.472699408E-3
2.083003615E0,-9.162708884E-4,-1.221694518E-3,-1.985253533E-3,2.504659943E-3
2.085448042E0,-9.162708884E-4,1.221694518E-3,-1.985253533E-3,2.504659943E-3
2.087893146E0,3.054236295E-4,0.000000000E0,-3.206948051E-3,3.221459203E-3
2.090337417E0,3.054236295E-4,-1.221694518E-3,4.581354442E-4,1.340040736E-3
2.092780959E0,3.054236295E-4,0.000000000E0,4.581354442E-4,5.506102784E-4
2.095225334E0,3.054236295E-4,-2.443389036E-3,-1.985253533E-3,3.163015202E-3
2.097670438E0,3.054236295E-4,-1.221694518E-3,-3.206948051E-3,3.445335527E-3
2.100114709E0,3.054236295E-4,-2.443389036E-3,-7.635590737E-4,2.578072154E-3
2.102558250E0,1.527118147E-3,-1.221694518E-3,-1.985253533E-3,2.786729072E-3
2.105002625E0,3.054236295E-4,-1.221694518E-3,-7.635590737E-4,1.472699408E-3
2.107447781E0,3.054236295E-4,-1.221694518E-3,4.581354442E-4,1.340040736E-3
2.109892052E0,3.054236295E-4,0.000000000E0,4.581354442E-4,5.506102784E-4
2.112335542E0,-9.162708884E-4,0.000000000E0,4.123218823E-3,4.223799925E-3
2.114779969E0,3.054236295E-4,-1.221694518E-3,1.679830020E-3,2.099440398E-3
2.117225073E0,-9.162708884E-4,-1.221694518E-3,-7.635590737E-4,1.707369994E-3
2.119669344E0,3.054236295E-4,-1.221694518E-3,4.581354442E-4,1.340040736E-3
2.122112886E0,-9.162708884E-4,-1.221694518E-3,-7.635590737E-4,1.707369994E-3
2.124557261E0,-9.162708884E-4,-1.221694518E-3,-7.635590737E-4,1.707369994E-3
2.127002365E0,3.054236295E-4,0.000000000E0,-7.635590737E-4,8.223782903E-4
2.129446636E0,3.054236295E-4,0.000000000E0,-7.635590737E-4,8.223782903E-4
2.131890177E0,3.054236295E-4,1.221694518E-3,4.581354442E-4,1.340040736E-3
2.134334552E0,-9.162708884E-4,0.000000000E0,-3.206948051E-3,3.335276322E-3
2.136779709E0,-9.162708884E-4,1.221694518E-3,-7.635590737E-4,1.707369994E-3
2.139223979E0,3.054236295E-4,-1.221694518E-3,-1.985253533E-3,2.350968456E-3
2.141667521E0,3.054236295E-4,-1.221694518E-3,1.679830020E-3,2.099440398E-3
2.144111896E0,3.054236295E-4,0.000000000E0,4.581354442E-4,5.506102784E-4
2.146557000E0,3.054236295E-4,-1.221694518E-3,-7.635590737E-4,1.472699408E-3
2.149001271E0,3.054236295E-4,0.000000000E0,-7.635590737E-4,8.223782903E-4
2.151444813E0,-9.162708884E-4,1.221694518E-3,-7.635590737E-4,1.707369994E-3
2.153889188E0,3.054236295E-4,0.000000000E0,-7.635590737E-4,8.223782903E-4
2.156334292E0,1.527118147E-3,-1.221694518E-3,-1.985253533E-3,2.786729072E-3
2.158778563E0,3.054236295E-4,1.221694518E-3,4.581354442E-4,1.340040736E-3
2.161222104E0,3.054236295E-4,0.000000000E0,4.581354442E-4,5.506102784E-4
2.163666479E0,3.054236295E-4,1.221694518E-3,4.581354442E-4,1.340040736E-3
2.166111636E0,3.054236295E-4,-2.443389036E-3,4.581354442E-4,2.504659989E-3
2.168555906E0,3.054236295E-4,-2.443389036E-3,4.581354442E-4,2.504659989E-3
2.170999448E0,1.527118147E-3,-2.443389036E-3,4.581354442E-4,2.917555124E-3
2.173443823E0,3.054236295E-4,0.000000000E0,-7.635590737E-4,8.223782903E-4
2.175888927E0,-9.162708884E-4,-1.221694518E-3,-7.635590737E-4,1.707369994E-3
2.178333198E0,3.054236295E-4,0.000000000E0,-7.635590737E-4,8.223782903E-4
2.180776740E0,-9.162708884E-4,0.000000000E0,4.581354442E-4,1.024421996E-3
2.183221115E0,3.054236295E-4,-1.221694518E-3,1.679830020E-3,2.099440398E-3
2.185666219E0,3.054236295E-4,0.000000000E0,-7.635590737E-4,8.223782903E-4
2.188110490E0,3.054236295E-4,-1.221694518E-3,4.581354442E-4,1.340040736E-3
2.190554031E0,1.527118147E-3,0.000000000E0,1.679830020E-3,2.270224379E-3
2.192998406E0,3.054236295E-4,-1.221694518E-3,4.581354442E-4,1.340040736E-3
2.195443563E0,3.054236295E-4,-2.443389036E-3,4.581354442E-4,2.504659989E-3
2.197887834E0,3.054236295E-4,-2.443389036E-3,1.679830020E-3,2.980815739E-3
2.200331323E0,-9.162708884E-4,-1.221694518E-3,4.581354442E-4,1.594358153E-3
2.202775750E0,3.054236295E-4,-1.221694518E-3,4.581354442E-4,1.340040736E-3
2.205220854E0,-2.137965523E-3,0.000000000E0,1.679830020E-3,2.718956688E-3
2.207665125E0,1.527118147E-3,0.000000000E0,4.581354442E-4,1.594358153E-3
2.210108667E0,3.054236295E-4,-1.221694518E-3,4.581354442E-4,1.340040736E-3
2.212553042E0,1.527118147E-3,-1.221694518E-3,1.679830020E-3,2.578072192E-3
2.214998146E0,3.054236295E-4,-1.221694518E-3,1.679830020E-3,2.099440398E-3
2.217442417E0,-9.162708884E-4,0.000000000E0,1.679830020E-3,1.913473605E-3
2.219885959E0,3.054236295E-4,-2.443389036E-3,-7.635590737E-4,2.578072154E-3
2.222330334E0,3.054236295E-4,-1.221694518E-3,-1.985253533E-3,2.350968456E-3
2.224775490E0,-9.162708884E-4,-1.221694518E-3,-1.985253533E-3,2.504659943E-3
2.227219761E0,3.054236295E-4,-2.443389036E-3,1.679830020E-3,2.980815739E-3
2.229663302E0,-9.162708884E-4,-1.221694518E-3,1.679830020E-3,2.270224379E-3
2.232107677E0,-9.162708884E-4,0.000000000E0,4.581354442E-4,1.024421996E-3
2.234552781E0,3.054236295E-4,0.000000000E0,4.581354442E-4,5.506102784E-4
2.236997052E0,1.527118147E-3,0.000000000E0,1.679830020E-3,2.270224379E-3
2.239440594E0,3.054236295E-4,-1.221694518E-3,-7.635590737E-4,1.472699408E-3
2.241884969E0,3.054236295E-4,-1.221694518E-3,-1.985253533E-3,2.350968456E-3
2.244330073E0,3.054236295E-4,0.000000000E0,-7.635590737E-4,8.223782903E-4
2.246774344E0,3.054236295E-4,0.000000000E0,4.581354442E-4,5.506102784E-4
2.249217886E0,1.527118147E-3,0.000000000E0,-7.635590737E-4,1.707369994E-3
2.251662261E0,1.527118147E-3,0.000000000E0,-1.985253533E-3,2.504659943E-3
2.254107417E0,3.054236295E-4,0.000000000E0,-1.985253533E-3,2.008610262E-3
2.256551688E0,3.054236295E-4,0.000000000E0,-7.635590737E-4,8.223782903E-4
2.258995229E0,-9.162708884E-4,-1.221694518E-3,-7.635590737E-4,1.707369994E-3
2.261439604E0,1.527118147E-3,-1.221694518E-3,4.581354442E-4,2.008610320E-3
2.263884709E0,-9.162708884E-4,0.000000000E0,4.581354442E-4,1.024421996E-3
2.266328979E0,3.054236295E-4,-1.221694518E-3,1.679830020E-3,2.099440398E-3
2.268772521E0,3.054236295E-4,-1.221694518E-3,-7.635590737E-4,1.472699408E-3
2.271216896E0,3.054236295E-4,-1.221694518E-3,-7.635590737E-4,1.472699408E-3
2.273662000E0,3.054236295E-4,0.000000000E0,-7.635590737E-4,8.223782903E-4
2.276106271E0,3.054236295E-4,0.000000000E0,-7.635590737E-4,8.223782903E-4
2.278549813E0,3.054236295E-4,0.000000000E0,1.679830020E-3,1.707370051E-3
2.280994188E0,3.054236295E-4,0.000000000E0,4.581354442E-4,5.506102784E-4
2.283439344E0,1.527118147E-3,-1.221694518E-3,-7.635590737E-4,2.099440352E-3
2.285883615E0,3.054236295E-4,-2.443389036E-3,-3.206948051E-3,4.043259746E-3
2.288327156E0,3.054236295E-4,-1.221694518E-3,-1.985253533E-3,2.350968456E-3
2.290771531E0,3.054236295E-4,1.221694518E-3,-1.985253533E-3,2.350968456E-3
2.293216636E0,3.054236295E-4,0.000000000E0,1.679830020E-3,1.707370051E-3
2.295660906E0,3.054236295E-4,-1.221694518E-3,4.581354442E-4,1.340040736E-3
2.298104448E0,-9.162708884E-4,0.000000000E0,4.581354442E-4,1.024421996E-3
2.300548823E0,1.527118147E-3,-1.221694518E-3,-7.635590737E-4,2.099440352E-3
2.302993927E0,3.054236295E-4,1.221694518E-3,-7.635590737E-4,1.472699408E-3
2.305438198E0,-9.162708884E-4,0.000000000E0,4.581354442E-4,1.024421996E-3
2.307881740E0,3.054236295E-4,0.000000000E0,-7.635590737E-4,8.223782903E-4
2.310326115E0,-9.162708884E-4,0.000000000E0,-1.985253533E-3,2.186500385E-3
2.312771271E0,3.054236295E-4,0.000000000E0,4.581354442E-4,5.506102784E-4
2.315215542E0,3.054236295E-4,0.000000000E0,4.581354442E-4,5.506102784E-4
2.317659084E0,3.054236295E-4,0.000000000E0,4.581354442E-4,5.506102784E-4
2.320103459E0,-9.162708884E-4,-1.221694518E-3,4.581354442E-4,1.594358153E-3
2.322548563E0,1.527118147E-3,-1.221694518E-3,-7.635590737E-4,2.099440352E-3
2.324992834E0,3.054236295E-4,1.221694518E-3,2.901524538E-3,3.163015291E-3
2.327436375E0,3.054236295E-4,0.000000000E0,4.581354442E-4,5.506102784E-4
2.329880750E0,3.054236295E-4,1.221694518E-3,-7.635590737E-4,1.472699408E-3
2.332325854E0,1.527118147E-3,1.221694518E-3,4.581354442E-4,2.008610320E-3
2.334770125E0,1.527118147E-3,-1.221694518E-3,4.581354442E-4,2.008610320E-3
2.337213667E0,3.054236295E-4,-2.443389036E-3,-1.985253533E-3,3.163015202E-3
2.339658042E0,3.054236295E-4,0.000000000E0,-7.635590737E-4,8.223782903E-4
2.342103198E0,-9.162708884E-4,0.000000000E0,4.581354442E-4,1.024421996E-3
2.344547469E0,-9.162708884E-4,-1.221694518E-3,4.581354442E-4,1.594358153E-3
2.346990959E0,-9.162708884E-4,-1.221694518E-3,4.581354442E-4,1.594358153E-3
2.349435386E0,-9.162708884E-4,0.000000000E0,1.679830020E-3,1.913473605E-3
2.351880490E0,3.054236295E-4,-1.221694518E-3,-7.635590737E-4,1.472699408E-3
2.354324761E0,3.054236295E-4,0.000000000E0,1.679830020E-3,1.707370051E-3
2.356768302E0,-9.162708884E-4,-1.221694518E-3,-7.635590737E-4,1.707369994E-3
2.359212677E0,-9.162708884E-4,0.000000000E0,-7.635590737E-4,1.192717402E-3
2.361657781E0,1.527118147E-3,0.000000000E0,-7.635590737E-4,1.707369994E-3
2.364102052E0,3.054236295E-4,-1.221694518E-3,-7.635590737E-4,1.472699408E-3
2.366545594E0,3.054236295E-4,-2.443389036E-3,-7.635590737E-4,2.578072154E-3
2.368989969E0,3.054236295E-4,-2.443389036E-3,4.581354442E-4,2.504659989E-3
2.371435125E0,-9.162708884E-4,0.000000000E0,4.581354442E-4,1.024421996E-3
2.373879396E0,-2.137965523E-3,1.221694518E-3,-7.635590737E-4,2.578072251E-3
2.376322938E0,-9.162708884E-4,2.443389036E-3,-7.635590737E-4,2.718956561E-3
2.378767313E0,1.527118147E-3,0.000000000E0,-1.985253533E-3,2.504659943E-3
2.381212417E0,1.527118147E-3,0.000000000E0,4.581354442E-4,1.594358153E-3
2.383656688E0,1.527118147E-3,-1.221694518E-3,-7.635590737E-4,2.099440352E-3
2.386100229E0,3.054236295E-4,0.000000000E0,-7.635590737E-4,8.223782903E-4
2.388544604E0,3.054236295E-4,0.000000000E0,-7.635590737E-4,8.223782903E-4
2.390989709E0,3.054236295E-4,1.221694518E-3,4.581354442E-4,1.340040736E-3
2.393433979E0,3.054236295E-4,0.000000000E0,4.581354442E-4,5.506102784E-4
2.395877521E0,-9.162708884E-4,-2.443389036E-3,4.581354442E-4,2.649450963E-3
2.398321896E0,1.527118147E-3,-1.221694518E-3,-7.635590737E-4,2.099440352E-3
2.400767052E0,3.054236295E-4,0.000000000E0,-7.635590737E-4,8.223782903E-4
2.403211323E0,1.527118147E-3,0.000000000E0,-7.635590737E-4,1.707369994E-3
2.405654813E0,1.527118147E-3,-1.221694518E-3,4.581354442E-4,2.008610320E-3
2.408099240E0,3.054236295E-4,-1.221694518E-3,4.581354442E-4,1.340040736E-3
2.410544344E0,-9.162708884E-4,0.000000000E0,-7.635590737E-4,1.192717402E-3
2.412988615E0,3.054236295E-4,-1.221694518E-3,4.581354442E-4,1.340040736E-3
2.415432156E0,3.054236295E-4,1.221694518E-3,4.581354442E-4,1.340040736E-3
2.417876531E0,-9.162708884E-4,0.000000000E0,-1.985253533E-3,2.186500385E-3
2.420321636E0,-2.137965523E-3,-1.221694518E-3,-7.635590737E-4,2.578072251E-3
2.422765906E0,3.054236295E-4,1.221694518E-3,-7.635590737E-4,1.472699408E-3
2.425209448E0,3.054236295E-4,-1.221694518E-3,-7.635590737E-4,1.472699408E-3
2.427653823E0,3.054236295E-4,0.000000000E0,-7.635590737E-4,8.223782903E-4
2.430098979E0,3.054236295E-4,-1.221694518E-3,4.581354442E-4,1.340040736E-3
2.432543250E0,3.054236295E-4,1.221694518E-3,4.581354442E-4,1.340040736E-3
2.434986740E0,3.054236295E-4,-1.221694518E-3,-1.985253533E-3,2.350968456E-3
2.437431167E0,3.054236295E-4,0.000000000E0,4.581354442E-4,5.506102784E-4
2.439876271E0,3.054236295E-4,1.221694518E-3,-7.635590737E-4,1.472699408E-3
2.442320542E0,3.054236295E-4,1.221694518E-3,4.581354442E-4,1.340040736E-3
2.444764084E0,3.054236295E-4,1.221694518E-3,-1.985253533E-3,2.350968456E-3
2.447208459E0,3.054236295E-4,0.000000000E0,4.581354442E-4,5.506102784E-4
2.449653563E0,3.054236295E-4,0.000000000E0,4.581354442E-4,5.506102784E-4
2.452097834E0,3.054236295E-4,0.000000000E0,1.679830020E-3,1.707370051E-3
2.454541375E0,3.054236295E-4,0.000000000E0,-7.635590737E-4,8.223782903E-4
2.456985750E0,1.527118147E-3,0.000000000E0,4.581354442E-4,1.594358153E-3
2.459430906E0,1.527118147E-3,-2.443389036E-3,1.679830020E-3,3.335276407E-3
2.461875177E0,3.054236295E-4,-1.221694518E-3,-1.985253533E-3,2.350968456E-3
2.464318667E0,3.054236295E-4,-1.221694518E-3,-7.635590737E-4,1.472699408E-3
2.466763094E0,1.527118147E-3,-1.221694518E-3,4.581354442E-4,2.008610320E-3
2.469208198E0,3.054236295E-4,0.000000000E0,-7.635590737E-4,8.223782903E-4
2.471652469E0,1.527118147E-3,1.221694518E-3,1.679830020E-3,2.578072192E-3
2.474096011E0,3.054236295E-4,0.000000000E0,4.581354442E-4,5.506102784E-4
2.476540386E0,-9.162708884E-4,-1.221694518E-3,-1.985253533E-3,2.504659943E-3
2.478985490E0,1.527118147E-3,0.000000000E0,1.679830020E-3,2.270224379E-3
2.481429761E0,3.054236295E-4,0.000000000E0,4.581354442E-4,5.506102784E-4
2.483873302E0,3.054236295E-4,1.221694518E-3,4.581354442E-4,1.340040736E-3
2.486317677E0,-9.162708884E-4,-1.221694518E-3,4.581354442E-4,1.594358153E-3
2.488762834E0,1.527118147E-3,-2.443389036E-3,4.581354442E-4,2.917555124E-3
2.491207104E0,3.054236295E-4,-1.221694518E-3,1.679830020E-3,2.099440398E-3
2.493650646E0,3.054236295E-4,0.000000000E0,4.581354442E-4,5.506102784E-4
2.496095021E0,1.527118147E-3,-1.221694518E-3,-7.635590737E-4,2.099440352E-3
2.498540125E0,1.527118147E-3,-1.221694518E-3,-7.635590737E-4,2.099440352E-3
2.500984396E0,1.527118147E-3,-1.221694518E-3,4.581354442E-4,2.008610320E-3
2.503427938E0,-9.162708884E-4,0.000000000E0,-1.985253533E-3,2.186500385E-3
2.505872313E0,3.054236295E-4,-1.221694518E-3,-3.206948051E-3,3.445335527E-3
2.508317417E0,-9.162708884E-4,0.000000000E0,4.581354442E-4,1.024421996E-3
2.510761688E0,3.054236295E-4,0.000000000E0,4.581354442E-4,5.506102784E-4
2.513205229E0,3.054236295E-4,0.000000000E0,-7.635590737E-4,8.223782903E-4
2.515649604E0,1.527118147E-3,-1.221694518E-3,4.581354442E-4,2.008610320E-3
2.518094761E0,1.527118147E-3,0.000000000E0,4.581354442E-4,1.594358153E-3
2.520539031E0,3.054236295E-4,0.000000000E0,4.581354442E-4,5.506102784E-4
2.522982521E0,-2.137965523E-3,1.221694518E-3,-3.206948051E-3,4.043259808E-3
2.525426948E0,3.054236295E-4,0.000000000E0,-7.635590737E-4,8.223782903E-4
2.527872052E0,3.054236295E-4,0.000000000E0,-7.635590737E-4,8.223782903E-4
2.530316323E0,-9.162708884E-4,-1.221694518E-3,-1.985253533E-3,2.504659943E-3
2.532759865E0,-9.162708884E-4,-1.221694518E-3,-7.635590737E-4,1.707369994E-3
2.535204240E0,3.054236295E-4,0.000000000E0,4.581354442E-4,5.506102784E-4
2.537649344E0,-9.162708884E-4,-1.221694518E-3,-7.635590737E-4,1.707369994E-3
2.540093615E0,-9.162708884E-4,0.000000000E0,-7.635590737E-4,1.192717402E-3
2.542537156E0,3.054236295E-4,1.221694518E-3,-7.635590737E-4,1.472699408E-3
2.544981531E0,3.054236295E-4,-1.221694518E-3,4.581354442E-4,1.340040736E-3
2.547426688E0,1.527118147E-3,0.000000000E0,4.581354442E-4,1.594358153E-3
2.549870959E0,3.054236295E-4,-1.221694518E-3,4.581354442E-4,1.340040736E-3
2.552314448E0,1.527118147E-3,1.221694518E-3,4.581354442E-4,2.008610320E-3
2.554758875E0,3.054236295E-4,0.000000000E0,-7.635590737E-4,8.223782903E-4
2.557203979E0,3.054236295E-4,0.000000000E0,-7.635590737E-4,8.223782903E-4
2.559648250E0,-9.162708884E-4,-1.221694518E-3,-7.635590737E-4,1.707369994E-3
2.562091792E0,-9.162708884E-4,0.000000000E0,4.581354442E-4,1.024421996E-3
2.564536167E0,-9.162708884E-4,-1.221694518E-3,1.679830020E-3,2.270224379E-3
2.566981271E0,3.054236295E-4,-2.443389036E-3,4.581354442E-4,2.504659989E-3
2.569425542E0,1.527118147E-3,-1.221694518E-3,-7.635590737E-4,2.099440352E-3
2.571869084E0,3.054236295E-4,0.000000000E0,4.581354442E-4,5.506102784E-4
2.574313459E0,3.054236295E-4,0.000000000E0,4.581354442E-4,5.506102784E-4
2.576758615E0,1.527118147E-3,0.000000000E0,4.581354442E-4,1.594358153E-3
2.579202886E0,-9.162708884E-4,0.000000000E0,-7.635590737E-4,1.192717402E-3
2.581646427E0,-9.162708884E-4,0.000000000E0,4.581354442E-4,1.024421996E-3
2.584090802E0,3.054236295E-4,-1.221694518E-3,1.679830020E-3,2.099440398E-3
2.586535906E0,1.527118147E-3,-1.221694518E-3,4.581354442E-4,2.008610320E-3
2.588980177E0,3.054236295E-4,-1.221694518E-3,4.581354442E-4,1.340040736E-3
2.591423719E0,1.527118147E-3,0.000000000E0,1.679830020E-3,2.270224379E-3
2.593868094E0,1.527118147E-3,0.000000000E0,1.679830020E-3,2.270224379E-3
2.596313198E0,3.054236295E-4,-1.221694518E-3,-7.635590737E-4,1.472699408E-3
2.598757469E0,3.054236295E-4,-1.221694518E-3,-1.985253533E-3,2.350968456E-3
2.601201011E0,3.054236295E-4,-1.221694518E-3,4.581354442E-4,1.340040736E-3
2.603645386E0,1.527118147E-3,-1.221694518E-3,-7.635590737E-4,2.099440352E-3
2.606090542E0,1.527118147E-3,-1.221694518E-3,4.581354442E-4,2.008610320E-3
2.608534813E0,-9.162708884E-4,0.000000000E0,4.581354442E-4,1.024421996E-3
2.610978302E0,3.054236295E-4,0.000000000E0,1.679830020E-3,1.707370051E-3
2.613422729E0,3.054236295E-4,0.000000000E0,1.679830020E-3,1.707370051E-3
2.615867834E0,3.054236295E-4,-1.221694518E-3,-3.206948051E-3,3.445335527E-3
2.618312104E0,-9.162708884E-4,0.000000000E0,-7.635590737E-4,1.192717402E-3
2.620755646E0,3.054236295E-4,-1.221694518E-3,4.581354442E-4,1.340040736E-3
2.623200021E0,1.527118147E-3,-1.221694518E-3,1.679830020E-3,2.578072192E-3
2.625645125E0,3.054236295E-4,0.000000000E0,-1.985253533E-3,2.008610262E-3
2.628089396E0,1.527118147E-3,-1.221694518E-3,4.581354442E-4,2.008610320E-3
2.630532938E0,3.054236295E-4,0.000000000E0,2.901524538E-3,2.917555182E-3
2.632977313E0,3.054236295E-4,0.000000000E0,-7.635590737E-4,8.223782903E-4
2.635422469E0,2.748812549E-3,0.000000000E0,1.679830020E-3,3.221459192E-3
2.637866740E0,1.527118147E-3,-2.443389036E-3,1.679830020E-3,3.335276407E-3
2.640310281E0,3.054236295E-4,0.000000000E0,1.679830020E-3,1.707370051E-3
2.642754656E0,1.527118147E-3,-1.221694518E-3,4.581354442E-4,2.008610320E-3
2.645199761E0,-9.162708884E-4,1.221694518E-3,-7.635590737E-4,1.707369994E-3
2.647644031E0,3.054236295E-4,-1.221694518E-3,-7.635590737E-4,1.472699408E-3
2.650087573E0,1.527118147E-3,-1.221694518E-3,4.581354442E-4,2.008610320E-3
2.652531948E0,1.527118147E-3,0.000000000E0,4.581354442E-4,1.594358153E-3
2.654977052E0,-9.162708884E-4,1.221694518E-3,-7.635590737E-4,1.707369994E-3
2.657421323E0,-9.162708884E-4,0.000000000E0,4.581354442E-4,1.024421996E-3
2.659864865E0,3.054236295E-4,-1.221694518E-3,-7.635590737E-4,1.472699408E-3
2.662309240E0,1.527118147E-3,0.000000000E0,4.581354442E-4,1.594358153E-3
2.664754396E0,3.054236295E-4,0.000000000E0,4.581354442E-4,5.506102784E-4
2.667198667E0,1.527118147E-3,-1.221694518E-3,4.581354442E-4,2.008610320E-3
2.669642156E0,1.527118147E-3,-1.221694518E-3,1.679830020E-3,2.578072192E-3
2.672086584E0,1.527118147E-3,0.000000000E0,4.581354442E-4,1.594358153E-3
2.674531688E0,3.054236295E-4,0.000000000E0,-7.635590737E-4,8.223782903E-4
2.676975959E0,3.054236295E-4,-1.221694518E-3,1.679830020E-3,2.099440398E-3
2.679419500E0,-9.162708884E-4,1.221694518E-3,-7.635590737E-4,1.707369994E-3
2.681863875E0,1.527118147E-3,-1.221694518E-3,4.581354442E-4,2.008610320E-3
2.684308979E0,-9.162708884E-4,-1.221694518E-3,-7.635590737E-4,1.707369994E-3
2.686753250E0,3.054236295E-4,-1.221694518E-3,-7.635590737E-4,1.472699408E-3
2.689196792E0,3.054236295E-4,0.000000000E0,-7.635590737E-4,8.223782903E-4
2.691641167E0,3.054236295E-4,0.000000000E0,4.581354442E-4,5.506102784E-4
2.694086323E0,3.054236295E-4,-2.443389036E-3,1.679830020E-3,2.980815739E-3
2.696530594E0,1.527118147E-3,-1.221694518E-3,-1.985253533E-3,2.786729072E-3
2.698974084E0,-9.162708884E-4,0.000000000E0,4.581354442E-4,1.024421996E-3
2.701418459E0,3.054236295E-4,0.000000000E0,1.679830020E-3,1.707370051E-3
2.703863615E0,3.054236295E-4,0.000000000E0,-7.635590737E-4,8.223782903E-4
2.706307886E0,3.054236295E-4,0.000000000E0,4.581354442E-4,5.506102784E-4
2.708751427E0,-9.162708884E-4,0.000000000E0,-1.985253533E-3,2.186500385E-3
2.711195802E0,-9.162708884E-4,0.000000000E0,-1.985253533E-3,2.186500385E-3
2.713640906E0,-9.162708884E-4,0.000000000E0,1.679830020E-3,1.913473605E-3
2.716085177E0,1.527118147E-3,-1.221694518E-3,4.581354442E-4,2.008610320E-3
2.718528719E0,1.527118147E-3,-1.221694518E-3,-7.635590737E-4,2.099440352E-3
2.720973094E0,3.054236295E-4,-2.443389036E-3,-7.635590737E-4,2.578072154E-3
2.723418250E0,1.527118147E-3,-2.443389036E-3,4.581354442E-4,2.917555124E-3
2.725862521E0,3.054236295E-4,-1.221694518E-3,-7.635590737E-4,1.472699408E-3
2.728306011E0,3.054236295E-4,0.000000000E0,-1.985253533E-3,2.008610262E-3
2.730750438E0,3.054236295E-4,-1.221694518E-3,-7.635590737E-4,1.472699408E-3
2.733195542E0,3.054236295E-4,-1.221694518E-3,-7.635590737E-4,1.472699408E-3
2.735639813E0,1.527118147E-3,-2.443389036E-3,-7.635590737E-4,2.980815706E-3
2.738083354E0,3.054236295E-4,-1.221694518E-3,-1.985253533E-3,2.350968456E-3
2.740527729E0,-9.162708884E-4,1.221694518E-3,-7.635590737E-4,1.707369994E-3
2.742972834E0,3.054236295E-4,0.000000000E0,4.581354442E-4,5.506102784E-4
2.745417104E0,3.054236295E-4,-1.221694518E-3,1.679830020E-3,2.099440398E-3
2.747860646E0,-9.162708884E-4,0.000000000E0,-7.635590737E-4,1.192717402E-3
2.750305021E0,3.054236295E-4,-2.443389036E-3,-7.635590737E-4,2.578072154E-3
2.752750125E0,3.054236295E-4,-1.221694518E-3,4.581354442E-4,1.340040736E-3
2.755194500E0,1.527118147E-3,0.000000000E0,4.581354442E-4,1.594358153E-3
2.757637938E0,3.054236295E-4,-1.221694518E-3,-7.635590737E-4,1.472699408E-3
2.760082365E0,3.054236295E-4,-1.221694518E-3,4.581354442E-4,1.340040736E-3
2.762527469E0,1.527118147E-3,-1.221694518E-3,-7.635590737E-4,2.099440352E-3
2.764971740E0,1.527118147E-3,0.000000000E0,1.679830020E-3,2.270224379E-3
2.767415281E0,3.054236295E-4,0.000000000E0,-7.635590737E-4,8.223782903E-4
2.769859656E0,3.054236295E-4,1.221694518E-3,-1.985253533E-3,2.350968456E-3
2.772304761E0,3.054236295E-4,0.000000000E0,4.581354442E-4,5.506102784E-4
2.774749031E0,3.054236295E-4,-1.221694518E-3,-7.635590737E-4,1.472699408E-3
2.777192573E0,3.054236295E-4,0.000000000E0,-1.985253533E-3,2.008610262E-3
2.779636948E0,1.527118147E-3,0.000000000E0,4.581354442E-4,1.594358153E-3
2.782082104E0,-9.162708884E-4,0.000000000E0,-7.635590737E-4,1.192717402E-3
2.784526375E0,1.527118147E-3,-1.221694518E-3,4.581354442E-4,2.008610320E-3
2.786969865E0,1.527118147E-3,-1.221694518E-3,4.581354442E-4,2.008610320E-3
2.789414292E0,1.527118147E-3,-2.443389036E-3,4.581354442E-4,2.917555124E-3
2.791859396E0,1.527118147E-3,-1.221694518E-3,-7.635590737E-4,2.099440352E-3
2.794303667E0,1.527118147E-3,-3.665083554E-3,-7.635590737E-4,4.043259793E-3
2.796747209E0,3.054236295E-4,-1.221694518E-3,4.581354442E-4,1.340040736E-3
2.799191584E0,3.054236295E-4,-1.221694518E-3,-7.635590737E-4,1.472699408E-3
2.801636688E0,3.054236295E-4,-1.221694518E-3,-1.985253533E-3,2.350968456E-3
2.804080959E0,-9.162708884E-4,-1.221694518E-3,-7.635590737E-4,1.707369994E-3
2.806524500E0,3.054236295E-4,-2.443389036E-3,4.581354442E-4,2.504659989E-3
2.808968875E0,3.054236295E-4,0.000000000E0,1.679830020E-3,1.707370051E-3
2.811414031E0,-9.162708884E-4,0.000000000E0,-7.635590737E-4,1.192717402E-3
2.813858302E0,-9.162708884E-4,0.000000000E0,4.581354442E-4,1.024421996E-3
2.816301792E0,-9.162708884E-4,0.000000000E0,-7.635590737E-4,1.192717402E-3
2.818746219E0,3.054236295E-4,0.000000000E0,-7.635590737E-4,8.223782903E-4
2.821191323E0,1.527118147E-3,1.221694518E-3,-7.635590737E-4,2.099440352E-3
2.823635594E0,1.527118147E-3,1.221694518E-3,1.679830020E-3,2.578072192E-3
2.826079136E0,3.054236295E-4,0.000000000E0,1.679830020E-3,1.707370051E-3
2.828523511E0,1.527118147E-3,-1.221694518E-3,-7.635590737E-4,2.099440352E-3
2.830968615E0,-9.162708884E-4,-1.221694518E-3,-7.635590737E-4,1.707369994E-3
2.833412886E0,-9.162708884E-4,0.000000000E0,-7.635590737E-4,1.192717402E-3
2.835856427E0,1.527118147E-3,-2.443389036E-3,4.581354442E-4,2.917555124E-3
2.838300802E0,1.527118147E-3,0.000000000E0,1.679830020E-3,2.270224379E-3
2.840745906E0,1.527118147E-3,-1.221694518E-3,2.901524538E-3,3.499067301E-3
2.843190281E0,3.054236295E-4,-1.221694518E-3,1.679830020E-3,2.099440398E-3
2.845633719E0,1.527118147E-3,0.000000000E0,-7.635590737E-4,1.707369994E-3
2.848078146E0,3.054236295E-4,0.000000000E0,-7.635590737E-4,8.223782903E-4
2.850523250E0,3.054236295E-4,0.000000000E0,-7.635590737E-4,8.223782903E-4
2.852967521E0,-9.162708884E-4,0.000000000E0,1.679830020E-3,1.913473605E-3
2.855411063E0,3.054236295E-4,-1.221694518E-3,-7.635590737E-4,1.472699408E-3
2.857855438E0,-9.162708884E-4,0.000000000E0,4.581354442E-4,1.024421996E-3
2.860300542E0,3.054236295E-4,0.000000000E0,-7.635590737E-4,8.223782903E-4
2.862744813E0,1.527118147E-3,-1.221694518E-3,4.581354442E-4,2.008610320E-3
2.865188354E0,3.054236295E-4,1.221694518E-3,4.581354442E-4,1.340040736E-3
2.867632729E0,1.527118147E-3,-2.443389036E-3,-7.635590737E-4,2.980815706E-3
2.870077886E0,1.527118147E-3,0.000000000E0,4.581354442E-4,1.594358153E-3
2.872522156E0,1.527118147E-3,0.000000000E0,-7.635590737E-4,1.707369994E-3
2.874965646E0,3.054236295E-4,-2.443389036E-3,-7.635590737E-4,2.578072154E-3
2.877410021E0,1.527118147E-3,-1.221694518E-3,-7.635590737E-4,2.099440352E-3
2.879855177E0,-9.162708884E-4,-1.221694518E-3,-1.985253533E-3,2.504659943E-3
2.882299448E0,3.054236295E-4,-1.221694518E-3,-7.635590737E-4,1.472699408E-3
2.884742990E0,3.054236295E-4,-2.443389036E-3,-7.635590737E-4,2.578072154E-3
2.887187365E0,3.054236295E-4,-2.443389036E-3,-1.985253533E-3,3.163015202E-3
2.889632469E0,-9.162708884E-4,0.000000000E0,-7.635590737E-4,1.192717402E-3
2.892076740E0,3.054236295E-4,-1.221694518E-3,-7.635590737E-4,1.472699408E-3
2.894520281E0,3.054236295E-4,-1.221694518E-3,-7.635590737E-4,1.472699408E-3
2.896964656E0,1.527118147E-3,0.000000000E0,4.581354442E-4,1.594358153E-3
2.899409761E0,1.527118147E-3,-1.221694518E-3,4.581354442E-4,2.008610320E-3
2.901854136E0,3.054236295E-4,-1.221694518E-3,4.581354442E-4,1.340040736E-3
2.904297573E0,3.054236295E-4,-1.221694518E-3,4.581354442E-4,1.340040736E-3
2.906742000E0,3.054236295E-4,-1.221694518E-3,-7.635590737E-4,1.472699408E-3
2.909187104E0,3.054236295E-4,-2.443389036E-3,-3.206948051E-3,4.043259746E-3
2.911631375E0,3.054236295E-4,0.000000000E0,-7.635590737E-4,8.223782903E-4
2.914074917E0,3.054236295E-4,0.000000000E0,4.581354442E-4,5.506102784E-4
2.916519292E0,3.054236295E-4,0.000000000E0,4.581354442E-4,5.506102784E-4
2.918964396E0,-9.162708884E-4,0.000000000E0,-7.635590737E-4,1.192717402E-3
2.921408667E0,3.054236295E-4,-1.221694518E-3,4.581354442E-4,1.340040736E-3
2.923852209E0,3.054236295E-4,-2.443389036E-3,-7.635590737E-4,2.578072154E-3
2.926296584E0,3.054236295E-4,-1.221694518E-3,4.581354442E-4,1.340040736E-3
2.928741740E0,3.054236295E-4,0.000000000E0,-7.635590737E-4,8.223782903E-4
2.931186011E0,1.527118147E-3,-1.221694518E-3,4.581354442E-4,2.008610320E-3
2.933629500E0,3.054236295E-4,0.000000000E0,1.679830020E-3,1.707370051E-3
2.936073927E0,3.054236295E-4,0.000000000E0,1.679830020E-3,1.707370051E-3
2.938519031E0,1.527118147E-3,0.000000000E0,4.581354442E-4,1.594358153E-3
2.940963302E0,-9.162708884E-4,0.000000000E0,-7.635590737E-4,1.192717402E-3
2.943406844E0,1.527118147E-3,-2.443389036E-3,-7.635590737E-4,2.980815706E-3
2.945851219E0,3.054236295E-4,1.221694518E-3,4.581354442E-4,1.340040736E-3
2.948296323E0,-9.162708884E-4,1.221694518E-3,-7.635590737E-4,1.707369994E-3
2.950740594E0,1.527118147E-3,-1.221694518E-3,-1.985253533E-3,2.786729072E-3
2.953184136E0,1.527118147E-3,0.000000000E0,-7.635590737E-4,1.707369994E-3
2.955628511E0,3.054236295E-4,1.221694518E-3,1.679830020E-3,2.099440398E-3
2.958073615E0,1.527118147E-3,0.000000000E0,4.581354442E-4,1.594358153E-3
2.960517990E0,1.527118147E-3,-1.221694518E-3,-7.635590737E-4,2.099440352E-3
2.962961427E0,3.054236295E-4,-1.221694518E-3,-7.635590737E-4,1.472699408E-3
2.965405802E0,-9.162708884E-4,0.000000000E0,-7.635590737E-4,1.192717402E-3
2.967850959E0,-9.162708884E-4,-1.221694518E-3,4.581354442E-4,1.594358153E-3
2.970295229E0,3.054236295E-4,-1.221694518E-3,4.581354442E-4,1.340040736E-3
2.972738771E0,3.054236295E-4,-1.221694518E-3,-7.635590737E-4,1.472699408E-3
2.975183146E0,2.748812549E-3,-1.221694518E-3,1.679830020E-3,3.445335516E-3
2.977628250E0,3.054236295E-4,-1.221694518E-3,1.679830020E-3,2.099440398E-3
2.980072521E0,3.054236295E-4,0.000000000E0,-7.635590737E-4,8.223782903E-4
2.982516063E0,3.054236295E-4,-1.221694518E-3,-7.635590737E-4,1.472699408E-3
2.984960438E0,3.054236295E-4,0.000000000E0,-7.635590737E-4,8.223782903E-4
2.987405594E0,1.527118147E-3,0.000000000E0,4.581354442E-4,1.594358153E-3
2.989849865E0,3.054236295E-4,-1.221694518E-3,1.679830020E-3,2.099440398E-3
2.992293354E0,3.054236295E-4,-1.221694518E-3,4.581354442E-4,1.340040736E-3
2.994737729E0,3.054236295E-4,1.221694518E-3,1.679830020E-3,2.099440398E-3
2.997182886E0,1.527118147E-3,1.221694518E-3,4.581354442E-4,2.008610320E-3
2.999627156E0,1.527118147E-3,1.221694518E-3,-7.635590737E-4,2.099440352E-3
3.002070698E0,1.527118147E-3,-1.221694518E-3,4.581354442E-4,2.008610320E-3
3.004515073E0,1.527118147E-3,0.000000000E0,4.581354442E-4,1.594358153E-3
3.006960177E0,3.054236295E-4,0.000000000E0,4.581354442E-4,5.506102784E-4
3.009404448E0,1.527118147E-3,-1.221694518E-3,1.679830020E-3,2.578072192E-3
3.011847990E0,3.054236295E-4,0.000000000E0,-1.985253533E-3,2.008610262E-3
3.014292365E0,3.054236295E-4,1.221694518E-3,4.581354442E-4,1.340040736E-3
3.016737469E0,3.054236295E-4,-1.221694518E-3,4.581354442E-4,1.340040736E-3
3.019181844E0,3.054236295E-4,0.000000000E0,-7.635590737E-4,8.223782903E-4
3.021625281E0,3.054236295E-4,0.000000000E0,-7.635590737E-4,8.223782903E-4
3.024069709E0,-9.162708884E-4,0.000000000E0,4.581354442E-4,1.024421996E-3
3.026514813E0,3.054236295E-4,0.000000000E0,-1.985253533E-3,2.008610262E-3
3.028959084E0,3.054236295E-4,-1.221694518E-3,4.581354442E-4,1.340040736E-3
3.031402625E0,3.054236295E-4,0.000000000E0,-7.635590737E-4,8.223782903E-4
3.033847000E0,3.054236295E-4,-1.221694518E-3,-7.635590737E-4,1.472699408E-3
3.036292104E0,3.054236295E-4,-1.221694518E-3,-7.635590737E-4,1.472699408E-3
3.038736375E0,1.527118147E-3,0.000000000E0,-7.635590737E-4,1.707369994E-3
3.041179917E0,3.054236295E-4,-2.443389036E-3,-1.985253533E-3,3.163015202E-3
3.043624292E0,1.527118147E-3,-1.221694518E-3,4.581354442E-4,2.008610320E-3
3.046069448E0,1.527118147E-3,0.000000000E0,-7.635590737E-4,1.707369994E-3
3.048513719E0,3.054236295E-4,-1.221694518E-3,-7.635590737E-4,1.472699408E-3
3.050957209E0,-9.162708884E-4,0.000000000E0,-1.985253533E-3,2.186500385E-3
3.053401584E0,-9.162708884E-4,0.000000000E0,-7.635590737E-4,1.192717402E-3
3.055846740E0,3.054236295E-4,0.000000000E0,-7.635590737E-4,8.223782903E-4
3.058291011E0,1.527118147E-3,-1.221694518E-3,4.581354442E-4,2.008610320E-3
3.060734552E0,1.527118147E-3,0.000000000E0,4.581354442E-4,1.594358153E-3
3.063178927E0,3.054236295E-4,1.221694518E-3,-7.635590737E-4,1.472699408E-3
3.065624031E0,-9.162708884E-4,0.000000000E0,-7.635590737E-4,1.192717402E-3
3.068068302E0,-9.162708884E-4,0.000000000E0,4.581354442E-4,1.024421996E-3
3.070511844E0,-2.137965523E-3,-1.221694518E-3,1.679830020E-3,2.980815823E-3
3.072956219E0,-2.137965523E-3,-1.221694518E-3,-1.985253533E-3,3.163015280E-3
3.075401375E0,-9.162708884E-4,0.000000000E0,-7.635590737E-4,1.192717402E-3
3.077845646E0,3.054236295E-4,0.000000000E0,-7.635590737E-4,8.223782903E-4
3.080289136E0,1.527118147E-3,-1.221694518E-3,-7.635590737E-4,2.099440352E-3
3.082733511E0,3.054236295E-4,0.000000000E0,1.679830020E-3,1.707370051E-3
3.085178667E0,3.054236295E-4,-1.221694518E-3,4.581354442E-4,1.340040736E-3
3.087622938E0,1.527118147E-3,-1.221694518E-3,4.581354442E-4,2.008610320E-3
3.090066479E0,1.527118147E-3,0.000000000E0,-7.635590737E-4,1.707369994E-3
3.092510854E0,3.054236295E-4,0.000000000E0,4.581354442E-4,5.506102784E-4
3.094955959E0,3.054236295E-4,1.221694518E-3,-7.635590737E-4,1.472699408E-3
3.097400229E0,3.054236295E-4,1.221694518E-3,4.581354442E-4,1.340040736E-3
3.099843771E0,3.054236295E-4,-1.221694518E-3,-1.985253533E-3,2.350968456E-3
3.102288146E0,3.054236295E-4,-3.665083554E-3,-7.635590737E-4,3.756213986E-3
3.104733250E0,3.054236295E-4,-2.443389036E-3,1.679830020E-3,2.980815739E-3
3.107177521E0,1.527118147E-3,-1.221694518E-3,4.581354442E-4,2.008610320E-3
3.109621063E0,-9.162708884E-4,0.000000000E0,-3.206948051E-3,3.335276322E-3
3.112065490E0,-9.162708884E-4,0.000000000E0,-1.985253533E-3,2.186500385E-3
3.114510594E0,-9.162708884E-4,0.000000000E0,4.581354442E-4,1.024421996E-3
3.116954865E0,-9.162708884E-4,-2.443389036E-3,-7.635590737E-4,2.718956561E-3
3.119398406E0,3.054236295E-4,1.221694518E-3,4.581354442E-4,1.340040736E-3
3.121842781E0,1.527118147E-3,0.000000000E0,-7.635590737E-4,1.707369994E-3
3.124287886E0,-9.162708884E-4,0.000000000E0,-1.985253533E-3,2.186500385E-3
3.126732156E0,3.054236295E-4,-1.221694518E-3,-7.635590737E-4,1.472699408E-3
3.129175698E0,1.527118147E-3,0.000000000E0,4.581354442E-4,1.594358153E-3
3.131620073E0,3.054236295E-4,0.000000000E0,1.679830020E-3,1.707370051E-3
3.134065177E0,1.527118147E-3,0.000000000E0,4.581354442E-4,1.594358153E-3
3.136509552E0,1.527118147E-3,-1.221694518E-3,4.581354442E-4,2.008610320E-3
3.138952990E0,3.054236295E-4,-1.221694518E-3,-7.635590737E-4,1.472699408E-3
3.141397417E0,3.054236295E-4,-1.221694518E-3,-7.635590737E-4,1.472699408E-3
3.143842521E0,3.054236295E-4,0.000000000E0,-7.635590737E-4,8.223782903E-4
3.146286792E0,3.054236295E-4,-1.221694518E-3,-7.635590737E-4,1.472699408E-3
3.148730334E0,3.054236295E-4,-1.221694518E-3,4.581354442E-4,1.340040736E-3
3.151174709E0,3.054236295E-4,-1.221694518E-3,1.679830020E-3,2.099440398E-3
3.153619813E0,2.748812549E-3,1.221694518E-3,-7.635590737E-4,3.103470699E-3
3.156064084E0,1.527118147E-3,0.000000000E0,4.581354442E-4,1.594358153E-3
3.158507625E0,1.527118147E-3,0.000000000E0,-7.635590737E-4,1.707369994E-3
3.160952000E0,3.054236295E-4,-1.221694518E-3,-7.635590737E-4,1.472699408E-3
3.163397104E0,3.054236295E-4,-1.221694518E-3,4.581354442E-4,1.340040736E-3
3.165841479E0,3.054236295E-4,-1.221694518E-3,-3.206948051E-3,3.445335527E-3
3.168284917E0,-9.162708884E-4,0.000000000E0,-1.985253533E-3,2.186500385E-3
3.170729292E0,3.054236295E-4,0.000000000E0,4.581354442E-4,5.506102784E-4
3.173174448E0,-9.162708884E-4,-1.221694518E-3,4.581354442E-4,1.594358153E-3
3.175618719E0,3.054236295E-4,-1.221694518E-3,4.581354442E-4,1.340040736E-3
3.178062261E0,1.527118147E-3,-1.221694518E-3,1.679830020E-3,2.578072192E-3
3.180506636E0,3.054236295E-4,0.000000000E0,1.679830020E-3,1.707370051E-3
3.182951740E0,-9.162708884E-4,0.000000000E0,4.581354442E-4,1.024421996E-3
3.185396011E0,3.054236295E-4,-1.221694518E-3,4.581354442E-4,1.340040736E-3
3.187839552E0,-9.162708884E-4,-1.221694518E-3,4.581354442E-4,1.594358153E-3
3.190283927E0,-9.162708884E-4,-1.221694518E-3,2.901524538E-3,3.278861766E-3
3.192729031E0,1.527118147E-3,0.000000000E0,4.581354442E-4,1.594358153E-3
3.195173406E0,3.054236295E-4,-1.221694518E-3,-1.985253533E-3,2.350968456E-3
3.197616844E0,3.054236295E-4,0.000000000E0,-7.635590737E-4,8.223782903E-4
3.200061219E0,-9.162708884E-4,0.000000000E0,1.679830020E-3,1.913473605E-3
3.202506375E0,3.054236295E-4,-2.443389036E-3,-7.635590737E-4,2.578072154E-3
3.204950646E0,1.527118147E-3,-1.221694518E-3,4.581354442E-4,2.008610320E-3
3.207394188E0,3.054236295E-4,0.000000000E0,-7.635590737E-4,8.223782903E-4
3.209838563E0,3.054236295E-4,0.000000000E0,-7.635590737E-4,8.223782903E-4
3.212283667E0,3.054236295E-4,0.000000000E0,-7.635590737E-4,8.223782903E-4
3.214727938E0,1.527118147E-3,-1.221694518E-3,-7.635590737E-4,2.099440352E-3
3.217171479E0,3.054236295E-4,-1.221694518E-3,-7.635590737E-4,1.472699408E-3
3.219615854E0,3.054236295E-4,-1.221694518E-3,4.581354442E-4,1.340040736E-3
3.222060959E0,1.527118147E-3,-2.443389036E-3,1.679830020E-3,3.335276407E-3
3.224505334E0,2.748812549E-3,-2.443389036E-3,1.679830020E-3,4.043259738E-3
3.226948771E0,3.054236295E-4,0.000000000E0,1.679830020E-3,1.707370051E-3
3.229393146E0,1.527118147E-3,-2.443389036E-3,4.581354442E-4,2.917555124E-3
3.231838302E0,3.054236295E-4,0.000000000E0,1.679830020E-3,1.707370051E-3
3.234282573E0,1.527118147E-3,-1.221694518E-3,-7.635590737E-4,2.099440352E-3
3.236726115E0,3.054236295E-4,0.000000000E0,-7.635590737E-4,8.223782903E-4
3.239170490E0,3.054236295E-4,1.221694518E-3,-7.635590737E-4,1.472699408E-3
3.241615594E0,3.054236295E-4,1.221694518E-3,1.679830020E-3,2.099440398E-3
3.244059865E0,-9.162708884E-4,0.000000000E0,4.581354442E-4,1.024421996E-3
3.246503406E0,-9.162708884E-4,-1.221694518E-3,-1.985253533E-3,2.504659943E-3
3.248947781E0,1.527118147E-3,-1.221694518E-3,-7.635590737E-4,2.099440352E-3
3.251392886E0,3.054236295E-4,-1.221694518E-3,4.581354442E-4,1.340040736E-3
3.253837261E0,1.527118147E-3,-2.443389036E-3,-1.985253533E-3,3.499067220E-3
3.256280698E0,3.054236295E-4,-1.221694518E-3,4.581354442E-4,1.340040736E-3
3.258725073E0,3.054236295E-4,-1.221694518E-3,4.581354442E-4,1.340040736E-3
3.261170229E0,3.054236295E-4,-1.221694518E-3,1.679830020E-3,2.099440398E-3
3.263614500E0,3.054236295E-4,0.000000000E0,-7.635590737E-4,8.223782903E-4
3.266058042E0,3.054236295E-4,-3.665083554E-3,1.679830020E-3,4.043259817E-3
3.268502417E0,-9.162708884E-4,-2.443389036E-3,4.581354442E-4,2.649450963E-3
3.270947521E0,-9.162708884E-4,-2.443389036E-3,-1.985253533E-3,3.278861679E-3
3.273391792E0,-9.162708884E-4,-2.443389036E-3,-3.206948051E-3,4.134515464E-3
3.275835334E0,1.527118147E-3,0.000000000E0,-7.635590737E-4,1.707369994E-3
3.278279709E0,3.054236295E-4,0.000000000E0,2.901524538E-3,2.917555182E-3
3.280724813E0,1.527118147E-3,-2.443389036E-3,1.679830020E-3,3.335276407E-3
3.283169084E0,3.054236295E-4,-2.443389036E-3,-3.206948051E-3,4.043259746E-3
3.285612625E0,3.054236295E-4,0.000000000E0,4.581354442E-4,5.506102784E-4
3.288057000E0,3.054236295E-4,0.000000000E0,4.581354442E-4,5.506102784E-4
3.290502156E0,3.054236295E-4,0.000000000E0,-7.635590737E-4,8.223782903E-4
3.292946427E0,3.054236295E-4,-1.221694518E-3,4.581354442E-4,1.340040736E-3
3.295389969E0,1.527118147E-3,-1.221694518E-3,4.581354442E-4,2.008610320E-3
3.297834344E0,3.054236295E-4,0.000000000E0,-7.635590737E-4,8.223782903E-4
3.300279448E0,1.527118147E-3,-1.221694518E-3,4.581354442E-4,2.008610320E-3
3.302723719E0,1.527118147E-3,-1.221694518E-3,-7.635590737E-4,2.099440352E-3
3.305167261E0,1.527118147E-3,0.000000000E0,1.679830020E-3,2.270224379E-3
3.307611636E0,1.527118147E-3,0.000000000E0,2.901524538E-3,3.278861766E-3
3.310056740E0,1.527118147E-3,-1.221694518E-3,1.679830020E-3,2.578072192E-3
3.312501011E0,3.054236295E-4,0.000000000E0,4.581354442E-4,5.506102784E-4
3.314944552E0,3.054236295E-4,0.000000000E0,-7.635590737E-4,8.223782903E-4
3.317388927E0,3.054236295E-4,0.000000000E0,1.679830020E-3,1.707370051E-3
3.319834084E0,3.054236295E-4,0.000000000E0,4.581354442E-4,5.506102784E-4
3.322278354E0,3.054236295E-4,-1.221694518E-3,-7.635590737E-4,1.472699408E-3
3.324721896E0,1.527118147E-3,-2.443389036E-3,-7.635590737E-4,2.980815706E-3
3.327166271E0,-9.162708884E-4,-1.221694518E-3,4.581354442E-4,1.594358153E-3
3.329611375E0,-9.162708884E-4,0.000000000E0,4.581354442E-4,1.024421996E-3
3.332055646E0,3.054236295E-4,-1.221694518E-3,-7.635590737E-4,1.472699408E-3
3.334499188E0,1.527118147E-3,-2.443389036E-3,4.581354442E-4,2.917555124E-3
3.336943563E0,1.527118147E-3,-1.221694518E-3,1.679830020E-3,2.578072192E-3
3.339388667E0,3.054236295E-4,1.221694518E-3,-7.635590737E-4,1.472699408E-3
3.341832938E0,-2.137965523E-3,1.221694518E-3,4.581354442E-4,2.504660088E-3
3.344276479E0,-9.162708884E-4,0.000000000E0,4.581354442E-4,1.024421996E-3
3.346720854E0,1.527118147E-3,-1.221694518E-3,1.679830020E-3,2.578072192E-3
3.349166011E0,1.527118147E-3,0.000000000E0,4.581354442E-4,1.594358153E-3
3.351610281E0,3.054236295E-4,-1.221694518E-3,-1.985253533E-3,2.350968456E-3
3.354053823E0,3.054236295E-4,-1.221694518E-3,-3.206948051E-3,3.445335527E-3
3.356498198E0,1.527118147E-3,-1.221694518E-3,2.901524538E-3,3.499067301E-3
3.358943302E0,3.054236295E-4,-1.221694518E-3,4.581354442E-4,1.340040736E-3
3.361387573E0,3.054236295E-4,-1.221694518E-3,-1.985253533E-3,2.350968456E-3
3.363831115E0,3.054236295E-4,-2.443389036E-3,1.679830020E-3,2.980815739E-3
3.366275490E0,3.054236295E-4,-1.221694518E-3,4.581354442E-4,1.340040736E-3
3.368720594E0,-9.162708884E-4,0.000000000E0,-7.635590737E-4,1.192717402E-3
3.371164865E0,3.054236295E-4,-1.221694518E-3,4.581354442E-4,1.340040736E-3
3.373608406E0,3.054236295E-4,-1.221694518E-3,-7.635590737E-4,1.472699408E-3
3.376052781E0,3.054236295E-4,0.000000000E0,-7.635590737E-4,8.223782903E-4
3.378497938E0,1.527118147E-3,-2.443389036E-3,-7.635590737E-4,2.980815706E-3
3.380942209E0,1.527118147E-3,-2.443389036E-3,-1.985253533E-3,3.499067220E-3
3.383385750E0,1.527118147E-3,-1.221694518E-3,4.581354442E-4,2.008610320E-3
3.385830125E0,-9.162708884E-4,1.221694518E-3,4.581354442E-4,1.594358153E-3
3.388275229E0,-9.162708884E-4,0.000000000E0,4.581354442E-4,1.024421996E-3
3.390719500E0,-9.162708884E-4,-1.221694518E-3,-1.985253533E-3,2.504659943E-3
3.393163042E0,3.054236295E-4,-1.221694518E-3,4.581354442E-4,1.340040736E-3
3.395607417E0,3.054236295E-4,-2.443389036E-3,1.679830020E-3,2.980815739E-3
3.398052521E0,3.054236295E-4,0.000000000E0,4.581354442E-4,5.506102784E-4
3.400496896E0,3.054236295E-4,0.000000000E0,-1.985253533E-3,2.008610262E-3
3.402940334E0,1.527118147E-3,0.000000000E0,-1.985253533E-3,2.504659943E-3
3.405384709E0,3.054236295E-4,1.221694518E-3,-1.985253533E-3,2.350968456E-3
3.407829865E0,3.054236295E-4,0.000000000E0,-1.985253533E-3,2.008610262E-3
3.410274136E0,3.054236295E-4,-1.221694518E-3,-1.985253533E-3,2.350968456E-3
3.412717677E0,2.748812549E-3,0.000000000E0,-7.635590737E-4,2.852892022E-3
3.415162052E0,-9.162708884E-4,0.000000000E0,1.679830020E-3,1.913473605E-3
3.417607156E0,3.054236295E-4,0.000000000E0,4.581354442E-4,5.506102784E-4
3.420051427E0,3.054236295E-4,-1.221694518E-3,4.581354442E-4,1.340040736E-3
3.422494969E0,3.054236295E-4,0.000000000E0,-7.635590737E-4,8.223782903E-4
3.424939344E0,3.054236295E-4,-1.221694518E-3,4.581354442E-4,1.340040736E-3
3.427384448E0,3.054236295E-4,-1.221694518E-3,4.581354442E-4,1.340040736E-3
3.429828823E0,1.527118147E-3,-1.221694518E-3,4.581354442E-4,2.008610320E-3
3.432272261E0,3.054236295E-4,0.000000000E0,4.581354442E-4,5.506102784E-4
3.434716688E0,-9.162708884E-4,0.000000000E0,4.581354442E-4,1.024421996E-3
3.437161792E0,3.054236295E-4,0.000000000E0,4.581354442E-4,5.506102784E-4
3.439606063E0,3.054236295E-4,-1.221694518E-3,-1.985253533E-3,2.350968456E-3
3.442049604E0,-9.162708884E-4,0.000000000E0,4.581354442E-4,1.024421996E-3
3.444493979E0,-9.162708884E-4,1.221694518E-3,4.581354442E-4,1.594358153E-3
3.446939084E0,3.054236295E-4,0.000000000E0,-7.635590737E-4,8.223782903E-4
3.449383354E0,3.054236295E-4,-1.221694518E-3,-7.635590737E-4,1.472699408E-3
3.451826896E0,3.054236295E-4,-1.221694518E-3,-1.985253533E-3,2.350968456E-3
3.454271271E0,3.054236295E-4,0.000000000E0,4.581354442E-4,5.506102784E-4
3.456716375E0,3.054236295E-4,0.000000000E0,4.581354442E-4,5.506102784E-4
3.459160646E0,-9.162708884E-4,-2.443389036E-3,-3.206948051E-3,4.134515464E-3
3.461604188E0,1.527118147E-3,-1.221694518E-3,4.581354442E-4,2.008610320E-3
3.464048563E0,3.054236295E-4,0.000000000E0,1.679830020E-3,1.707370051E-3
3.466493719E0,3.054236295E-4,0.000000000E0,4.581354442E-4,5.506102784E-4
3.468937990E0,3.054236295E-4,0.000000000E0,-7.635590737E-4,8.223782903E-4
3.471381531E0,3.054236295E-4,-1.221694518E-3,-7.635590737E-4,1.472699408E-3
3.473825906E0,3.054236295E-4,1.221694518E-3,-7.635590737E-4,1.472699408E-3
3.476271011E0,3.054236295E-4,0.000000000E0,-1.985253533E-3,2.008610262E-3
3.478715281E0,3.054236295E-4,0.000000000E0,-7.635590737E-4,8.223782903E-4
3.481158823E0,1.527118147E-3,0.000000000E0,-7.635590737E-4,1.707369994E-3
3.483603198E0,3.054236295E-4,0.000000000E0,4.581354442E-4,5.506102784E-4
3.486048302E0,-9.162708884E-4,0.000000000E0,4.581354442E-4,1.024421996E-3
3.488492677E0,3.054236295E-4,0.000000000E0,4.581354442E-4,5.506102784E-4
3.490936115E0,1.527118147E-3,-2.443389036E-3,4.581354442E-4,2.917555124E-3
3.493380490E0,-9.162708884E-4,0.000000000E0,-7.635590737E-4,1.192717402E-3
3.495825646E0,3.054236295E-4,-1.221694518E-3,1.679830020E-3,2.099440398E-3
3.498269917E0,3.054236295E-4,-1.221694518E-3,4.581354442E-4,1.340040736E-3
3.500713459E0,3.054236295E-4,0.000000000E0,4.581354442E-4,5.506102784E-4
3.503157834E0,3.054236295E-4,1.221694518E-3,4.581354442E-4,1.340040736E-3
3.505602938E0,3.054236295E-4,1.221694518E-3,-7.635590737E-4,1.472699408E-3
3.508047209E0,3.054236295E-4,0.000000000E0,-7.635590737E-4,8.223782903E-4
3.510490750E0,1.527118147E-3,-1.221694518E-3,1.679830020E-3,2.578072192E-3
3.512935125E0,-9.162708884E-4,0.000000000E0,-7.635590737E-4,1.192717402E-3
3.515380229E0,3.054236295E-4,0.000000000E0,-3.206948051E-3,3.221459203E-3
3.517824604E0,-9.162708884E-4,0.000000000E0,-7.635590737E-4,1.192717402E-3
3.520268042E0,-9.162708884E-4,-1.221694518E-3,-7.635590737E-4,1.707369994E-3
3.522712417E0,3.054236295E-4,-1.221694518E-3,4.581354442E-4,1.340040736E-3
3.525157573E0,1.527118147E-3,-1.221694518E-3,1.679830020E-3,2.578072192E-3
3.527601844E0,1.527118147E-3,0.000000000E0,4.581354442E-4,1.594358153E-3
3.530045386E0,1.527118147E-3,-1.221694518E-3,-7.635590737E-4,2.099440352E-3
3.532489761E0,-9.162708884E-4,0.000000000E0,4.581354442E-4,1.024421996E-3
3.534934865E0,1.527118147E-3,0.000000000E0,1.679830020E-3,2.270224379E-3
3.537379136E0,3.054236295E-4,-1.221694518E-3,-3.206948051E-3,3.445335527E-3
3.539822677E0,3.054236295E-4,-1.221694518E-3,4.581354442E-4,1.340040736E-3
3.542267052E0,1.527118147E-3,0.000000000E0,-7.635590737E-4,1.707369994E-3
3.544712209E0,3.054236295E-4,1.221694518E-3,4.581354442E-4,1.340040736E-3
3.547156479E0,3.054236295E-4,0.000000000E0,1.679830020E-3,1.707370051E-3
3.549599969E0,-9.162708884E-4,1.221694518E-3,4.581354442E-4,1.594358153E-3
3.552044396E0,3.054236295E-4,0.000000000E0,4.581354442E-4,5.506102784E-4
3.554489500E0,3.054236295E-4,-1.221694518E-3,1.679830020E-3,2.099440398E-3
3.556933771E0,-9.162708884E-4,0.000000000E0,-1.985253533E-3,2.186500385E-3
3.559377313E0,3.054236295E-4,0.000000000E0,1.679830020E-3,1.707370051E-3
3.561821688E0,3.054236295E-4,0.000000000E0,-1.985253533E-3,2.008610262E-3
3.564266792E0,1.527118147E-3,0.000000000E0,4.581354442E-4,1.594358153E-3
3.566711063E0,-9.162708884E-4,1.221694518E-3,4.581354442E-4,1.594358153E-3
3.569154604E0,3.054236295E-4,-1.221694518E-3,-1.985253533E-3,2.350968456E-3
3.571598979E0,1.527118147E-3,-1.221694518E-3,-7.635590737E-4,2.099440352E-3
3.574044136E0,1.527118147E-3,-2.443389036E-3,4.581354442E-4,2.917555124E-3
3.576488406E0,3.054236295E-4,-1.221694518E-3,4.581354442E-4,1.340040736E-3
3.578931896E0,3.054236295E-4,0.000000000E0,1.679830020E-3,1.707370051E-3
3.581376323E0,-2.137965523E-3,0.000000000E0,4.581354442E-4,2.186500551E-3
3.583821427E0,3.054236295E-4,0.000000000E0,4.581354442E-4,5.506102784E-4
3.586265698E0,3.054236295E-4,-1.221694518E-3,4.581354442E-4,1.340040736E-3
3.588709240E0,-9.162708884E-4,-1.221694518E-3,4.581354442E-4,1.594358153E-3
3.591153615E0,3.054236295E-4,0.000000000E0,-7.635590737E-4,8.223782903E-4
3.593598719E0,-9.162708884E-4,0.000000000E0,-7.635590737E-4,1.192717402E-3
3.596042990E0,-9.162708884E-4,-1.221694518E-3,4.581354442E-4,1.594358153E-3
3.598486531E0,3.054236295E-4,0.000000000E0,1.679830020E-3,1.707370051E-3
3.600930906E0,3.054236295E-4,-1.221694518E-3,4.581354442E-4,1.340040736E-3
3.603376011E0,1.527118147E-3,-1.221694518E-3,1.679830020E-3,2.578072192E-3
3.605820386E0,1.527118147E-3,0.000000000E0,-7.635590737E-4,1.707369994E-3
3.608263823E0,3.054236295E-4,0.000000000E0,1.679830020E-3,1.707370051E-3
3.610708198E0,1.527118147E-3,-1.221694518E-3,4.581354442E-4,2.008610320E-3
3.613153354E0,1.527118147E-3,1.221694518E-3,1.679830020E-3,2.578072192E-3
3.615597625E0,3.054236295E-4,0.000000000E0,4.581354442E-4,5.506102784E-4
3.618041167E0,3.054236295E-4,0.000000000E0,-7.635590737E-4,8.223782903E-4
3.620485542E0,-9.162708884E-4,0.000000000E0,-7.635590737E-4,1.192717402E-3
3.622930646E0,-9.162708884E-4,0.000000000E0,1.679830020E-3,1.913473605E-3
3.625374917E0,-2.137965523E-3,0.000000000E0,-7.635590737E-4,2.270224446E-3
3.627818459E0,-9.162708884E-4,1.221694518E-3,-7.635590737E-4,1.707369994E-3
3.630262834E0,-9.162708884E-4,0.000000000E0,4.581354442E-4,1.024421996E-3
3.632707938E0,1.527118147E-3,-1.221694518E-3,-7.635590737E-4,2.099440352E-3
3.635152313E0,3.054236295E-4,0.000000000E0,4.581354442E-4,5.506102784E-4
3.637595750E0,3.054236295E-4,-1.221694518E-3,-7.635590737E-4,1.472699408E-3
3.640040125E0,3.054236295E-4,0.000000000E0,4.581354442E-4,5.506102784E-4
3.642485281E0,2.748812549E-3,-2.443389036E-3,-7.635590737E-4,3.756213901E-3
3.644929552E0,3.054236295E-4,-1.221694518E-3,4.581354442E-4,1.340040736E-3
3.647373094E0,3.054236295E-4,0.000000000E0,4.581354442E-4,5.506102784E-4
3.649817469E0,3.054236295E-4,-1.221694518E-3,4.581354442E-4,1.340040736E-3
3.652262573E0,3.054236295E-4,0.000000000E0,-7.635590737E-4,8.223782903E-4
3.654706844E0,3.054236295E-4,-1.221694518E-3,-7.635590737E-4,1.472699408E-3
3.657150386E0,1.527118147E-3,-1.221694518E-3,4.581354442E-4,2.008610320E-3
3.659594761E0,3.054236295E-4,-1.221694518E-3,4.581354442E-4,1.340040736E-3
3.662039917E0,3.054236295E-4,0.000000000E0,4.581354442E-4,5.506102784E-4
3.664484188E0,3.054236295E-4,0.000000000E0,-7.635590737E-4,8.223782903E-4
3.666927677E0,1.527118147E-3,-1.221694518E-3,-7.635590737E-4,2.099440352E-3
3.669372104E0,3.054236295E-4,-1.221694518E-3,-7.635590737E-4,1.472699408E-3
3.671817209E0,3.054236295E-4,0.000000000E0,4.581354442E-4,5.506102784E-4
3.674261479E0,3.054236295E-4,-1.221694518E-3,1.679830020E-3,2.099440398E-3
3.676705021E0,1.527118147E-3,-1.221694518E-3,-7.635590737E-4,2.099440352E-3
3.679149396E0,1.527118147E-3,0.000000000E0,4.581354442E-4,1.594358153E-3
3.681594500E0,1.527118147E-3,-1.221694518E-3,-7.635590737E-4,2.099440352E-3
3.684038771E0,1.527118147E-3,-1.221694518E-3,4.581354442E-4,2.008610320E-3
3.686482313E0,2.748812549E-3,-1.221694518E-3,4.581354442E-4,3.042761247E-3
3.688926688E0,-9.162708884E-4,-1.221694518E-3,-7.635590737E-4,1.707369994E-3
3.691371844E0,-9.162708884E-4,0.000000000E0,-7.635590737E-4,1.192717402E-3
3.693816115E0,3.054236295E-4,-1.221694518E-3,4.581354442E-4,1.340040736E-3
3.696259604E0,3.054236295E-4,0.000000000E0,4.581354442E-4,5.506102784E-4
3.698704031E0,3.054236295E-4,0.000000000E0,1.679830020E-3,1.707370051E-3
3.701149136E0,1.527118147E-3,-2.443389036E-3,4.581354442E-4,2.917555124E-3
3.703593406E0,1.527118147E-3,-1.221694518E-3,4.581354442E-4,2.008610320E-3
3.706036948E0,1.527118147E-3,0.000000000E0,4.581354442E-4,1.594358153E-3
3.708481323E0,-9.162708884E-4,0.000000000E0,4.581354442E-4,1.024421996E-3
3.710926427E0,1.527118147E-3,0.000000000E0,1.679830020E-3,2.270224379E-3
3.713370698E0,3.054236295E-4,-1.221694518E-3,4.581354442E-4,1.340040736E-3
3.715814240E0,3.054236295E-4,-1.221694518E-3,-7.635590737E-4,1.472699408E-3
3.718258615E0,1.527118147E-3,-1.221694518E-3,-7.635590737E-4,2.099440352E-3
3.720703771E0,3.054236295E-4,0.000000000E0,-7.635590737E-4,8.223782903E-4
3.723148042E0,3.054236295E-4,0.000000000E0,4.581354442E-4,5.506102784E-4
3.725591531E0,-2.137965523E-3,1.221694518E-3,-1.985253533E-3,3.163015280E-3
3.728035959E0,-9.162708884E-4,0.000000000E0,-7.635590737E-4,1.192717402E-3
3.730481063E0,3.054236295E-4,0.000000000E0,1.679830020E-3,1.707370051E-3
3.732925334E0,3.054236295E-4,0.000000000E0,4.581354442E-4,5.506102784E-4
3.735368875E0,3.054236295E-4,0.000000000E0,-1.985253533E-3,2.008610262E-3
3.737813250E0,3.054236295E-4,2.443389036E-3,4.581354442E-4,2.504659989E-3
3.740258354E0,3.054236295E-4,0.000000000E0,4.581354442E-4,5.506102784E-4
3.742702625E0,3.054236295E-4,0.000000000E0,4.581354442E-4,5.506102784E-4
3.745146167E0,3.054236295E-4,-1.221694518E-3,-7.635590737E-4,1.472699408E-3
3.747590542E0,3.054236295E-4,-1.221694518E-3,-7.635590737E-4,1.472699408E-3
3.750035698E0,-9.162708884E-4,0.000000000E0,4.581354442E-4,1.024421996E-3
3.752479969E0,-9.162708884E-4,-1.221694518E-3,4.581354442E-4,1.594358153E-3
3.754923459E0,3.054236295E-4,-1.221694518E-3,-7.635590737E-4,1.472699408E-3
3.757367886E0,3.054236295E-4,1.221694518E-3,4.581354442E-4,1.340040736E-3
3.759812990E0,1.527118147E-3,-2.443389036E-3,1.679830020E-3,3.335276407E-3
3.762257261E0,1.527118147E-3,0.000000000E0,1.679830020E-3,2.270224379E-3
3.764700802E0,3.054236295E-4,-1.221694518E-3,-1.985253533E-3,2.350968456E-3
3.767145177E0,3.054236295E-4,-2.443389036E-3,4.581354442E-4,2.504659989E-3
3.769590281E0,3.054236295E-4,0.000000000E0,-7.635590737E-4,8.223782903E-4
3.772034552E0,3.054236295E-4,1.221694518E-3,4.581354442E-4,1.340040736E-3
3.774478094E0,-9.162708884E-4,1.221694518E-3,-7.635590737E-4,1.707369994E-3
3.776922469E0,1.527118147E-3,0.000000000E0,-1.985253533E-3,2.504659943E-3
3.779367625E0,-9.162708884E-4,1.221694518E-3,-7.635590737E-4,1.707369994E-3
3.781811896E0,3.054236295E-4,0.000000000E0,4.581354442E-4,5.506102784E-4
3.784255438E0,3.054236295E-4,-1.221694518E-3,1.679830020E-3,2.099440398E-3
3.786699813E0,-9.162708884E-4,-1.221694518E-3,-7.635590737E-4,1.707369994E-3
3.789144917E0,-9.162708884E-4,1.221694518E-3,-7.635590737E-4,1.707369994E-3
3.791589188E0,-9.162708884E-4,1.221694518E-3,-7.635590737E-4,1.707369994E-3
3.794032729E0,-9.162708884E-4,0.000000000E0,-7.635590737E-4,1.192717402E-3
3.796477104E0,3.054236295E-4,-1.221694518E-3,-7.635590737E-4,1.472699408E-3
3.798922209E0,-9.162708884E-4,0.000000000E0,4.581354442E-4,1.024421996E-3
3.801366479E0,-9.162708884E-4,0.000000000E0,4.581354442E-4,1.024421996E-3
3.803810021E0,3.054236295E-4,0.000000000E0,-7.635590737E-4,8.223782903E-4
3.806254396E0,3.054236295E-4,-1.221694518E-3,4.581354442E-4,1.340040736E-3
3.808699552E0,1.527118147E-3,0.000000000E0,-7.635590737E-4,1.707369994E-3
3.811143823E0,3.054236295E-4,0.000000000E0,-1.985253533E-3,2.008610262E-3
3.813587365E0,-9.162708884E-4,0.000000000E0,4.581354442E-4,1.024421996E-3
3.816031740E0,3.054236295E-4,-1.221694518E-3,4.581354442E-4,1.340040736E-3
3.818476844E0,1.527118147E-3,0.000000000E0,1.679830020E-3,2.270224379E-3
3.820921115E0,3.054236295E-4,-1.221694518E-3,4.581354442E-4,1.340040736E-3
3.823364656E0,-9.162708884E-4,0.000000000E0,-7.635590737E-4,1.192717402E-3
3.825809031E0,3.054236295E-4,1.221694518E-3,1.679830020E-3,2.099440398E-3
3.828254136E0,3.054236295E-4,0.000000000E0,-7.635590737E-4,8.223782903E-4
3.830698406E0,3.054236295E-4,0.000000000E0,4.581354442E-4,5.506102784E-4
3.833141948E0,-9.162708884E-4,0.000000000E0,-7.635590737E-4,1.192717402E-3
3.835586323E0,-9.162708884E-4,0.000000000E0,-7.635590737E-4,1.192717402E-3
3.838031479E0,3.054236295E-4,0.000000000E0,-7.635590737E-4,8.223782903E-4
3.840475750E0,-9.162708884E-4,-1.221694518E-3,4.581354442E-4,1.594358153E-3
3.842919292E0,3.054236295E-4,1.221694518E-3,-7.635590737E-4,1.472699408E-3
3.845363667E0,3.054236295E-4,-1.221694518E-3,-7.635590737E-4,1.472699408E-3
3.847808771E0,3.054236295E-4,-1.221694518E-3,-1.985253533E-3,2.350968456E-3
3.850253042E0,3.054236295E-4,-1.221694518E-3,-7.635590737E-4,1.472699408E-3
3.852696584E0,3.054236295E-4,-1.221694518E-3,-7.635590737E-4,1.472699408E-3
3.855140959E0,1.527118147E-3,-1.221694518E-3,-7.635590737E-4,2.099440352E-3
3.857586063E0,1.527118147E-3,0.000000000E0,-7.635590737E-4,1.707369994E-3
3.860030334E0,1.527118147E-3,0.000000000E0,4.581354442E-4,1.594358153E-3
3.862473875E0,1.527118147E-3,-1.221694518E-3,1.679830020E-3,2.578072192E-3
3.864918250E0,1.527118147E-3,0.000000000E0,4.581354442E-4,1.594358153E-3
3.867363406E0,1.527118147E-3,-1.221694518E-3,-1.985253533E-3,2.786729072E-3
3.869807677E0,3.054236295E-4,-1.221694518E-3,-7.635590737E-4,1.472699408E-3
3.872251219E0,1.527118147E-3,-1.221694518E-3,4.581354442E-4,2.008610320E-3
3.874695594E0,3.054236295E-4,0.000000000E0,1.679830020E-3,1.707370051E-3
3.877140698E0,1.527118147E-3,-1.221694518E-3,4.581354442E-4,2.008610320E-3
3.879584969E0,3.054236295E-4,0.000000000E0,1.679830020E-3,1.707370051E-3
3.882028511E0,3.054236295E-4,-2.443389036E-3,-7.635590737E-4,2.578072154E-3
3.884472886E0,1.527118147E-3,-1.221694518E-3,-1.985253533E-3,2.786729072E-3
3.886917990E0,3.054236295E-4,1.221694518E-3,-7.635590737E-4,1.472699408E-3
3.889362261E0,3.054236295E-4,0.000000000E0,4.581354442E-4,5.506102784E-4
3.891805802E0,1.527118147E-3,0.000000000E0,-7.635590737E-4,1.707369994E-3
3.894250177E0,3.054236295E-4,0.000000000E0,-7.635590737E-4,8.223782903E-4
3.896695334E0,3.054236295E-4,-2.443389036E-3,-7.635590737E-4,2.578072154E-3
3.899139604E0,3.054236295E-4,0.000000000E0,-7.635590737E-4,8.223782903E-4
3.901583146E0,3.054236295E-4,0.000000000E0,-7.635590737E-4,8.223782903E-4
3.904027521E0,3.054236295E-4,-1.221694518E-3,4.581354442E-4,1.340040736E-3
3.906472625E0,3.054236295E-4,0.000000000E0,4.581354442E-4,5.506102784E-4
3.908916896E0,1.527118147E-3,-1.221694518E-3,-7.635590737E-4,2.099440352E-3
3.911360438E0,3.054236295E-4,0.000000000E0,-7.635590737E-4,8.223782903E-4
3.913804813E0,-9.162708884E-4,0.000000000E0,4.581354442E-4,1.024421996E-3
3.916249917E0,3.054236295E-4,0.000000000E0,-7.635590737E-4,8.223782903E-4
3.918694188E0,1.527118147E-3,0.000000000E0,-7.635590737E-4,1.707369994E-3
3.921137729E0,3.054236295E-4,-1.221694518E-3,-7.635590737E-4,1.472699408E-3
3.923582104E0,1.527118147E-3,0.000000000E0,-7.635590737E-4,1.707369994E-3
3.926027261E0,1.527118147E-3,0.000000000E0,4.581354442E-4,1.594358153E-3
3.928471531E0,3.054236295E-4,-1.221694518E-3,2.901524538E-3,3.163015291E-3
3.930915073E0,1.527118147E-3,1.221694518E-3,1.679830020E-3,2.578072192E-3
3.933359448E0,3.054236295E-4,0.000000000E0,-7.635590737E-4,8.223782903E-4
3.935804552E0,3.054236295E-4,0.000000000E0,-1.985253533E-3,2.008610262E-3
3.938248823E0,3.054236295E-4,0.000000000E0,4.581354442E-4,5.506102784E-4
3.940692365E0,3.054236295E-4,0.000000000E0,4.581354442E-4,5.506102784E-4
3.943136740E0,3.054236295E-4,-1.221694518E-3,-7.635590737E-4,1.472699408E-3
3.945581844E0,-9.162708884E-4,-1.221694518E-3,4.581354442E-4,1.594358153E-3
