"Time (s)","Acceleration x (m/s^2)","Acceleration y (m/s^2)","Acceleration z (m/s^2)"
2.226069600E-2,-4.845465720E-2,-1.959123611E-1,9.882955551E0
2.475418500E-2,-7.776673418E-3,-1.863410622E-1,9.866206169E0
2.724767500E-2,-4.845465720E-2,-2.198405862E-1,9.882955551E0
2.974116500E-2,-2.452643216E-2,-2.102692872E-1,9.892526627E0
3.223470600E-2,-5.324030295E-2,-2.126621157E-1,9.890133858E0
3.472819600E-2,-3.649054468E-2,-2.006980032E-1,9.880562782E0
3.722168500E-2,-3.409772366E-2,-1.983051747E-1,9.894919395E0
3.971522700E-2,-3.409772366E-2,-1.863410622E-1,9.875777245E0
4.220871700E-2,-2.931207791E-2,-2.030908167E-1,9.878170013E0
4.470220600E-2,-2.452643216E-2,-1.887338907E-1,9.911669731E0
4.719569600E-2,-3.888336942E-2,-1.863410622E-1,9.899705887E0
4.968918500E-2,-5.832505226E-2,-1.911267042E-1,9.870991707E0
5.218267500E-2,-3.170489892E-2,-1.887338907E-1,9.873384476E0
5.467616500E-2,-2.691925503E-2,-1.887338907E-1,9.899705887E0
5.716965400E-2,-1.495514158E-2,-1.911267042E-1,9.904491425E0
5.966314400E-2,-1.495514158E-2,-1.863410622E-1,9.870991707E0
6.210772700E-2,-2.931207791E-2,-2.102692872E-1,9.878170013E0
6.450340400E-2,-2.931207791E-2,-2.102692872E-1,9.878170013E0
6.694798700E-2,-3.649054468E-2,-1.911267042E-1,9.875777245E0
6.944142500E-2,-3.649054468E-2,-1.863410622E-1,9.890133858E0
7.193449800E-2,-2.931207791E-2,-2.054836452E-1,9.859027863E0
7.442767500E-2,-7.776673418E-3,-1.959123611E-1,9.885348320E0
7.692111200E-2,-3.409772366E-2,-2.030908167E-1,9.854242325E0
7.941455000E-2,-2.213360928E-2,-1.959123611E-1,9.882955551E0
8.190788300E-2,-1.974078640E-2,-1.911267042E-1,9.866206169E0
8.440121700E-2,-3.649054468E-2,-1.935195327E-1,9.890133858E0
8.689465400E-2,-2.691925503E-2,-1.863410622E-1,9.904491425E0
8.938809200E-2,-3.409772366E-2,-1.959123611E-1,9.904491425E0
9.188147700E-2,-2.452643216E-2,-1.863410622E-1,9.873384476E0
9.437486200E-2,-3.170489892E-2,-1.935195327E-1,9.890133858E0
9.686830000E-2,-2.931207791E-2,-1.911267042E-1,9.880562782E0
9.936173700E-2,-2.452643216E-2,-2.054836452E-1,9.897313118E0
1.018551230E-1,-3.409772366E-2,-1.863410622E-1,9.878170013E0
1.043485080E-1,-3.409772366E-2,-1.983051747E-1,9.916455269E0
1.068419460E-1,-2.452643216E-2,-1.935195327E-1,9.909276962E0
1.093353830E-1,-4.127619043E-2,-2.270190418E-1,9.892526627E0
1.118088730E-1,-2.931207791E-2,-2.078764737E-1,9.880562782E0
1.142534560E-1,-3.888336942E-2,-2.054836452E-1,9.904491425E0
1.166988210E-1,-5.982056609E-4,-1.839482337E-1,9.890133858E0
1.191434040E-1,-2.452643216E-2,-1.887338907E-1,9.882955551E0
1.215871020E-1,-3.409772366E-2,-1.791625917E-1,9.866206169E0
1.240317370E-1,-1.495514158E-2,-1.839482337E-1,9.875777245E0
1.264771020E-1,-3.409772366E-2,-1.959123611E-1,9.880562782E0
1.289216850E-1,-2.691925503E-2,-1.935195327E-1,9.875777245E0
1.313654350E-1,-2.213360928E-2,-1.983051747E-1,9.882955551E0
1.338100710E-1,-2.691925503E-2,-1.983051747E-1,9.875777245E0
1.362554350E-1,-2.213360928E-2,-1.911267042E-1,9.892526627E0
1.387000190E-1,-1.016949583E-2,-2.030908167E-1,9.909276962E0
1.411437170E-1,-4.127619043E-2,-2.006980032E-1,9.906884193E0
1.435883520E-1,-2.452643216E-2,-2.030908167E-1,9.863813400E0
1.460337170E-1,-1.734796353E-2,-1.887338907E-1,9.870991707E0
1.484783000E-1,-2.452643216E-2,-1.815554202E-1,9.873384476E0
1.509220500E-1,-2.213360928E-2,-1.863410622E-1,9.861420631E0
1.533666850E-1,-4.127619043E-2,-1.791625917E-1,9.885348320E0
1.558120500E-1,-2.931207791E-2,-1.935195327E-1,9.906884193E0
1.582566330E-1,-4.127619043E-2,-1.863410622E-1,9.882955551E0
1.607003310E-1,-3.888336942E-2,-1.983051747E-1,9.880562782E0
1.631449670E-1,-3.409772366E-2,-2.030908167E-1,9.894919395E0
1.655903310E-1,-4.606183618E-2,-1.935195327E-1,9.906884193E0
1.680349150E-1,-3.170489892E-2,-1.911267042E-1,9.868598938E0
1.704786650E-1,-4.606183618E-2,-1.983051747E-1,9.894919395E0
1.729233000E-1,-3.409772366E-2,-2.078764737E-1,9.911669731E0
1.753686650E-1,-3.649054468E-2,-1.983051747E-1,9.899705887E0
1.778132480E-1,-2.213360928E-2,-1.767697781E-1,9.887741089E0
1.802569460E-1,-1.256231871E-2,-1.863410622E-1,9.899705887E0
1.827015810E-1,-1.495514158E-2,-2.006980032E-1,9.892526627E0
1.851469460E-1,-3.170489892E-2,-1.959123611E-1,9.899705887E0
1.875915290E-1,-4.127619043E-2,-2.054836452E-1,9.880562782E0
1.900352790E-1,-2.213360928E-2,-1.935195327E-1,9.878170013E0
1.924798620E-1,-2.931207791E-2,-1.791625917E-1,9.880562782E0
1.949252790E-1,-2.213360928E-2,-1.839482337E-1,9.859027863E0
1.973698620E-1,-2.931207791E-2,-1.887338907E-1,9.906884193E0
1.998135600E-1,-3.649054468E-2,-2.006980032E-1,9.870991707E0
2.022581960E-1,-5.084748194E-2,-1.935195327E-1,9.880562782E0
2.047035600E-1,-4.366901144E-2,-1.911267042E-1,9.882955551E0
2.071481440E-1,-2.691925503E-2,-1.959123611E-1,9.911669731E0
2.095918940E-1,-5.563312769E-2,-1.887338907E-1,9.885348320E0
2.120364770E-1,-3.649054468E-2,-1.839482337E-1,9.902098656E0
2.144818420E-1,-3.888336942E-2,-1.959123611E-1,9.926026344E0
2.169264250E-1,-1.256231871E-2,-1.935195327E-1,9.890133858E0
2.193701750E-1,-2.691925503E-2,-1.839482337E-1,9.892526627E0
2.218148100E-1,-2.452643216E-2,-2.126621157E-1,9.892526627E0
2.242601750E-1,-4.606183618E-2,-1.983051747E-1,9.882955551E0
2.267047580E-1,-3.888336942E-2,-1.815554202E-1,9.892526627E0
2.291484560E-1,-1.974078640E-2,-1.959123611E-1,9.906884193E0
2.315930920E-1,-3.649054468E-2,-2.006980032E-1,9.878170013E0
2.340384560E-1,-1.974078640E-2,-2.102692872E-1,9.904491425E0
2.364830400E-1,-3.170489892E-2,-1.983051747E-1,9.882955551E0
2.389267900E-1,-2.213360928E-2,-2.030908167E-1,9.897313118E0
2.413714250E-1,-2.931207791E-2,-1.959123611E-1,9.887741089E0
2.438167900E-1,-3.649054468E-2,-1.863410622E-1,9.887741089E0
2.462613730E-1,-4.127619043E-2,-1.935195327E-1,9.868598938E0
2.487050710E-1,-3.409772366E-2,-1.911267042E-1,9.892526627E0
2.511497060E-1,-2.452643216E-2,-2.006980032E-1,9.878170013E0
2.535950710E-1,-2.452643216E-2,-1.935195327E-1,9.873384476E0
2.560396540E-1,-3.170489892E-2,-1.935195327E-1,9.904491425E0
2.584834040E-1,-4.127619043E-2,-1.959123611E-1,9.887741089E0
2.609280400E-1,-2.213360928E-2,-1.887338907E-1,9.878170013E0
2.633734040E-1,-3.409772366E-2,-1.911267042E-1,9.882955551E0
2.658179870E-1,-2.452643216E-2,-2.006980032E-1,9.887741089E0
2.682616850E-1,-5.324030295E-2,-1.935195327E-1,9.890133858E0
2.707063210E-1,-4.606183618E-2,-1.911267042E-1,9.890133858E0
2.731516850E-1,-2.213360928E-2,-2.054836452E-1,9.890133858E0
2.755962690E-1,-1.734796353E-2,-1.743769497E-1,9.866206169E0
2.780400190E-1,-3.409772366E-2,-1.863410622E-1,9.892526627E0
2.804846540E-1,-2.213360928E-2,-2.006980032E-1,9.887741089E0
2.829300190E-1,-5.324030295E-2,-2.030908167E-1,9.899705887E0
2.853746020E-1,-4.606183618E-2,-1.743769497E-1,9.890133858E0
2.878183000E-1,-2.691925503E-2,-1.983051747E-1,9.890133858E0
2.902629350E-1,-4.366901144E-2,-1.983051747E-1,9.894919395E0
2.927083000E-1,-3.888336942E-2,-1.863410622E-1,9.873384476E0
2.951528830E-1,-2.452643216E-2,-1.839482337E-1,9.880562782E0
2.975966330E-1,-1.974078640E-2,-1.983051747E-1,9.899705887E0
3.000412690E-1,-3.888336942E-2,-1.863410622E-1,9.892526627E0
3.024866330E-1,-3.888336942E-2,-1.815554202E-1,9.875777245E0
3.049312170E-1,-2.691925503E-2,-1.959123611E-1,9.906884193E0
3.073749150E-1,-2.691925503E-2,-1.863410622E-1,9.894919395E0
3.098195500E-1,-2.931207791E-2,-1.959123611E-1,9.878170013E0
3.122649150E-1,-1.974078640E-2,-1.911267042E-1,9.863813400E0
3.147094980E-1,-3.170489892E-2,-2.198405862E-1,9.906884193E0
3.171532480E-1,-3.649054468E-2,-2.078764737E-1,9.894919395E0
3.195978830E-1,-1.734796353E-2,-1.959123611E-1,9.887741089E0
3.220432480E-1,-4.606183618E-2,-2.102692872E-1,9.882955551E0
3.244878310E-1,-2.452643216E-2,-1.911267042E-1,9.899705887E0
3.269315290E-1,-2.931207791E-2,-1.815554202E-1,9.880562782E0
3.293761650E-1,-1.256231871E-2,-1.815554202E-1,9.890133858E0
3.318215290E-1,-3.170489892E-2,-1.815554202E-1,9.885348320E0
3.342661120E-1,-3.888336942E-2,-1.911267042E-1,9.885348320E0
3.367098620E-1,-3.170489892E-2,-2.006980032E-1,9.892526627E0
3.391544980E-1,-2.452643216E-2,-2.030908167E-1,9.897313118E0
3.415998620E-1,-4.845465720E-2,-1.983051747E-1,9.878170013E0
3.440444460E-1,-4.127619043E-2,-2.126621157E-1,9.870991707E0
3.464881440E-1,-3.409772366E-2,-1.911267042E-1,9.894919395E0
3.489327790E-1,-3.649054468E-2,-1.959123611E-1,9.878170013E0
3.513781440E-1,-2.213360928E-2,-2.102692872E-1,9.890133858E0
3.538227270E-1,-3.170489892E-2,-2.006980032E-1,9.880562782E0
3.562664770E-1,-1.974078640E-2,-1.887338907E-1,9.892526627E0
3.587111120E-1,-3.170489892E-2,-1.791625917E-1,9.892526627E0
3.611564770E-1,-5.324030295E-2,-2.078764737E-1,9.894919395E0
3.636010600E-1,-2.691925503E-2,-2.006980032E-1,9.880562782E0
3.660447580E-1,-3.649054468E-2,-2.030908167E-1,9.875777245E0
3.684893940E-1,-2.691925503E-2,-1.815554202E-1,9.873384476E0
3.709347580E-1,-3.649054468E-2,-1.791625917E-1,9.887741089E0
3.733793420E-1,-5.084748194E-2,-1.863410622E-1,9.866206169E0
3.758230920E-1,-3.409772366E-2,-1.695913076E-1,9.870991707E0
3.782676750E-1,-2.691925503E-2,-2.006980032E-1,9.882955551E0
3.807130920E-1,-5.084748194E-2,-2.078764737E-1,9.892526627E0
3.831575710E-1,-4.606183618E-2,-1.935195327E-1,9.878170013E0
3.856013730E-1,-4.366901144E-2,-1.791625917E-1,9.887741089E0
3.880460080E-1,-2.691925503E-2,-1.983051747E-1,9.868598938E0
3.904913730E-1,-3.888336942E-2,-1.911267042E-1,9.902098656E0
3.929359560E-1,-3.888336942E-2,-1.839482337E-1,9.897313118E0
3.953797060E-1,-1.495514158E-2,-1.983051747E-1,9.894919395E0
3.978242900E-1,-3.888336942E-2,-2.054836452E-1,9.899705887E0
4.002697060E-1,-1.974078640E-2,-1.983051747E-1,9.899705887E0
4.027141850E-1,-3.649054468E-2,-2.030908167E-1,9.868598938E0
4.051579870E-1,-4.366901144E-2,-2.006980032E-1,9.892526627E0
4.076026230E-1,-4.127619043E-2,-1.839482337E-1,9.890133858E0
4.100479870E-1,-1.495514158E-2,-1.911267042E-1,9.875777245E0
4.124925710E-1,-4.127619043E-2,-1.839482337E-1,9.882955551E0
4.149362690E-1,-1.974078640E-2,-1.887338907E-1,9.897313118E0
4.173809040E-1,-3.170489892E-2,-1.863410622E-1,9.885348320E0
4.198262690E-1,-5.982056609E-4,-2.006980032E-1,9.892526627E0
4.222708520E-1,-2.452643216E-2,-1.815554202E-1,9.899705887E0
4.247146020E-1,-3.888336942E-2,-2.102692872E-1,9.897313118E0
4.271592370E-1,-3.170489892E-2,-2.078764737E-1,9.892526627E0
4.296046020E-1,-2.452643216E-2,-2.102692872E-1,9.878170013E0
4.320491850E-1,-2.931207791E-2,-2.006980032E-1,9.885348320E0
4.344928830E-1,-3.649054468E-2,-1.935195327E-1,9.894919395E0
4.369375190E-1,-2.452643216E-2,-1.863410622E-1,9.880562782E0
4.393828830E-1,-2.691925503E-2,-2.030908167E-1,9.914062500E0
4.418274670E-1,-4.606183618E-2,-2.126621157E-1,9.892526627E0
4.442712170E-1,-3.170489892E-2,-1.959123611E-1,9.892526627E0
4.467158520E-1,-3.170489892E-2,-1.839482337E-1,9.885348320E0
4.491612170E-1,-3.409772366E-2,-1.815554202E-1,9.897313118E0
4.516058000E-1,-3.649054468E-2,-1.887338907E-1,9.882955551E0
4.540494980E-1,-2.691925503E-2,-1.887338907E-1,9.868598938E0
4.564941330E-1,-3.649054468E-2,-1.863410622E-1,9.885348320E0
4.589394980E-1,-1.974078640E-2,-2.006980032E-1,9.909276962E0
4.613840810E-1,-3.649054468E-2,-2.030908167E-1,9.859027863E0
4.638278310E-1,-4.606183618E-2,-1.983051747E-1,9.880562782E0
4.662724670E-1,-4.127619043E-2,-2.030908167E-1,9.892526627E0
4.687178310E-1,-3.649054468E-2,-1.863410622E-1,9.875777245E0
4.711624150E-1,-2.931207791E-2,-2.006980032E-1,9.880562782E0
4.736061120E-1,-4.127619043E-2,-1.983051747E-1,9.878170013E0
4.760507480E-1,-4.845465720E-2,-1.911267042E-1,9.882955551E0
4.784961120E-1,-5.563312769E-2,-1.887338907E-1,9.878170013E0
4.809406960E-1,-1.974078640E-2,-2.102692872E-1,9.899705887E0
4.833844460E-1,-4.366901144E-2,-2.150549293E-1,9.885348320E0
4.858290810E-1,-3.170489892E-2,-2.030908167E-1,9.906884193E0
4.882744460E-1,-3.170489892E-2,-2.078764737E-1,9.892526627E0
4.907190290E-1,-4.845465720E-2,-2.054836452E-1,9.890133858E0
4.931627270E-1,-5.324030295E-2,-1.815554202E-1,9.894919395E0
4.956073620E-1,-3.649054468E-2,-1.743769497E-1,9.899705887E0
4.980527270E-1,-2.691925503E-2,-1.743769497E-1,9.899705887E0
5.004973100E-1,-3.409772366E-2,-1.935195327E-1,9.885348320E0
5.029410600E-1,-3.649054468E-2,-2.006980032E-1,9.880562782E0
5.053856960E-1,-2.213360928E-2,-2.006980032E-1,9.885348320E0
5.078310600E-1,-2.691925503E-2,-1.911267042E-1,9.875777245E0
5.102756440E-1,-2.931207791E-2,-1.911267042E-1,9.880562782E0
5.127193420E-1,-4.606183618E-2,-2.174477577E-1,9.902098656E0
5.151639770E-1,-3.170489892E-2,-2.006980032E-1,9.880562782E0
5.176093420E-1,-1.734796353E-2,-1.911267042E-1,9.894919395E0
5.200539250E-1,-5.324030295E-2,-1.935195327E-1,9.882955551E0
5.224976750E-1,-2.691925503E-2,-1.935195327E-1,9.885348320E0
5.249422580E-1,-3.170489892E-2,-1.815554202E-1,9.906884193E0
5.273876750E-1,-7.776673418E-3,-1.983051747E-1,9.882955551E0
5.298321540E-1,-3.649054468E-2,-1.959123611E-1,9.885348320E0
5.322759560E-1,-3.409772366E-2,-1.935195327E-1,9.870991707E0
5.347205920E-1,-3.888336942E-2,-2.006980032E-1,9.875777245E0
5.371659560E-1,-3.649054468E-2,-1.959123611E-1,9.892526627E0
5.396105400E-1,-2.452643216E-2,-1.983051747E-1,9.899705887E0
5.420542900E-1,-2.931207791E-2,-1.935195327E-1,9.873384476E0
5.444988730E-1,-2.931207791E-2,-2.006980032E-1,9.878170013E0
5.469442900E-1,-2.931207791E-2,-1.911267042E-1,9.880562782E0
5.493887690E-1,-1.495514158E-2,-1.911267042E-1,9.906884193E0
5.518325710E-1,-1.495514158E-2,-1.743769497E-1,9.899705887E0
5.542772060E-1,-2.452643216E-2,-2.030908167E-1,9.885348320E0
5.567225710E-1,-2.931207791E-2,-2.030908167E-1,9.897313118E0
5.591671540E-1,-3.888336942E-2,-1.887338907E-1,9.882955551E0
5.616108520E-1,-3.649054468E-2,-1.839482337E-1,9.880562782E0
5.640554870E-1,-2.452643216E-2,-1.911267042E-1,9.892526627E0
5.665009040E-1,-4.127619043E-2,-1.935195327E-1,9.906884193E0
5.689453830E-1,-2.452643216E-2,-1.839482337E-1,9.873384476E0
5.713891850E-1,-3.888336942E-2,-1.983051747E-1,9.875777245E0
5.738338210E-1,-4.127619043E-2,-1.887338907E-1,9.866206169E0
5.762791850E-1,-3.409772366E-2,-1.719841212E-1,9.868598938E0
5.787237690E-1,-1.734796353E-2,-1.959123611E-1,9.885348320E0
5.811674670E-1,-2.452643216E-2,-2.054836452E-1,9.870991707E0
5.836121020E-1,-2.452643216E-2,-2.078764737E-1,9.870991707E0
5.860575190E-1,-4.366901144E-2,-2.006980032E-1,9.894919395E0
5.885019980E-1,-3.649054468E-2,-2.150549293E-1,9.899705887E0
5.909458000E-1,-3.649054468E-2,-2.006980032E-1,9.897313118E0
5.933904350E-1,-4.366901144E-2,-1.839482337E-1,9.870991707E0
5.958358000E-1,-2.452643216E-2,-2.150549293E-1,9.882955551E0
5.982803830E-1,-3.170489892E-2,-1.839482337E-1,9.914062500E0
6.007240810E-1,-3.888336942E-2,-1.911267042E-1,9.899705887E0
6.031687170E-1,-2.691925503E-2,-1.887338907E-1,9.873384476E0
6.056140810E-1,-1.734796353E-2,-2.006980032E-1,9.897313118E0
6.080586650E-1,-2.691925503E-2,-1.887338907E-1,9.866206169E0
6.105024150E-1,-1.256231871E-2,-1.911267042E-1,9.880562782E0
6.129470500E-1,-1.495514158E-2,-1.863410622E-1,9.897313118E0
6.153924150E-1,-5.383851007E-3,-2.102692872E-1,9.887741089E0
6.178369980E-1,-3.888336942E-2,-1.959123611E-1,9.880562782E0
6.202806960E-1,-4.366901144E-2,-1.887338907E-1,9.899705887E0
6.227253310E-1,-2.691925503E-2,-1.887338907E-1,9.890133858E0
6.251706960E-1,-1.734796353E-2,-1.791625917E-1,9.902098656E0
6.276152790E-1,-4.606183618E-2,-1.815554202E-1,9.868598938E0
6.300590290E-1,-4.127619043E-2,-2.126621157E-1,9.880562782E0
6.325036650E-1,-1.974078640E-2,-1.815554202E-1,9.887741089E0
6.349490290E-1,-2.691925503E-2,-2.126621157E-1,9.882955551E0
6.373936120E-1,-2.452643216E-2,-1.791625917E-1,9.870991707E0
6.398373100E-1,-3.888336942E-2,-2.054836452E-1,9.882955551E0
6.422819460E-1,-4.366901144E-2,-2.006980032E-1,9.866206169E0
6.447273100E-1,-4.606183618E-2,-2.006980032E-1,9.892526627E0
6.471718940E-1,-4.127619043E-2,-1.863410622E-1,9.906884193E0
6.496156440E-1,-2.213360928E-2,-2.006980032E-1,9.892526627E0
6.520602790E-1,-3.170489892E-2,-1.911267042E-1,9.863813400E0
6.545056440E-1,-2.931207791E-2,-1.959123611E-1,9.902098656E0
6.569502270E-1,-4.845465720E-2,-2.006980032E-1,9.882955551E0
6.593939250E-1,-4.127619043E-2,-1.863410622E-1,9.899705887E0
6.618385600E-1,-3.649054468E-2,-1.767697781E-1,9.873384476E0
6.642839250E-1,-1.734796353E-2,-1.911267042E-1,9.892526627E0
6.667285080E-1,-3.888336942E-2,-1.911267042E-1,9.899705887E0
6.691722580E-1,-3.649054468E-2,-1.887338907E-1,9.894919395E0
6.716168940E-1,-2.691925503E-2,-1.815554202E-1,9.882955551E0
6.740622580E-1,-3.170489892E-2,-2.006980032E-1,9.897313118E0
6.765068420E-1,-2.931207791E-2,-2.030908167E-1,9.904491425E0
6.789505400E-1,-3.888336942E-2,-1.935195327E-1,9.856635094E0
6.813951750E-1,-4.366901144E-2,-1.935195327E-1,9.890133858E0
6.838405400E-1,-4.606183618E-2,-2.054836452E-1,9.890133858E0
6.862851230E-1,-3.649054468E-2,-1.911267042E-1,9.875777245E0
6.887288730E-1,-4.127619043E-2,-2.030908167E-1,9.866206169E0
6.911734560E-1,-2.452643216E-2,-2.102692872E-1,9.875777245E0
6.936188730E-1,-2.691925503E-2,-1.911267042E-1,9.887741089E0
6.960633520E-1,-1.495514158E-2,-1.935195327E-1,9.880562782E0
6.985071540E-1,-2.691925503E-2,-2.006980032E-1,9.894919395E0
7.009517900E-1,-2.931207791E-2,-1.815554202E-1,9.880562782E0
7.033971540E-1,-4.606183618E-2,-1.983051747E-1,9.866206169E0
7.058417370E-1,-2.452643216E-2,-2.078764737E-1,9.885348320E0
7.082854870E-1,-2.691925503E-2,-1.983051747E-1,9.885348320E0
7.107300710E-1,-3.649054468E-2,-1.719841212E-1,9.894919395E0
7.131754870E-1,-1.974078640E-2,-1.983051747E-1,9.885348320E0
7.156199670E-1,-3.170489892E-2,-1.935195327E-1,9.892526627E0
7.180637690E-1,-4.366901144E-2,-1.815554202E-1,9.870991707E0
7.205084040E-1,-3.649054468E-2,-1.911267042E-1,9.875777245E0
7.229537690E-1,-3.649054468E-2,-1.791625917E-1,9.902098656E0
7.253983520E-1,-2.452643216E-2,-1.911267042E-1,9.870991707E0
7.278421020E-1,-3.649054468E-2,-1.911267042E-1,9.894919395E0
7.302866850E-1,-2.452643216E-2,-1.959123611E-1,9.878170013E0
7.327321020E-1,-4.127619043E-2,-1.791625917E-1,9.902098656E0
7.351765810E-1,-1.734796353E-2,-2.054836452E-1,9.878170013E0
7.376203830E-1,-2.931207791E-2,-1.983051747E-1,9.875777245E0
7.400650190E-1,-2.931207791E-2,-2.030908167E-1,9.885348320E0
7.425103830E-1,-1.256231871E-2,-1.839482337E-1,9.882955551E0
7.449549670E-1,-1.016949583E-2,-1.911267042E-1,9.868598938E0
7.473987170E-1,-2.213360928E-2,-1.887338907E-1,9.892526627E0
7.498433000E-1,-1.734796353E-2,-1.887338907E-1,9.909276962E0
7.522886650E-1,-3.409772366E-2,-2.054836452E-1,9.897313118E0
7.547332480E-1,-2.691925503E-2,-2.006980032E-1,9.899705887E0
7.571769980E-1,-3.170489892E-2,-1.935195327E-1,9.882955551E0
7.596216330E-1,-4.606183618E-2,-1.839482337E-1,9.873384476E0
7.620669980E-1,-3.649054468E-2,-1.959123611E-1,9.868598938E0
7.645115810E-1,-3.170489892E-2,-2.030908167E-1,9.882955551E0
7.669552790E-1,-3.888336942E-2,-1.983051747E-1,9.902098656E0
7.693999150E-1,-2.931207791E-2,-1.839482337E-1,9.885348320E0
7.718452790E-1,-3.649054468E-2,-1.911267042E-1,9.890133858E0
7.742898620E-1,-3.170489892E-2,-1.887338907E-1,9.899705887E0
7.767336120E-1,-1.974078640E-2,-1.743769497E-1,9.885348320E0
7.791782480E-1,-2.931207791E-2,-1.911267042E-1,9.863813400E0
7.816236120E-1,-3.888336942E-2,-1.959123611E-1,9.894919395E0
7.840681960E-1,-3.888336942E-2,-1.983051747E-1,9.878170013E0
7.865118940E-1,-3.649054468E-2,-2.006980032E-1,9.897313118E0
7.889565290E-1,-2.213360928E-2,-1.839482337E-1,9.909276962E0
7.914018940E-1,-4.366901144E-2,-1.959123611E-1,9.878170013E0
7.938464770E-1,-3.649054468E-2,-1.839482337E-1,9.880562782E0
7.962902270E-1,-3.409772366E-2,-1.959123611E-1,9.890133858E0
7.987348620E-1,-2.452643216E-2,-2.078764737E-1,9.894919395E0
8.011802270E-1,-4.127619043E-2,-2.006980032E-1,9.875777245E0
8.036248100E-1,-4.606183618E-2,-1.959123611E-1,9.873384476E0
8.060685080E-1,-3.649054468E-2,-1.863410622E-1,9.882955551E0
8.085131440E-1,-3.170489892E-2,-2.078764737E-1,9.894919395E0
8.109585080E-1,-4.366901144E-2,-1.863410622E-1,9.873384476E0
8.134030920E-1,-4.366901144E-2,-1.863410622E-1,9.902098656E0
8.158468420E-1,-3.649054468E-2,-1.791625917E-1,9.890133858E0
8.182914770E-1,-1.974078640E-2,-1.959123611E-1,9.887741089E0
8.207368420E-1,-2.931207791E-2,-1.911267042E-1,9.875777245E0
8.231814250E-1,-2.452643216E-2,-2.030908167E-1,9.882955551E0
8.256251230E-1,-3.649054468E-2,-2.078764737E-1,9.866206169E0
8.280697580E-1,-2.931207791E-2,-1.983051747E-1,9.878170013E0
8.305151230E-1,-5.383851007E-3,-1.839482337E-1,9.890133858E0
8.329597060E-1,-2.931207791E-2,-1.887338907E-1,9.878170013E0
8.354034560E-1,-2.691925503E-2,-1.743769497E-1,9.904491425E0
8.378480920E-1,-1.256231871E-2,-1.863410622E-1,9.892526627E0
8.402934560E-1,-2.931207791E-2,-1.983051747E-1,9.899705887E0
8.427380400E-1,-1.734796353E-2,-1.767697781E-1,9.875777245E0
8.451817370E-1,-1.734796353E-2,-1.887338907E-1,9.873384476E0
8.476263730E-1,-3.409772366E-2,-1.887338907E-1,9.906884193E0
8.500717370E-1,-2.452643216E-2,-1.983051747E-1,9.921240807E0
8.525163210E-1,-3.170489892E-2,-1.983051747E-1,9.885348320E0
8.549600710E-1,-5.324030295E-2,-1.839482337E-1,9.878170013E0
8.574047060E-1,-3.649054468E-2,-2.054836452E-1,9.906884193E0
8.598500710E-1,-1.974078640E-2,-1.815554202E-1,9.885348320E0
8.622945500E-1,-2.931207791E-2,-1.911267042E-1,9.880562782E0
8.647383520E-1,-1.495514158E-2,-2.054836452E-1,9.890133858E0
8.671829870E-1,-1.256231871E-2,-2.030908167E-1,9.873384476E0
8.696283520E-1,-3.888336942E-2,-1.983051747E-1,9.882955551E0
8.720729350E-1,-4.366901144E-2,-1.983051747E-1,9.894919395E0
8.745166850E-1,-4.366901144E-2,-1.983051747E-1,9.902098656E0
8.769613210E-1,-3.170489892E-2,-1.887338907E-1,9.885348320E0
8.794066850E-1,-3.888336942E-2,-1.983051747E-1,9.892526627E0
8.818511650E-1,-1.495514158E-2,-1.791625917E-1,9.878170013E0
8.842949670E-1,-3.170489892E-2,-1.959123611E-1,9.873384476E0
8.867396020E-1,-3.170489892E-2,-1.935195327E-1,9.899705887E0
8.891849670E-1,-3.170489892E-2,-1.983051747E-1,9.902098656E0
8.916295500E-1,-4.606183618E-2,-1.983051747E-1,9.878170013E0
8.940733000E-1,-2.691925503E-2,-1.983051747E-1,9.882955551E0
8.965178830E-1,-1.734796353E-2,-2.030908167E-1,9.897313118E0
8.989633000E-1,-4.366901144E-2,-2.102692872E-1,9.894919395E0
9.014077790E-1,-2.452643216E-2,-1.935195327E-1,9.873384476E0
9.038515810E-1,-3.409772366E-2,-1.815554202E-1,9.914062500E0
9.062962170E-1,-4.127619043E-2,-1.983051747E-1,9.882955551E0
9.087415810E-1,-2.931207791E-2,-1.959123611E-1,9.894919395E0
9.111861650E-1,-3.409772366E-2,-1.983051747E-1,9.890133858E0
9.136298620E-1,-2.691925503E-2,-1.911267042E-1,9.873384476E0
9.160744980E-1,-3.649054468E-2,-1.863410622E-1,9.894919395E0
9.185199150E-1,-5.324030295E-2,-1.911267042E-1,9.880562782E0
9.209643940E-1,-3.888336942E-2,-1.791625917E-1,9.885348320E0
9.234081960E-1,-2.691925503E-2,-1.863410622E-1,9.894919395E0
9.258528310E-1,-7.776673418E-3,-2.006980032E-1,9.866206169E0
9.282981960E-1,-3.409772366E-2,-1.911267042E-1,9.873384476E0
9.307427790E-1,-2.691925503E-2,-1.863410622E-1,9.885348320E0
9.331864770E-1,-3.409772366E-2,-1.839482337E-1,9.890133858E0
9.356311120E-1,-3.170489892E-2,-1.911267042E-1,9.897313118E0
9.380764770E-1,-5.084748194E-2,-1.935195327E-1,9.880562782E0
9.405210600E-1,-3.649054468E-2,-2.078764737E-1,9.894919395E0
9.429648100E-1,-5.084748194E-2,-1.983051747E-1,9.906884193E0
9.454094460E-1,-4.127619043E-2,-1.911267042E-1,9.875777245E0
9.478548100E-1,-2.931207791E-2,-1.911267042E-1,9.890133858E0
9.502993940E-1,-2.691925503E-2,-1.887338907E-1,9.885348320E0
9.527430920E-1,-3.409772366E-2,-1.935195327E-1,9.892526627E0
9.551877270E-1,-3.409772366E-2,-2.030908167E-1,9.921240807E0
9.576330920E-1,-2.991028363E-3,-1.959123611E-1,9.885348320E0
9.600776750E-1,-3.409772366E-2,-1.983051747E-1,9.894919395E0
9.625214250E-1,-4.366901144E-2,-1.791625917E-1,9.892526627E0
9.649660600E-1,-1.495514158E-2,-1.887338907E-1,9.885348320E0
9.674114250E-1,-1.974078640E-2,-1.863410622E-1,9.880562782E0
9.698560080E-1,-1.256231871E-2,-1.959123611E-1,9.899705887E0
9.722997060E-1,-2.213360928E-2,-1.839482337E-1,9.882955551E0
9.747443420E-1,-3.170489892E-2,-2.030908167E-1,9.878170013E0
9.771897060E-1,-3.170489892E-2,-2.126621157E-1,9.868598938E0
9.796342900E-1,-2.931207791E-2,-1.959123611E-1,9.918848038E0
9.820780400E-1,-2.691925503E-2,-1.911267042E-1,9.878170013E0
9.845226750E-1,-4.127619043E-2,-2.078764737E-1,9.849455833E0
9.869680400E-1,-2.691925503E-2,-1.983051747E-1,9.873384476E0
9.894126230E-1,-4.127619043E-2,-1.983051747E-1,9.902098656E0
9.918563210E-1,-2.452643216E-2,-1.959123611E-1,9.904491425E0
9.943009560E-1,-3.170489892E-2,-2.054836452E-1,9.875777245E0
9.967463210E-1,-2.452643216E-2,-2.030908167E-1,9.904491425E0
9.991909040E-1,-3.409772366E-2,-1.983051747E-1,9.902098656E0
1.001634654E0,-3.888336942E-2,-2.150549293E-1,9.880562782E0
1.004079290E0,-2.213360928E-2,-1.791625917E-1,9.894919395E0
1.006524654E0,-4.606183618E-2,-1.695913076E-1,9.926026344E0
1.008969237E0,-3.888336942E-2,-2.006980032E-1,9.904491425E0
1.011412935E0,-2.931207791E-2,-1.983051747E-1,9.885348320E0
1.013857571E0,-3.170489892E-2,-1.983051747E-1,9.885348320E0
1.016302935E0,-1.495514158E-2,-1.983051747E-1,9.870991707E0
1.018747519E0,-3.649054468E-2,-2.006980032E-1,9.878170013E0
1.021191269E0,-4.845465720E-2,-2.078764737E-1,9.890133858E0
1.023635852E0,-2.213360928E-2,-2.030908167E-1,9.868598938E0
1.026081269E0,-2.931207791E-2,-2.198405862E-1,9.866206169E0
1.028525852E0,-2.931207791E-2,-1.983051747E-1,9.911669731E0
1.030969550E0,-1.974078640E-2,-2.006980032E-1,9.899705887E0
1.033414185E0,-2.931207791E-2,-1.983051747E-1,9.878170013E0
1.035859550E0,-4.606183618E-2,-1.935195327E-1,9.887741089E0
1.038304133E0,-3.888336942E-2,-1.791625917E-1,9.894919395E0
1.040747883E0,-2.213360928E-2,-1.983051747E-1,9.870991707E0
1.043192519E0,-3.649054468E-2,-1.887338907E-1,9.873384476E0
1.045637883E0,-3.170489892E-2,-1.767697781E-1,9.892526627E0
1.048082362E0,-2.931207791E-2,-1.959123611E-1,9.890133858E0
1.050526165E0,-3.649054468E-2,-1.863410622E-1,9.921240807E0
1.052970800E0,-3.170489892E-2,-1.911267042E-1,9.868598938E0
1.055416165E0,-3.170489892E-2,-1.959123611E-1,9.911669731E0
1.057860748E0,-3.888336942E-2,-1.983051747E-1,9.882955551E0
1.060304498E0,-5.324030295E-2,-1.911267042E-1,9.923633575E0
1.062749081E0,-3.170489892E-2,-2.078764737E-1,9.890133858E0
1.065194498E0,-2.931207791E-2,-1.863410622E-1,9.894919395E0
1.067638977E0,-2.691925503E-2,-1.887338907E-1,9.904491425E0
1.070082779E0,-1.016949583E-2,-2.006980032E-1,9.890133858E0
1.072527415E0,-5.383851007E-3,-1.959123611E-1,9.880562782E0
1.074972779E0,-5.084748194E-2,-1.887338907E-1,9.880562782E0
1.077417362E0,-3.170489892E-2,-2.006980032E-1,9.880562782E0
1.079861060E0,-2.931207791E-2,-1.935195327E-1,9.875777245E0
1.082305696E0,-4.127619043E-2,-1.959123611E-1,9.875777245E0
1.084751060E0,-4.127619043E-2,-2.030908167E-1,9.882955551E0
1.087195644E0,-2.691925503E-2,-1.887338907E-1,9.882955551E0
1.089639394E0,-7.776673418E-3,-1.911267042E-1,9.885348320E0
1.092084029E0,-2.452643216E-2,-1.935195327E-1,9.892526627E0
1.094529394E0,-2.931207791E-2,-1.959123611E-1,9.882955551E0
1.096973977E0,-1.734796353E-2,-1.863410622E-1,9.887741089E0
1.099417675E0,-3.888336942E-2,-2.030908167E-1,9.873384476E0
1.101862310E0,-3.888336942E-2,-1.767697781E-1,9.894919395E0
1.104307675E0,-3.170489892E-2,-2.078764737E-1,9.894919395E0
1.106752258E0,-4.606183618E-2,-1.839482337E-1,9.880562782E0
1.109196008E0,-4.127619043E-2,-1.911267042E-1,9.878170013E0
1.111640644E0,-3.888336942E-2,-1.791625917E-1,9.894919395E0
1.114086008E0,-2.213360928E-2,-1.887338907E-1,9.904491425E0
1.116530592E0,-5.324030295E-2,-2.006980032E-1,9.887741089E0
1.118974290E0,-3.170489892E-2,-1.839482337E-1,9.880562782E0
1.121418925E0,-2.931207791E-2,-1.863410622E-1,9.902098656E0
1.123864290E0,-5.084748194E-2,-1.959123611E-1,9.885348320E0
1.126308873E0,-4.366901144E-2,-1.791625917E-1,9.911669731E0
1.128752623E0,-4.127619043E-2,-1.887338907E-1,9.890133858E0
1.131197258E0,-2.691925503E-2,-1.911267042E-1,9.887741089E0
1.133642623E0,-2.931207791E-2,-1.887338907E-1,9.892526627E0
1.136087206E0,-3.409772366E-2,-1.959123611E-1,9.892526627E0
1.138530904E0,-3.888336942E-2,-1.815554202E-1,9.894919395E0
1.140975540E0,-2.691925503E-2,-1.983051747E-1,9.894919395E0
1.143420904E0,-2.452643216E-2,-2.030908167E-1,9.868598938E0
1.145865487E0,-3.170489892E-2,-1.935195327E-1,9.887741089E0
1.148309237E0,-4.845465720E-2,-1.983051747E-1,9.880562782E0
1.150753873E0,-4.606183618E-2,-2.030908167E-1,9.906884193E0
1.153199237E0,-5.084748194E-2,-1.815554202E-1,9.859027863E0
1.155643821E0,-2.452643216E-2,-1.935195327E-1,9.887741089E0
1.158087519E0,-2.213360928E-2,-1.887338907E-1,9.906884193E0
1.160532154E0,-1.495514158E-2,-1.983051747E-1,9.880562782E0
1.162977519E0,-3.649054468E-2,-1.911267042E-1,9.904491425E0
1.165422102E0,-2.691925503E-2,-2.006980032E-1,9.902098656E0
1.167865852E0,-3.409772366E-2,-2.006980032E-1,9.911669731E0
1.170310487E0,-1.974078640E-2,-1.935195327E-1,9.890133858E0
1.172755852E0,-4.366901144E-2,-1.983051747E-1,9.880562782E0
1.175200435E0,-1.734796353E-2,-1.935195327E-1,9.899705887E0
1.177644133E0,-4.366901144E-2,-2.030908167E-1,9.894919395E0
1.180088769E0,-2.931207791E-2,-2.006980032E-1,9.890133858E0
1.182534133E0,-2.931207791E-2,-1.863410622E-1,9.882955551E0
1.184978717E0,-3.409772366E-2,-1.911267042E-1,9.875777245E0
1.187422467E0,-3.888336942E-2,-1.983051747E-1,9.890133858E0
1.189867102E0,-3.170489892E-2,-1.791625917E-1,9.880562782E0
1.192312467E0,-2.213360928E-2,-1.983051747E-1,9.882955551E0
1.194756946E0,-2.691925503E-2,-2.006980032E-1,9.882955551E0
1.197200748E0,-3.649054468E-2,-1.815554202E-1,9.899705887E0
1.199645383E0,-3.888336942E-2,-1.815554202E-1,9.911669731E0
1.202090748E0,-3.888336942E-2,-1.863410622E-1,9.892526627E0
1.204535331E0,-4.127619043E-2,-1.911267042E-1,9.909276962E0
1.206979081E0,-1.495514158E-2,-2.054836452E-1,9.894919395E0
1.209423665E0,-3.409772366E-2,-2.006980032E-1,9.899705887E0
1.211869081E0,-1.974078640E-2,-1.935195327E-1,9.861420631E0
1.214313560E0,-4.127619043E-2,-2.054836452E-1,9.904491425E0
1.216757362E0,-2.452643216E-2,-1.959123611E-1,9.894919395E0
1.219201998E0,-3.409772366E-2,-1.863410622E-1,9.894919395E0
1.221647362E0,-4.127619043E-2,-1.863410622E-1,9.882955551E0
1.224091946E0,-1.734796353E-2,-1.983051747E-1,9.875777245E0
1.226535644E0,-3.888336942E-2,-1.983051747E-1,9.882955551E0
1.228980279E0,-3.409772366E-2,-1.791625917E-1,9.897313118E0
1.231425696E0,-4.127619043E-2,-2.126621157E-1,9.906884193E0
1.233870175E0,-4.127619043E-2,-1.719841212E-1,9.873384476E0
1.236313977E0,-3.888336942E-2,-2.030908167E-1,9.902098656E0
1.238758612E0,-1.256231871E-2,-1.959123611E-1,9.894919395E0
1.241203977E0,-2.452643216E-2,-1.791625917E-1,9.870991707E0
1.243648560E0,-3.170489892E-2,-1.887338907E-1,9.856635094E0
1.246092258E0,-3.649054468E-2,-1.743769497E-1,9.878170013E0
1.248536894E0,-3.888336942E-2,-1.887338907E-1,9.902098656E0
1.250982258E0,-4.845465720E-2,-1.887338907E-1,9.897313118E0
1.253426842E0,-3.888336942E-2,-1.983051747E-1,9.873384476E0
1.255870592E0,-4.127619043E-2,-2.054836452E-1,9.892526627E0
1.258315227E0,-3.170489892E-2,-1.983051747E-1,9.897313118E0
1.260760592E0,-3.888336942E-2,-1.719841212E-1,9.875777245E0
1.263205175E0,-4.127619043E-2,-1.911267042E-1,9.878170013E0
1.265648873E0,-3.409772366E-2,-1.911267042E-1,9.878170013E0
1.268093508E0,-4.366901144E-2,-2.006980032E-1,9.892526627E0
1.270538873E0,-4.606183618E-2,-1.791625917E-1,9.909276962E0
1.272983456E0,-2.213360928E-2,-1.863410622E-1,9.892526627E0
1.275427206E0,-1.974078640E-2,-2.054836452E-1,9.887741089E0
1.277871842E0,-3.170489892E-2,-2.150549293E-1,9.887741089E0
1.280317206E0,-3.649054468E-2,-2.030908167E-1,9.870991707E0
1.282761790E0,-2.213360928E-2,-2.054836452E-1,9.902098656E0
1.285205487E0,-3.649054468E-2,-1.863410622E-1,9.918848038E0
1.287650123E0,-2.452643216E-2,-1.863410622E-1,9.894919395E0
1.290095487E0,-4.366901144E-2,-1.887338907E-1,9.859027863E0
1.292540071E0,-2.213360928E-2,-1.911267042E-1,9.894919395E0
1.294983821E0,-3.409772366E-2,-2.078764737E-1,9.916455269E0
1.297428456E0,-5.383851007E-3,-1.887338907E-1,9.887741089E0
1.299873821E0,-4.127619043E-2,-2.174477577E-1,9.897313118E0
1.302318404E0,-4.366901144E-2,-2.078764737E-1,9.868598938E0
1.304762102E0,-3.888336942E-2,-2.054836452E-1,9.875777245E0
1.307206737E0,-3.888336942E-2,-2.030908167E-1,9.875777245E0
1.309652102E0,-3.409772366E-2,-1.911267042E-1,9.897313118E0
1.312096685E0,-2.931207791E-2,-2.006980032E-1,9.899705887E0
1.314540435E0,-1.734796353E-2,-1.887338907E-1,9.887741089E0
1.316985071E0,-2.213360928E-2,-1.839482337E-1,9.885348320E0
1.319430435E0,-3.409772366E-2,-1.839482337E-1,9.866206169E0
1.321875019E0,-4.845465720E-2,-2.030908167E-1,9.904491425E0
1.324318717E0,-4.127619043E-2,-1.887338907E-1,9.894919395E0
1.326763352E0,-4.127619043E-2,-2.006980032E-1,9.887741089E0
1.329208717E0,-2.931207791E-2,-1.935195327E-1,9.870991707E0
1.331653300E0,-4.127619043E-2,-1.935195327E-1,9.868598938E0
1.334097050E0,-3.409772366E-2,-1.911267042E-1,9.880562782E0
1.336541633E0,-2.931207791E-2,-1.983051747E-1,9.875777245E0
1.338987050E0,-4.127619043E-2,-2.078764737E-1,9.894919395E0
1.341431633E0,-3.170489892E-2,-1.695913076E-1,9.892526627E0
1.343875331E0,-1.734796353E-2,-1.911267042E-1,9.875777245E0
1.346319967E0,-4.845465720E-2,-2.006980032E-1,9.899705887E0
1.348765331E0,-3.409772366E-2,-1.983051747E-1,9.899705887E0
1.351209915E0,-3.170489892E-2,-1.887338907E-1,9.890133858E0
1.353653665E0,-3.888336942E-2,-1.839482337E-1,9.890133858E0
1.356098248E0,-7.776673418E-3,-1.839482337E-1,9.894919395E0
1.358543665E0,-4.127619043E-2,-1.911267042E-1,9.906884193E0
1.360988144E0,-3.649054468E-2,-2.054836452E-1,9.885348320E0
1.363431946E0,-3.170489892E-2,-2.126621157E-1,9.897313118E0
1.365876581E0,-4.366901144E-2,-1.935195327E-1,9.880562782E0
1.368321946E0,-4.845465720E-2,-1.983051747E-1,9.892526627E0
1.370766529E0,-4.366901144E-2,-1.959123611E-1,9.873384476E0
1.373210279E0,-4.606183618E-2,-1.935195327E-1,9.880562782E0
1.375654862E0,-3.649054468E-2,-2.054836452E-1,9.868598938E0
1.378100227E0,-1.974078640E-2,-1.839482337E-1,9.880562782E0
1.380544810E0,-3.409772366E-2,-1.983051747E-1,9.887741089E0
1.382988560E0,-4.845465720E-2,-1.983051747E-1,9.892526627E0
1.385433196E0,-3.409772366E-2,-2.030908167E-1,9.897313118E0
1.387878560E0,-2.213360928E-2,-2.102692872E-1,9.892526627E0
1.390323144E0,-2.931207791E-2,-1.815554202E-1,9.854242325E0
1.392766842E0,-2.452643216E-2,-1.935195327E-1,9.882955551E0
1.395211477E0,-3.409772366E-2,-2.030908167E-1,9.885348320E0
1.397656842E0,-3.409772366E-2,-1.935195327E-1,9.878170013E0
1.400101425E0,-5.084748194E-2,-2.102692872E-1,9.892526627E0
1.402545175E0,-2.452643216E-2,-1.935195327E-1,9.916455269E0
1.404989810E0,-1.734796353E-2,-1.911267042E-1,9.861420631E0
1.407435175E0,-4.127619043E-2,-1.863410622E-1,9.902098656E0
1.409879758E0,-4.606183618E-2,-1.935195327E-1,9.892526627E0
1.412323456E0,-4.127619043E-2,-2.006980032E-1,9.887741089E0
1.414768092E0,-2.691925503E-2,-2.030908167E-1,9.899705887E0
1.417213456E0,-1.974078640E-2,-1.815554202E-1,9.870991707E0
1.419658040E0,-4.127619043E-2,-2.030908167E-1,9.902098656E0
1.422101790E0,-2.691925503E-2,-1.887338907E-1,9.880562782E0
1.424546425E0,-2.691925503E-2,-2.030908167E-1,9.882955551E0
1.426991790E0,-3.170489892E-2,-1.935195327E-1,9.875777245E0
1.429436373E0,-4.845465720E-2,-1.959123611E-1,9.892526627E0
1.431880071E0,-1.734796353E-2,-1.887338907E-1,9.897313118E0
1.434324706E0,-3.170489892E-2,-1.911267042E-1,9.899705887E0
1.436770071E0,-3.888336942E-2,-2.102692872E-1,9.906884193E0
1.439214654E0,-2.213360928E-2,-1.935195327E-1,9.914062500E0
1.441658404E0,-1.495514158E-2,-2.078764737E-1,9.873384476E0
1.444103040E0,-2.691925503E-2,-1.935195327E-1,9.868598938E0
1.446548404E0,-2.691925503E-2,-2.078764737E-1,9.897313118E0
1.448992987E0,-3.649054468E-2,-1.815554202E-1,9.885348320E0
1.451436685E0,-3.170489892E-2,-2.030908167E-1,9.894919395E0
1.453881321E0,-3.170489892E-2,-1.911267042E-1,9.892526627E0
1.456326685E0,-5.084748194E-2,-1.983051747E-1,9.875777245E0
1.458771269E0,-2.213360928E-2,-2.102692872E-1,9.909276962E0
1.461215019E0,-3.888336942E-2,-1.935195327E-1,9.892526627E0
1.463659654E0,-1.974078640E-2,-2.006980032E-1,9.904491425E0
1.466105019E0,-3.649054468E-2,-1.983051747E-1,9.902098656E0
1.468549602E0,-4.606183618E-2,-1.743769497E-1,9.904491425E0
1.470993300E0,-3.170489892E-2,-1.839482337E-1,9.873384476E0
1.473437935E0,-3.649054468E-2,-1.959123611E-1,9.882955551E0
1.475883300E0,-1.974078640E-2,-1.959123611E-1,9.885348320E0
1.478327883E0,-1.974078640E-2,-1.983051747E-1,9.894919395E0
1.480771633E0,-2.213360928E-2,-1.983051747E-1,9.887741089E0
1.483216217E0,-3.409772366E-2,-1.935195327E-1,9.890133858E0
1.485661633E0,-2.452643216E-2,-2.102692872E-1,9.902098656E0
1.488106112E0,-3.409772366E-2,-2.006980032E-1,9.897313118E0
1.490549915E0,-2.991028363E-3,-1.887338907E-1,9.902098656E0
1.492994550E0,-5.383851007E-3,-2.054836452E-1,9.892526627E0
1.495439915E0,-5.832505226E-2,-1.839482337E-1,9.882955551E0
1.497884498E0,-6.550352275E-2,-1.935195327E-1,9.902098656E0
1.500328196E0,-4.366901144E-2,-2.054836452E-1,9.873384476E0
1.502772831E0,-3.888336942E-2,-2.030908167E-1,9.875777245E0
1.505218248E0,-2.691925503E-2,-1.815554202E-1,9.916455269E0
1.507662727E0,-1.974078640E-2,-1.935195327E-1,9.861420631E0
1.510106529E0,-2.691925503E-2,-1.887338907E-1,9.892526627E0
1.512551165E0,-4.366901144E-2,-1.959123611E-1,9.890133858E0
1.514996529E0,-3.170489892E-2,-1.959123611E-1,9.921240807E0
1.517441112E0,-2.452643216E-2,-1.911267042E-1,9.878170013E0
1.519884810E0,-3.409772366E-2,-1.863410622E-1,9.873384476E0
1.522329446E0,-3.888336942E-2,-1.887338907E-1,9.868598938E0
1.524774810E0,-2.213360928E-2,-1.983051747E-1,9.880562782E0
1.527219394E0,-4.845465720E-2,-2.054836452E-1,9.887741089E0
1.529663144E0,-5.324030295E-2,-1.983051747E-1,9.892526627E0
1.532107779E0,-2.691925503E-2,-1.887338907E-1,9.918848038E0
1.534553144E0,-2.931207791E-2,-1.935195327E-1,9.899705887E0
1.536997727E0,-3.170489892E-2,-1.791625917E-1,9.878170013E0
1.539441425E0,-3.170489892E-2,-1.887338907E-1,9.885348320E0
1.541886060E0,-2.452643216E-2,-1.863410622E-1,9.890133858E0
1.544331425E0,-3.649054468E-2,-1.983051747E-1,9.887741089E0
1.546776008E0,-4.845465720E-2,-2.030908167E-1,9.878170013E0
1.549219758E0,-3.888336942E-2,-1.983051747E-1,9.887741089E0
1.551664394E0,-3.409772366E-2,-1.935195327E-1,9.878170013E0
1.554109758E0,-2.213360928E-2,-1.887338907E-1,9.887741089E0
1.556554342E0,-2.691925503E-2,-1.887338907E-1,9.887741089E0
1.558998040E0,-3.409772366E-2,-2.054836452E-1,9.880562782E0
1.561442675E0,-4.127619043E-2,-1.743769497E-1,9.880562782E0
1.563888040E0,-2.452643216E-2,-1.863410622E-1,9.906884193E0
1.566332623E0,-3.409772366E-2,-1.671984792E-1,9.892526627E0
1.568776373E0,-2.452643216E-2,-1.863410622E-1,9.890133858E0
1.571221008E0,-2.931207791E-2,-1.983051747E-1,9.892526627E0
1.573666373E0,-1.974078640E-2,-1.911267042E-1,9.878170013E0
1.576110956E0,-2.931207791E-2,-1.911267042E-1,9.890133858E0
1.578554654E0,-2.691925503E-2,-2.030908167E-1,9.902098656E0
1.580999290E0,-2.931207791E-2,-1.959123611E-1,9.909276962E0
1.583444654E0,-3.409772366E-2,-1.767697781E-1,9.870991707E0
1.585889237E0,-3.888336942E-2,-1.815554202E-1,9.882955551E0
1.588332987E0,-2.213360928E-2,-2.054836452E-1,9.894919395E0
1.590777623E0,-3.409772366E-2,-1.791625917E-1,9.902098656E0
1.593222987E0,-3.409772366E-2,-1.791625917E-1,9.892526627E0
1.595667571E0,-2.452643216E-2,-1.935195327E-1,9.902098656E0
1.598111269E0,-2.931207791E-2,-1.887338907E-1,9.897313118E0
1.600555904E0,-3.888336942E-2,-1.935195327E-1,9.887741089E0
1.603001269E0,-2.931207791E-2,-1.839482337E-1,9.882955551E0
1.605445852E0,-4.127619043E-2,-1.671984792E-1,9.875777245E0
1.607889602E0,-4.366901144E-2,-1.887338907E-1,9.885348320E0
1.610334185E0,-3.170489892E-2,-1.863410622E-1,9.897313118E0
1.612779602E0,-3.888336942E-2,-1.648056656E-1,9.892526627E0
1.615224081E0,-1.974078640E-2,-1.959123611E-1,9.882955551E0
1.617667883E0,-3.170489892E-2,-1.839482337E-1,9.863813400E0
1.620112519E0,-3.409772366E-2,-2.030908167E-1,9.882955551E0
1.622557883E0,-2.691925503E-2,-1.767697781E-1,9.890133858E0
1.625002467E0,-5.383851007E-3,-2.078764737E-1,9.873384476E0
1.627446217E0,-5.383851007E-3,-2.006980032E-1,9.885348320E0
1.629890800E0,-3.409772366E-2,-1.983051747E-1,9.882955551E0
1.632336217E0,-2.691925503E-2,-1.935195327E-1,9.892526627E0
1.634780696E0,-3.170489892E-2,-2.078764737E-1,9.875777245E0
1.637224498E0,-3.888336942E-2,-1.863410622E-1,9.897313118E0
1.639669133E0,-3.409772366E-2,-2.006980032E-1,9.882955551E0
1.642114498E0,-3.409772366E-2,-1.935195327E-1,9.897313118E0
1.644559081E0,-2.452643216E-2,-1.911267042E-1,9.909276962E0
1.647002779E0,-1.974078640E-2,-2.054836452E-1,9.902098656E0
1.649447415E0,-2.213360928E-2,-2.054836452E-1,9.887741089E0
1.651892779E0,-4.127619043E-2,-1.983051747E-1,9.902098656E0
1.654337362E0,-1.734796353E-2,-2.054836452E-1,9.892526627E0
1.656781112E0,-3.170489892E-2,-1.983051747E-1,9.890133858E0
1.659225748E0,-2.452643216E-2,-2.054836452E-1,9.909276962E0
1.661671112E0,-4.845465720E-2,-2.006980032E-1,9.890133858E0
1.664115696E0,-2.931207791E-2,-1.983051747E-1,9.897313118E0
1.666559394E0,-4.845465720E-2,-1.983051747E-1,9.899705887E0
1.669004029E0,-4.127619043E-2,-1.839482337E-1,9.882955551E0
1.671449394E0,-2.452643216E-2,-2.126621157E-1,9.868598938E0
1.673893977E0,-2.452643216E-2,-1.791625917E-1,9.882955551E0
1.676337727E0,-3.170489892E-2,-2.030908167E-1,9.897313118E0
1.678782362E0,-2.931207791E-2,-1.863410622E-1,9.875777245E0
1.681227727E0,-2.691925503E-2,-1.911267042E-1,9.885348320E0
1.683672310E0,-3.409772366E-2,-1.935195327E-1,9.918848038E0
1.686116008E0,-2.931207791E-2,-2.126621157E-1,9.882955551E0
1.688560644E0,-3.649054468E-2,-2.006980032E-1,9.868598938E0
1.691006008E0,-3.888336942E-2,-2.006980032E-1,9.894919395E0
1.693450592E0,-3.170489892E-2,-2.102692872E-1,9.863813400E0
1.695894342E0,-2.452643216E-2,-1.935195327E-1,9.902098656E0
1.698338977E0,-3.409772366E-2,-2.006980032E-1,9.899705887E0
1.700784342E0,-2.452643216E-2,-1.959123611E-1,9.890133858E0
1.703228925E0,-3.888336942E-2,-2.054836452E-1,9.894919395E0
1.705672623E0,-2.452643216E-2,-1.935195327E-1,9.894919395E0
1.708117258E0,-5.084748194E-2,-1.815554202E-1,9.890133858E0
1.710562623E0,-2.931207791E-2,-1.983051747E-1,9.894919395E0
1.713007206E0,-2.931207791E-2,-2.150549293E-1,9.909276962E0
1.715450956E0,-2.931207791E-2,-2.006980032E-1,9.894919395E0
1.717895592E0,-4.845465720E-2,-1.839482337E-1,9.885348320E0
1.720340956E0,-4.127619043E-2,-1.839482337E-1,9.890133858E0
1.722785435E0,-2.213360928E-2,-1.935195327E-1,9.899705887E0
1.725229237E0,-4.127619043E-2,-2.054836452E-1,9.885348320E0
1.727673873E0,-3.409772366E-2,-1.959123611E-1,9.887741089E0
1.730119237E0,-3.888336942E-2,-2.006980032E-1,9.909276962E0
1.732563821E0,-2.213360928E-2,-1.959123611E-1,9.902098656E0
1.735007571E0,-2.931207791E-2,-2.054836452E-1,9.887741089E0
1.737452154E0,-1.974078640E-2,-1.983051747E-1,9.894919395E0
1.739897571E0,-2.931207791E-2,-1.624128371E-1,9.899705887E0
1.742342050E0,-3.649054468E-2,-1.887338907E-1,9.897313118E0
1.744785852E0,-4.127619043E-2,-1.983051747E-1,9.890133858E0
1.747230487E0,-7.776673418E-3,-2.006980032E-1,9.873384476E0
1.749675852E0,-1.974078640E-2,-1.911267042E-1,9.880562782E0
1.752120435E0,-3.170489892E-2,-1.959123611E-1,9.866206169E0
1.754564185E0,-3.888336942E-2,-1.815554202E-1,9.890133858E0
1.757008769E0,-4.127619043E-2,-1.791625917E-1,9.902098656E0
1.759454185E0,-4.606183618E-2,-1.935195327E-1,9.880562782E0
1.761898665E0,-6.789634377E-2,-1.887338907E-1,9.899705887E0
1.764342467E0,-4.845465720E-2,-1.983051747E-1,9.887741089E0
1.766787102E0,-4.366901144E-2,-1.959123611E-1,9.890133858E0
1.769232467E0,-3.170489892E-2,-1.815554202E-1,9.899705887E0
1.771677050E0,-6.789634377E-2,-2.030908167E-1,9.880562782E0
1.774120748E0,-4.606183618E-2,-1.887338907E-1,9.909276962E0
1.776565383E0,-5.563312769E-2,-2.030908167E-1,9.868598938E0
1.779010748E0,-1.495514158E-2,-1.959123611E-1,9.882955551E0
1.781455331E0,-1.734796353E-2,-2.006980032E-1,9.911669731E0
1.783899081E0,-3.170489892E-2,-1.935195327E-1,9.892526627E0
1.786343717E0,-2.213360928E-2,-2.054836452E-1,9.885348320E0
1.788789081E0,-3.409772366E-2,-1.935195327E-1,9.882955551E0
1.791233665E0,-1.974078640E-2,-2.174477577E-1,9.863813400E0
1.793677362E0,-2.931207791E-2,-2.006980032E-1,9.870991707E0
1.796121998E0,-4.127619043E-2,-1.911267042E-1,9.875777245E0
1.798567362E0,-2.691925503E-2,-1.935195327E-1,9.894919395E0
1.801011946E0,-1.495514158E-2,-2.126621157E-1,9.882955551E0
1.803455696E0,-2.691925503E-2,-1.959123611E-1,9.875777245E0
1.805900331E0,-3.649054468E-2,-1.911267042E-1,9.887741089E0
1.808345696E0,-3.649054468E-2,-2.030908167E-1,9.892526627E0
1.810790279E0,-3.409772366E-2,-2.054836452E-1,9.878170013E0
1.813233977E0,-2.931207791E-2,-1.839482337E-1,9.909276962E0
1.815678612E0,-3.409772366E-2,-1.695913076E-1,9.890133858E0
1.818123977E0,-5.084748194E-2,-1.911267042E-1,9.890133858E0
1.820568560E0,-4.366901144E-2,-2.102692872E-1,9.897313118E0
1.823012310E0,-4.845465720E-2,-1.983051747E-1,9.902098656E0
1.825456946E0,-1.016949583E-2,-1.743769497E-1,9.885348320E0
1.827902310E0,-3.409772366E-2,-1.983051747E-1,9.878170013E0
1.830346790E0,-2.691925503E-2,-2.030908167E-1,9.873384476E0
1.832790592E0,-3.409772366E-2,-1.983051747E-1,9.902098656E0
1.835235227E0,-2.452643216E-2,-1.935195327E-1,9.880562782E0
1.837680592E0,-2.213360928E-2,-2.054836452E-1,9.894919395E0
1.840125175E0,-2.931207791E-2,-1.983051747E-1,9.914062500E0
1.842568925E0,-2.452643216E-2,-1.887338907E-1,9.892526627E0
1.845013508E0,-7.776673418E-3,-1.983051747E-1,9.894919395E0
1.847458925E0,-2.691925503E-2,-1.863410622E-1,9.909276962E0
1.849903508E0,-3.170489892E-2,-2.054836452E-1,9.880562782E0
1.852347206E0,-2.213360928E-2,-1.767697781E-1,9.873384476E0
1.854791842E0,-3.888336942E-2,-1.863410622E-1,9.899705887E0
1.857237206E0,-1.974078640E-2,-2.174477577E-1,9.885348320E0
1.859681790E0,-3.170489892E-2,-1.983051747E-1,9.894919395E0
1.862125540E0,-3.409772366E-2,-2.054836452E-1,9.880562782E0
1.864570123E0,-2.691925503E-2,-2.054836452E-1,9.902098656E0
1.867015540E0,-1.974078640E-2,-1.887338907E-1,9.882955551E0
1.869460019E0,-1.495514158E-2,-1.983051747E-1,9.887741089E0
1.871903821E0,-4.127619043E-2,-1.791625917E-1,9.897313118E0
1.874348456E0,-5.324030295E-2,-1.695913076E-1,9.904491425E0
1.876793821E0,-4.845465720E-2,-2.078764737E-1,9.887741089E0
1.879238404E0,-3.888336942E-2,-2.030908167E-1,9.890133858E0
1.881682102E0,-3.888336942E-2,-2.126621157E-1,9.902098656E0
1.884126737E0,-2.691925503E-2,-1.935195327E-1,9.894919395E0
1.886572102E0,-1.974078640E-2,-1.791625917E-1,9.885348320E0
1.889016685E0,-3.409772366E-2,-2.006980032E-1,9.878170013E0
1.891460435E0,-3.409772366E-2,-1.911267042E-1,9.873384476E0
1.893905071E0,-2.931207791E-2,-1.935195327E-1,9.875777245E0
1.896350435E0,-2.691925503E-2,-1.767697781E-1,9.882955551E0
1.898795019E0,-4.366901144E-2,-1.839482337E-1,9.863813400E0
1.901238717E0,-2.452643216E-2,-2.006980032E-1,9.875777245E0
1.903683352E0,-2.213360928E-2,-1.887338907E-1,9.890133858E0
1.906128717E0,-3.649054468E-2,-1.935195327E-1,9.887741089E0
1.908573300E0,-4.845465720E-2,-1.887338907E-1,9.885348320E0
1.911017050E0,-4.845465720E-2,-1.983051747E-1,9.894919395E0
1.913461685E0,-3.170489892E-2,-2.078764737E-1,9.878170013E0
1.915907050E0,-4.127619043E-2,-1.911267042E-1,9.911669731E0
1.918351633E0,-2.452643216E-2,-1.911267042E-1,9.882955551E0
1.920795331E0,-2.213360928E-2,-1.911267042E-1,9.892526627E0
1.923239967E0,-2.452643216E-2,-1.839482337E-1,9.897313118E0
1.925685331E0,-4.606183618E-2,-1.935195327E-1,9.887741089E0
1.928129915E0,-3.170489892E-2,-1.743769497E-1,9.890133858E0
1.930573665E0,-2.452643216E-2,-2.006980032E-1,9.904491425E0
1.933018300E0,-1.974078640E-2,-1.863410622E-1,9.894919395E0
1.935463665E0,-4.606183618E-2,-1.959123611E-1,9.887741089E0
1.937908144E0,-4.606183618E-2,-1.935195327E-1,9.890133858E0
1.940351946E0,-2.931207791E-2,-1.959123611E-1,9.921240807E0
1.942796581E0,-1.734796353E-2,-2.030908167E-1,9.875777245E0
1.945241946E0,-1.734796353E-2,-2.030908167E-1,9.873384476E0
1.947686529E0,-6.071787328E-2,-1.815554202E-1,9.892526627E0
1.950130279E0,-4.127619043E-2,-2.054836452E-1,9.894919395E0
1.952574862E0,-3.409772366E-2,-1.815554202E-1,9.902098656E0
1.955020279E0,-1.016949583E-2,-1.983051747E-1,9.902098656E0
1.957464758E0,-2.931207791E-2,-1.983051747E-1,9.878170013E0
1.959908560E0,-5.324030295E-2,-1.863410622E-1,9.882955551E0
1.962353196E0,-4.366901144E-2,-1.959123611E-1,9.878170013E0
1.964798560E0,-4.127619043E-2,-1.935195327E-1,9.899705887E0
1.967243144E0,-1.974078640E-2,-2.006980032E-1,9.897313118E0
1.969686894E0,-3.170489892E-2,-2.174477577E-1,9.887741089E0
1.972131477E0,-3.170489892E-2,-2.054836452E-1,9.899705887E0
1.974576894E0,-2.931207791E-2,-1.935195327E-1,9.899705887E0
1.977021373E0,-1.734796353E-2,-1.863410622E-1,9.868598938E0
1.979465175E0,-2.691925503E-2,-1.887338907E-1,9.870991707E0
1.981909810E0,-1.974078640E-2,-1.983051747E-1,9.911669731E0
1.984355175E0,-3.170489892E-2,-1.911267042E-1,9.875777245E0
1.986799758E0,-3.888336942E-2,-1.863410622E-1,9.870991707E0
1.989243456E0,-2.691925503E-2,-1.959123611E-1,9.918848038E0
1.991688092E0,-2.213360928E-2,-1.863410622E-1,9.894919395E0
1.994133456E0,-4.366901144E-2,-1.935195327E-1,9.878170013E0
1.996578040E0,-4.366901144E-2,-2.078764737E-1,9.923633575E0
1.999021790E0,-3.170489892E-2,-2.078764737E-1,9.911669731E0
2.001466425E0,-3.170489892E-2,-1.983051747E-1,9.892526627E0
2.003911790E0,-3.170489892E-2,-1.863410622E-1,9.873384476E0
2.006356373E0,-4.845465720E-2,-1.887338907E-1,9.894919395E0
2.008800071E0,-2.691925503E-2,-1.767697781E-1,9.906884193E0
2.011244706E0,-3.649054468E-2,-1.863410622E-1,9.911669731E0
2.013690071E0,-2.213360928E-2,-2.150549293E-1,9.887741089E0
2.016134654E0,-3.170489892E-2,-2.006980032E-1,9.868598938E0
2.018578404E0,-3.888336942E-2,-2.078764737E-1,9.870991707E0
2.021023040E0,-2.452643216E-2,-1.959123611E-1,9.882955551E0
2.023468404E0,-1.256231871E-2,-2.006980032E-1,9.899705887E0
2.025912987E0,-2.931207791E-2,-1.911267042E-1,9.885348320E0
2.028356685E0,-3.409772366E-2,-2.126621157E-1,9.899705887E0
2.030801321E0,-4.127619043E-2,-1.743769497E-1,9.916455269E0
2.033246685E0,-4.606183618E-2,-1.983051747E-1,9.878170013E0
2.035691269E0,-1.256231871E-2,-2.030908167E-1,9.885348320E0
2.038135019E0,-3.888336942E-2,-2.006980032E-1,9.906884193E0
2.040579654E0,-3.888336942E-2,-1.983051747E-1,9.909276962E0
2.043025019E0,-2.931207791E-2,-1.935195327E-1,9.902098656E0
2.045469602E0,-2.931207791E-2,-1.863410622E-1,9.880562782E0
2.047913300E0,-2.452643216E-2,-1.959123611E-1,9.887741089E0
2.050357935E0,-4.845465720E-2,-1.983051747E-1,9.902098656E0
2.052803300E0,-2.691925503E-2,-1.863410622E-1,9.878170013E0
2.055247883E0,-3.409772366E-2,-1.863410622E-1,9.880562782E0
2.057691633E0,-4.845465720E-2,-1.815554202E-1,9.870991707E0
2.060136269E0,-2.213360928E-2,-2.006980032E-1,9.887741089E0
2.062581633E0,-3.170489892E-2,-2.006980032E-1,9.890133858E0
2.065026112E0,-2.213360928E-2,-2.030908167E-1,9.904491425E0
2.067469915E0,-3.170489892E-2,-1.983051747E-1,9.902098656E0
2.069914550E0,-5.563312769E-2,-1.743769497E-1,9.892526627E0
2.072359915E0,-3.649054468E-2,-1.839482337E-1,9.882955551E0
2.074804498E0,-3.649054468E-2,-1.935195327E-1,9.887741089E0
2.077248248E0,-4.606183618E-2,-2.006980032E-1,9.880562782E0
2.079692831E0,-4.366901144E-2,-1.959123611E-1,9.875777245E0
2.082138248E0,-3.409772366E-2,-1.959123611E-1,9.878170013E0
2.084582727E0,-2.931207791E-2,-1.983051747E-1,9.904491425E0
2.087026529E0,-3.649054468E-2,-2.054836452E-1,9.890133858E0
2.089471165E0,-1.734796353E-2,-2.102692872E-1,9.887741089E0
2.091916529E0,-3.888336942E-2,-2.126621157E-1,9.866206169E0
2.094361112E0,-4.127619043E-2,-1.959123611E-1,9.887741089E0
2.096804810E0,-1.734796353E-2,-1.887338907E-1,9.894919395E0
2.099249446E0,-1.974078640E-2,-1.887338907E-1,9.894919395E0
2.101694810E0,-2.931207791E-2,-1.911267042E-1,9.885348320E0
2.104139394E0,-4.606183618E-2,-1.839482337E-1,9.902098656E0
2.106583144E0,-3.409772366E-2,-2.246262282E-1,9.904491425E0
2.109027779E0,-4.606183618E-2,-1.959123611E-1,9.880562782E0
2.111473144E0,-2.931207791E-2,-1.887338907E-1,9.890133858E0
2.113917727E0,-3.170489892E-2,-1.983051747E-1,9.894919395E0
2.116361425E0,-1.495514158E-2,-2.078764737E-1,9.878170013E0
2.118806060E0,-2.213360928E-2,-2.126621157E-1,9.866206169E0
2.121251425E0,-2.931207791E-2,-1.863410622E-1,9.870991707E0
2.123696008E0,-2.931207791E-2,-2.054836452E-1,9.894919395E0
2.126139758E0,-2.452643216E-2,-1.935195327E-1,9.894919395E0
2.128584394E0,-2.931207791E-2,-1.815554202E-1,9.859027863E0
2.131029758E0,-2.691925503E-2,-1.863410622E-1,9.911669731E0
2.133474342E0,-2.931207791E-2,-2.054836452E-1,9.892526627E0
2.135918040E0,-4.127619043E-2,-1.935195327E-1,9.880562782E0
2.138362675E0,-1.734796353E-2,-2.150549293E-1,9.928419113E0
2.140808040E0,-1.974078640E-2,-1.935195327E-1,9.892526627E0
2.143252623E0,-2.931207791E-2,-1.911267042E-1,9.861420631E0
2.145696373E0,-3.409772366E-2,-1.935195327E-1,9.861420631E0
2.148141008E0,-2.691925503E-2,-1.815554202E-1,9.885348320E0
2.150586373E0,-2.931207791E-2,-1.791625917E-1,9.894919395E0
2.153030956E0,-1.974078640E-2,-2.054836452E-1,9.882955551E0
2.155474654E0,-3.649054468E-2,-2.054836452E-1,9.880562782E0
2.157919290E0,-1.256231871E-2,-1.935195327E-1,9.902098656E0
2.160364654E0,-1.495514158E-2,-1.815554202E-1,9.870991707E0
2.162809237E0,-2.931207791E-2,-1.935195327E-1,9.897313118E0
2.165252987E0,-2.931207791E-2,-1.911267042E-1,9.899705887E0
2.167697623E0,-3.888336942E-2,-2.150549293E-1,9.902098656E0
2.170142987E0,-3.649054468E-2,-2.102692872E-1,9.909276962E0
2.172587467E0,-1.734796353E-2,-2.078764737E-1,9.906884193E0
2.175031269E0,-2.931207791E-2,-2.126621157E-1,9.892526627E0
2.177475904E0,-2.213360928E-2,-1.839482337E-1,9.875777245E0
2.179921269E0,-2.931207791E-2,-2.078764737E-1,9.899705887E0
2.182365852E0,-3.170489892E-2,-1.863410622E-1,9.914062500E0
2.184809602E0,-2.691925503E-2,-2.030908167E-1,9.890133858E0
2.187254185E0,-3.888336942E-2,-1.695913076E-1,9.868598938E0
2.189699602E0,-3.649054468E-2,-1.887338907E-1,9.899705887E0
2.192144081E0,-3.888336942E-2,-2.054836452E-1,9.897313118E0
2.194587883E0,-2.931207791E-2,-1.983051747E-1,9.873384476E0
2.197032519E0,-4.366901144E-2,-1.935195327E-1,9.885348320E0
2.199477883E0,-3.409772366E-2,-1.935195327E-1,9.914062500E0
2.201922467E0,-2.691925503E-2,-1.959123611E-1,9.887741089E0
2.204366165E0,-3.409772366E-2,-2.150549293E-1,9.897313118E0
2.206810800E0,-4.127619043E-2,-2.006980032E-1,9.894919395E0
2.209256165E0,-2.213360928E-2,-2.030908167E-1,9.899705887E0
2.211700748E0,-3.170489892E-2,-1.815554202E-1,9.899705887E0
2.214144498E0,-4.366901144E-2,-2.006980032E-1,9.897313118E0
2.216589133E0,-4.127619043E-2,-1.887338907E-1,9.887741089E0
2.219034498E0,-3.170489892E-2,-1.935195327E-1,9.878170013E0
2.221479081E0,-3.170489892E-2,-1.959123611E-1,9.906884193E0
2.223922779E0,-4.606183618E-2,-2.030908167E-1,9.897313118E0
2.226367415E0,-1.974078640E-2,-1.863410622E-1,9.897313118E0
2.228812779E0,-2.452643216E-2,-1.983051747E-1,9.890133858E0
2.231257362E0,-1.734796353E-2,-1.935195327E-1,9.873384476E0
2.233701112E0,-2.452643216E-2,-2.054836452E-1,9.902098656E0
2.236145748E0,-2.213360928E-2,-1.959123611E-1,9.870991707E0
2.238591112E0,-2.691925503E-2,-1.863410622E-1,9.875777245E0
2.241035696E0,-5.084748194E-2,-1.959123611E-1,9.878170013E0
2.243479394E0,-1.974078640E-2,-1.911267042E-1,9.868598938E0
2.245924029E0,-1.974078640E-2,-2.006980032E-1,9.868598938E0
2.248369394E0,-5.084748194E-2,-2.006980032E-1,9.890133858E0
2.250813977E0,-2.691925503E-2,-1.959123611E-1,9.868598938E0
2.253257727E0,-2.452643216E-2,-1.743769497E-1,9.887741089E0
2.255702362E0,-2.213360928E-2,-1.839482337E-1,9.909276962E0
2.258147727E0,-2.931207791E-2,-2.150549293E-1,9.899705887E0
2.260592310E0,-4.127619043E-2,-1.863410622E-1,9.880562782E0
2.263036008E0,-3.649054468E-2,-1.815554202E-1,9.897313118E0
2.265480644E0,-3.649054468E-2,-1.719841212E-1,9.892526627E0
2.267926008E0,-5.084748194E-2,-1.959123611E-1,9.880562782E0
2.270370592E0,-2.691925503E-2,-1.767697781E-1,9.885348320E0
2.272814342E0,-3.649054468E-2,-2.006980032E-1,9.902098656E0
2.275258977E0,-4.127619043E-2,-1.887338907E-1,9.897313118E0
2.277704342E0,-3.649054468E-2,-1.983051747E-1,9.887741089E0
2.280148821E0,-3.170489892E-2,-1.983051747E-1,9.882955551E0
2.282592623E0,-1.974078640E-2,-2.006980032E-1,9.892526627E0
2.285037258E0,-4.127619043E-2,-1.887338907E-1,9.909276962E0
2.287482623E0,-4.366901144E-2,-2.030908167E-1,9.882955551E0
2.289927206E0,-3.888336942E-2,-1.911267042E-1,9.887741089E0
2.292370956E0,-1.495514158E-2,-2.102692872E-1,9.892526627E0
2.294815540E0,-3.170489892E-2,-1.983051747E-1,9.882955551E0
2.297260956E0,-2.452643216E-2,-1.839482337E-1,9.885348320E0
2.299705435E0,-2.931207791E-2,-2.078764737E-1,9.897313118E0
2.302149237E0,-3.649054468E-2,-1.887338907E-1,9.856635094E0
2.304593873E0,-2.931207791E-2,-1.935195327E-1,9.875777245E0
2.307039237E0,-2.213360928E-2,-2.006980032E-1,9.866206169E0
2.309483821E0,-3.409772366E-2,-1.791625917E-1,9.856635094E0
2.311927519E0,-3.649054468E-2,-1.911267042E-1,9.868598938E0
2.314372154E0,-2.452643216E-2,-2.078764737E-1,9.894919395E0
2.316817519E0,-3.170489892E-2,-2.054836452E-1,9.882955551E0
2.319262102E0,-2.931207791E-2,-1.935195327E-1,9.880562782E0
2.321705852E0,-2.213360928E-2,-1.983051747E-1,9.873384476E0
2.324150487E0,-1.734796353E-2,-2.054836452E-1,9.890133858E0
2.326595852E0,-3.649054468E-2,-2.006980032E-1,9.894919395E0
2.329040435E0,-3.888336942E-2,-2.078764737E-1,9.890133858E0
2.331484133E0,-3.409772366E-2,-1.863410622E-1,9.892526627E0
2.333928769E0,-2.213360928E-2,-1.935195327E-1,9.892526627E0
2.336374133E0,-3.170489892E-2,-1.983051747E-1,9.885348320E0
2.338818717E0,-1.495514158E-2,-2.102692872E-1,9.902098656E0
2.341262467E0,-3.649054468E-2,-2.006980032E-1,9.887741089E0
2.343707102E0,-3.888336942E-2,-1.815554202E-1,9.890133858E0
2.346152467E0,-2.452643216E-2,-1.983051747E-1,9.902098656E0
2.348597050E0,-1.974078640E-2,-1.887338907E-1,9.880562782E0
2.351040748E0,-1.734796353E-2,-1.839482337E-1,9.870991707E0
2.353485383E0,-5.383851007E-3,-1.743769497E-1,9.885348320E0
2.355930748E0,-2.691925503E-2,-1.791625917E-1,9.914062500E0
2.358375331E0,-2.691925503E-2,-1.935195327E-1,9.868598938E0
2.360819081E0,-3.649054468E-2,-2.054836452E-1,9.880562782E0
2.363263717E0,-4.606183618E-2,-1.791625917E-1,9.906884193E0
2.365709081E0,-4.366901144E-2,-1.935195327E-1,9.902098656E0
2.368153665E0,-1.974078640E-2,-1.959123611E-1,9.882955551E0
2.370597362E0,-2.213360928E-2,-2.030908167E-1,9.880562782E0
2.373041998E0,-7.776673418E-3,-2.030908167E-1,9.902098656E0
2.375487362E0,-2.931207791E-2,-1.959123611E-1,9.878170013E0
2.377931946E0,-5.383851007E-3,-1.911267042E-1,9.887741089E0
2.380375696E0,-3.409772366E-2,-2.054836452E-1,9.909276962E0
2.382820279E0,-2.213360928E-2,-1.911267042E-1,9.902098656E0
2.385265696E0,-4.845465720E-2,-2.054836452E-1,9.897313118E0
2.387710175E0,-4.127619043E-2,-1.959123611E-1,9.878170013E0
2.390153977E0,-3.649054468E-2,-1.983051747E-1,9.897313118E0
2.392598612E0,-3.888336942E-2,-2.054836452E-1,9.890133858E0
2.395043977E0,-3.409772366E-2,-1.911267042E-1,9.873384476E0
2.397488560E0,-1.495514158E-2,-1.719841212E-1,9.909276962E0
2.399932310E0,-3.649054468E-2,-1.935195327E-1,9.894919395E0
2.402376894E0,-2.691925503E-2,-2.006980032E-1,9.899705887E0
2.404822258E0,-1.974078640E-2,-2.030908167E-1,9.878170013E0
2.407266842E0,-4.127619043E-2,-1.959123611E-1,9.887741089E0
2.409710592E0,-2.691925503E-2,-2.006980032E-1,9.875777245E0
2.412155227E0,-2.691925503E-2,-1.959123611E-1,9.882955551E0
2.414600592E0,-2.931207791E-2,-2.078764737E-1,9.899705887E0
2.417045175E0,-1.734796353E-2,-2.006980032E-1,9.890133858E0
2.419488873E0,-4.606183618E-2,-1.935195327E-1,9.894919395E0
2.421933508E0,-1.974078640E-2,-2.198405862E-1,9.875777245E0
2.424378873E0,-1.974078640E-2,-2.078764737E-1,9.902098656E0
2.426823456E0,-3.170489892E-2,-1.983051747E-1,9.885348320E0
2.429267206E0,-3.649054468E-2,-1.887338907E-1,9.873384476E0
2.431711842E0,-3.888336942E-2,-2.054836452E-1,9.890133858E0
2.434157206E0,-4.127619043E-2,-2.078764737E-1,9.904491425E0
2.436601790E0,-1.734796353E-2,-2.006980032E-1,9.863813400E0
2.439045487E0,-2.452643216E-2,-1.887338907E-1,9.875777245E0
2.441490123E0,-2.213360928E-2,-1.911267042E-1,9.882955551E0
2.443935487E0,-3.409772366E-2,-1.887338907E-1,9.866206169E0
2.446380071E0,-2.931207791E-2,-1.959123611E-1,9.904491425E0
2.448823821E0,-3.409772366E-2,-2.030908167E-1,9.882955551E0
2.451268456E0,-3.170489892E-2,-2.006980032E-1,9.868598938E0
2.453713821E0,-3.170489892E-2,-2.006980032E-1,9.866206169E0
2.456158404E0,-3.888336942E-2,-1.983051747E-1,9.906884193E0
2.458602102E0,-1.974078640E-2,-1.887338907E-1,9.890133858E0
2.461046737E0,-3.649054468E-2,-1.719841212E-1,9.868598938E0
2.463492102E0,-3.649054468E-2,-1.935195327E-1,9.892526627E0
2.465936685E0,-3.170489892E-2,-1.887338907E-1,9.904491425E0
2.468380435E0,-1.974078640E-2,-1.983051747E-1,9.856635094E0
2.470825019E0,-2.931207791E-2,-1.911267042E-1,9.887741089E0
2.473270435E0,-2.452643216E-2,-1.671984792E-1,9.904491425E0
2.475714915E0,-2.691925503E-2,-1.863410622E-1,9.899705887E0
2.478158717E0,-2.452643216E-2,-1.935195327E-1,9.892526627E0
2.480603352E0,-4.127619043E-2,-1.791625917E-1,9.892526627E0
2.483048717E0,-4.366901144E-2,-1.839482337E-1,9.890133858E0
2.485493300E0,-2.931207791E-2,-1.839482337E-1,9.887741089E0
2.487937050E0,-2.452643216E-2,-2.198405862E-1,9.890133858E0
2.490381633E0,-3.409772366E-2,-1.959123611E-1,9.918848038E0
2.492827050E0,-4.127619043E-2,-1.983051747E-1,9.885348320E0
2.495271529E0,-1.974078640E-2,-2.006980032E-1,9.909276962E0
2.497715331E0,-1.974078640E-2,-2.030908167E-1,9.894919395E0
2.500159967E0,-2.931207791E-2,-1.767697781E-1,9.880562782E0
2.502605331E0,-2.931207791E-2,-2.078764737E-1,9.892526627E0
2.505049915E0,-1.734796353E-2,-1.935195327E-1,9.923633575E0
2.507493612E0,-7.776673418E-3,-2.006980032E-1,9.882955551E0
2.509938248E0,-1.974078640E-2,-2.054836452E-1,9.899705887E0
2.512383612E0,-3.409772366E-2,-2.174477577E-1,9.868598938E0
2.514828196E0,-1.495514158E-2,-1.983051747E-1,9.906884193E0
2.517271946E0,-2.931207791E-2,-1.815554202E-1,9.882955551E0
2.519716581E0,-3.409772366E-2,-2.030908167E-1,9.870991707E0
2.522161946E0,-5.324030295E-2,-1.935195327E-1,9.887741089E0
2.524606529E0,-2.931207791E-2,-1.863410622E-1,9.887741089E0
2.527050227E0,-3.409772366E-2,-2.006980032E-1,9.875777245E0
2.529494862E0,-4.366901144E-2,-1.959123611E-1,9.866206169E0
2.531940227E0,-2.213360928E-2,-1.959123611E-1,9.890133858E0
2.534384810E0,-2.931207791E-2,-2.030908167E-1,9.882955551E0
2.536828560E0,-4.127619043E-2,-1.815554202E-1,9.875777245E0
2.539273196E0,-4.366901144E-2,-1.863410622E-1,9.887741089E0
2.541718560E0,-1.734796353E-2,-1.887338907E-1,9.880562782E0
2.544163144E0,-3.649054468E-2,-1.887338907E-1,9.878170013E0
2.546606842E0,-6.071787328E-2,-1.959123611E-1,9.909276962E0
2.549051477E0,-2.213360928E-2,-2.006980032E-1,9.914062500E0
2.551496842E0,-2.931207791E-2,-1.959123611E-1,9.906884193E0
2.553941425E0,-1.974078640E-2,-2.078764737E-1,9.914062500E0
2.556385175E0,-4.127619043E-2,-1.983051747E-1,9.906884193E0
2.558829758E0,-2.691925503E-2,-1.743769497E-1,9.894919395E0
2.561275175E0,-2.691925503E-2,-1.983051747E-1,9.894919395E0
2.563719654E0,-3.888336942E-2,-2.006980032E-1,9.899705887E0
2.566163456E0,-2.452643216E-2,-2.030908167E-1,9.890133858E0
2.568608092E0,-2.691925503E-2,-1.791625917E-1,9.880562782E0
2.571053456E0,-3.649054468E-2,-1.887338907E-1,9.914062500E0
2.573498040E0,-2.931207791E-2,-1.935195327E-1,9.902098656E0
2.575941790E0,-3.409772366E-2,-1.815554202E-1,9.894919395E0
2.578386373E0,-4.366901144E-2,-1.839482337E-1,9.878170013E0
2.580831790E0,-5.084748194E-2,-1.791625917E-1,9.890133858E0
2.583276373E0,-1.974078640E-2,-2.150549293E-1,9.892526627E0
2.585720071E0,-1.495514158E-2,-1.935195327E-1,9.897313118E0
2.588164706E0,-3.649054468E-2,-1.767697781E-1,9.878170013E0
2.590610071E0,-1.974078640E-2,-1.887338907E-1,9.875777245E0
2.593054654E0,-7.776673418E-3,-1.839482337E-1,9.902098656E0
2.595498352E0,-2.691925503E-2,-1.935195327E-1,9.870991707E0
2.597942987E0,-1.974078640E-2,-2.054836452E-1,9.890133858E0
2.600388352E0,-2.691925503E-2,-2.102692872E-1,9.906884193E0
2.602832935E0,-4.606183618E-2,-1.983051747E-1,9.885348320E0
2.605276685E0,-2.691925503E-2,-2.006980032E-1,9.894919395E0
2.607721321E0,-2.213360928E-2,-2.246262282E-1,9.863813400E0
2.610166685E0,-2.931207791E-2,-2.006980032E-1,9.894919395E0
2.612611269E0,-3.170489892E-2,-1.983051747E-1,9.882955551E0
2.615054967E0,-3.170489892E-2,-1.815554202E-1,9.892526627E0
2.617499602E0,-3.170489892E-2,-2.006980032E-1,9.887741089E0
2.619944967E0,-3.888336942E-2,-1.863410622E-1,9.866206169E0
2.622389550E0,-4.366901144E-2,-1.719841212E-1,9.890133858E0
2.624833300E0,-3.409772366E-2,-1.719841212E-1,9.904491425E0
2.627277935E0,-4.366901144E-2,-1.767697781E-1,9.892526627E0
2.629723300E0,-3.649054468E-2,-1.983051747E-1,9.875777245E0
2.632167883E0,-6.311069429E-2,-1.863410622E-1,9.921240807E0
2.634611581E0,-2.691925503E-2,-1.983051747E-1,9.890133858E0
2.637056217E0,-7.776673418E-3,-2.054836452E-1,9.909276962E0
2.639501581E0,-1.256231871E-2,-1.791625917E-1,9.885348320E0
2.641946165E0,-1.974078640E-2,-1.887338907E-1,9.875777245E0
2.644389915E0,-3.170489892E-2,-2.054836452E-1,9.878170013E0
2.646834498E0,-4.127619043E-2,-1.911267042E-1,9.892526627E0
2.649279915E0,-3.888336942E-2,-2.006980032E-1,9.897313118E0
2.651724394E0,-3.170489892E-2,-1.863410622E-1,9.856635094E0
2.654168196E0,-4.127619043E-2,-1.815554202E-1,9.870991707E0
2.656612831E0,-4.127619043E-2,-2.006980032E-1,9.880562782E0
2.659058196E0,-2.691925503E-2,-2.006980032E-1,9.875777245E0
2.661502779E0,-2.452643216E-2,-2.006980032E-1,9.880562782E0
2.663946529E0,-3.409772366E-2,-2.006980032E-1,9.875777245E0
2.666391112E0,-3.409772366E-2,-1.887338907E-1,9.918848038E0
2.668836477E0,-1.734796353E-2,-1.887338907E-1,9.880562782E0
2.671281060E0,-3.409772366E-2,-2.054836452E-1,9.890133858E0
2.673724810E0,-2.691925503E-2,-1.959123611E-1,9.870991707E0
2.676169446E0,-3.409772366E-2,-2.006980032E-1,9.894919395E0
2.678614810E0,-3.170489892E-2,-2.030908167E-1,9.875777245E0
2.681059394E0,-2.452643216E-2,-1.983051747E-1,9.894919395E0
2.683503092E0,-3.409772366E-2,-1.983051747E-1,9.875777245E0
2.685947727E0,-1.974078640E-2,-1.935195327E-1,9.890133858E0
2.688393092E0,-3.409772366E-2,-1.935195327E-1,9.885348320E0
2.690837675E0,-2.452643216E-2,-1.959123611E-1,9.904491425E0
2.693281425E0,-4.845465720E-2,-1.983051747E-1,9.887741089E0
2.695726060E0,-1.974078640E-2,-1.887338907E-1,9.887741089E0
2.698171425E0,-3.170489892E-2,-2.198405862E-1,9.892526627E0
2.700616008E0,-2.691925503E-2,-1.959123611E-1,9.899705887E0
2.703059706E0,-3.888336942E-2,-1.959123611E-1,9.882955551E0
2.705504342E0,-2.452643216E-2,-1.959123611E-1,9.887741089E0
2.707949706E0,-3.409772366E-2,-1.791625917E-1,9.887741089E0
2.710394290E0,-1.495514158E-2,-1.767697781E-1,9.880562782E0
2.712838040E0,-3.409772366E-2,-1.743769497E-1,9.885348320E0
2.715282675E0,-4.366901144E-2,-1.983051747E-1,9.904491425E0
2.717728040E0,-3.170489892E-2,-1.911267042E-1,9.892526627E0
2.720172623E0,-4.606183618E-2,-1.983051747E-1,9.902098656E0
2.722616321E0,-4.366901144E-2,-1.839482337E-1,9.870991707E0
2.725060956E0,-4.366901144E-2,-2.054836452E-1,9.882955551E0
2.727506321E0,-4.127619043E-2,-2.174477577E-1,9.875777245E0
2.729950904E0,-4.366901144E-2,-2.006980032E-1,9.885348320E0
2.732394654E0,-3.888336942E-2,-1.887338907E-1,9.897313118E0
2.734839290E0,-3.409772366E-2,-2.030908167E-1,9.902098656E0
2.737284654E0,-4.845465720E-2,-1.839482337E-1,9.873384476E0
2.739729237E0,-3.649054468E-2,-1.935195327E-1,9.909276962E0
2.742172935E0,-3.888336942E-2,-1.839482337E-1,9.875777245E0
2.744617571E0,-1.256231871E-2,-1.911267042E-1,9.880562782E0
2.747062935E0,-3.409772366E-2,-1.839482337E-1,9.902098656E0
2.749507519E0,-5.383851007E-3,-1.959123611E-1,9.904491425E0
2.751951269E0,-2.691925503E-2,-1.839482337E-1,9.892526627E0
2.754395852E0,-2.213360928E-2,-1.863410622E-1,9.866206169E0
2.756841269E0,-1.734796353E-2,-2.006980032E-1,9.892526627E0
2.759285748E0,-2.452643216E-2,-1.887338907E-1,9.880562782E0
2.761729550E0,-2.931207791E-2,-1.959123611E-1,9.866206169E0
2.764174185E0,-3.170489892E-2,-1.959123611E-1,9.861420631E0
2.766619550E0,-2.931207791E-2,-1.959123611E-1,9.890133858E0
2.769064133E0,-3.649054468E-2,-1.887338907E-1,9.878170013E0
2.771507831E0,-2.931207791E-2,-2.054836452E-1,9.894919395E0
2.773952467E0,-2.452643216E-2,-1.839482337E-1,9.882955551E0
2.776397831E0,-3.170489892E-2,-1.911267042E-1,9.906884193E0
2.778842415E0,-3.170489892E-2,-1.911267042E-1,9.894919395E0
2.781286165E0,-3.649054468E-2,-1.887338907E-1,9.894919395E0
2.783730800E0,-3.409772366E-2,-1.863410622E-1,9.902098656E0
2.786176165E0,-3.170489892E-2,-1.911267042E-1,9.906884193E0
2.788620748E0,-3.170489892E-2,-1.911267042E-1,9.926026344E0
2.791064446E0,-3.409772366E-2,-2.078764737E-1,9.892526627E0
2.793509081E0,-2.931207791E-2,-2.054836452E-1,9.899705887E0
2.795954446E0,-3.409772366E-2,-1.887338907E-1,9.875777245E0
2.798399029E0,-3.409772366E-2,-1.839482337E-1,9.882955551E0
2.800842779E0,-2.931207791E-2,-2.078764737E-1,9.882955551E0
2.803287415E0,-2.452643216E-2,-1.935195327E-1,9.878170013E0
2.805732779E0,-4.845465720E-2,-1.935195327E-1,9.897313118E0
2.808177362E0,-1.974078640E-2,-1.959123611E-1,9.885348320E0
2.810621060E0,-3.409772366E-2,-2.006980032E-1,9.880562782E0
2.813065696E0,-2.452643216E-2,-1.911267042E-1,9.909276962E0
2.815511060E0,-3.649054468E-2,-1.911267042E-1,9.894919395E0
2.817955644E0,-3.409772366E-2,-2.006980032E-1,9.890133858E0
2.820399394E0,-3.888336942E-2,-2.150549293E-1,9.878170013E0
2.822843977E0,-2.691925503E-2,-1.959123611E-1,9.890133858E0
2.825289394E0,-2.691925503E-2,-1.767697781E-1,9.875777245E0
2.827733873E0,-4.845465720E-2,-1.887338907E-1,9.885348320E0
2.830177675E0,-4.127619043E-2,-1.911267042E-1,9.902098656E0
2.832622310E0,-5.324030295E-2,-1.791625917E-1,9.885348320E0
2.835067675E0,-3.170489892E-2,-1.911267042E-1,9.878170013E0
2.837512258E0,-1.495514158E-2,-1.863410622E-1,9.887741089E0
2.839956008E0,-2.691925503E-2,-1.911267042E-1,9.904491425E0
2.842400592E0,-2.931207791E-2,-1.839482337E-1,9.885348320E0
2.844845956E0,-3.409772366E-2,-2.030908167E-1,9.906884193E0
2.847290540E0,-3.888336942E-2,-1.863410622E-1,9.904491425E0
2.849734290E0,-2.213360928E-2,-2.030908167E-1,9.897313118E0
2.852178925E0,-3.170489892E-2,-1.839482337E-1,9.880562782E0
2.854624290E0,-1.495514158E-2,-1.983051747E-1,9.904491425E0
2.857068873E0,-4.127619043E-2,-1.959123611E-1,9.890133858E0
2.859512571E0,-2.931207791E-2,-1.959123611E-1,9.902098656E0
2.861957206E0,-2.691925503E-2,-2.030908167E-1,9.894919395E0
2.864402571E0,-3.649054468E-2,-2.006980032E-1,9.902098656E0
2.866847154E0,-2.691925503E-2,-2.054836452E-1,9.897313118E0
2.869290904E0,-2.213360928E-2,-1.959123611E-1,9.892526627E0
2.871735540E0,-1.495514158E-2,-1.935195327E-1,9.882955551E0
2.874180904E0,-2.931207791E-2,-2.054836452E-1,9.894919395E0
2.876625487E0,-2.931207791E-2,-1.887338907E-1,9.892526627E0
2.879069185E0,-3.170489892E-2,-1.983051747E-1,9.882955551E0
2.881513821E0,-3.409772366E-2,-1.983051747E-1,9.902098656E0
2.883959185E0,-2.213360928E-2,-1.959123611E-1,9.863813400E0
2.886403769E0,-2.991028363E-3,-1.983051747E-1,9.880562782E0
2.888847519E0,-3.649054468E-2,-1.839482337E-1,9.880562782E0
2.891292154E0,-3.409772366E-2,-2.078764737E-1,9.902098656E0
2.893737519E0,-3.409772366E-2,-1.839482337E-1,9.902098656E0
2.896182102E0,-2.691925503E-2,-2.006980032E-1,9.894919395E0
2.898625800E0,-1.974078640E-2,-1.935195327E-1,9.906884193E0
2.901070435E0,-3.170489892E-2,-1.671984792E-1,9.880562782E0
2.903515800E0,-3.649054468E-2,-1.983051747E-1,9.890133858E0
2.905960383E0,-3.409772366E-2,-1.863410622E-1,9.882955551E0
2.908404133E0,-3.409772366E-2,-1.815554202E-1,9.892526627E0
2.910848717E0,-4.366901144E-2,-1.935195327E-1,9.870991707E0
2.913294133E0,-3.888336942E-2,-1.935195327E-1,9.892526627E0
2.915738612E0,-7.776673418E-3,-1.863410622E-1,9.887741089E0
2.918182415E0,-3.409772366E-2,-1.935195327E-1,9.866206169E0
2.920627050E0,-3.888336942E-2,-1.863410622E-1,9.897313118E0
2.923072415E0,-4.366901144E-2,-2.006980032E-1,9.897313118E0
2.925516998E0,-4.845465720E-2,-2.102692872E-1,9.866206169E0
2.927960696E0,-3.409772366E-2,-1.911267042E-1,9.880562782E0
2.930405331E0,-3.170489892E-2,-1.791625917E-1,9.875777245E0
2.932850696E0,-1.974078640E-2,-2.006980032E-1,9.909276962E0
2.935295279E0,-1.256231871E-2,-1.815554202E-1,9.866206169E0
2.937739029E0,-3.888336942E-2,-1.887338907E-1,9.894919395E0
2.940183665E0,-2.931207791E-2,-2.054836452E-1,9.863813400E0
2.942629029E0,-3.888336942E-2,-2.030908167E-1,9.894919395E0
2.945073612E0,-3.649054468E-2,-1.935195327E-1,9.887741089E0
2.947517310E0,-3.170489892E-2,-1.911267042E-1,9.878170013E0
2.949961946E0,-3.409772366E-2,-1.983051747E-1,9.890133858E0
2.952407310E0,-3.170489892E-2,-1.935195327E-1,9.882955551E0
2.954851894E0,-3.888336942E-2,-1.935195327E-1,9.875777245E0
2.957295644E0,-4.127619043E-2,-1.911267042E-1,9.892526627E0
2.959740279E0,-1.016949583E-2,-2.006980032E-1,9.875777245E0
2.962185644E0,-3.409772366E-2,-1.935195327E-1,9.904491425E0
2.964630227E0,-3.170489892E-2,-2.006980032E-1,9.923633575E0
2.967073925E0,-2.452643216E-2,-2.030908167E-1,9.892526627E0
2.969518560E0,-2.691925503E-2,-1.815554202E-1,9.911669731E0
2.971963925E0,-3.170489892E-2,-2.006980032E-1,9.880562782E0
2.974408508E0,-2.213360928E-2,-1.815554202E-1,9.892526627E0
2.976852258E0,-3.170489892E-2,-2.054836452E-1,9.894919395E0
2.979296894E0,-3.649054468E-2,-1.911267042E-1,9.873384476E0
2.981742258E0,-2.452643216E-2,-1.959123611E-1,9.875777245E0
2.984186842E0,-2.452643216E-2,-1.863410622E-1,9.914062500E0
2.986630540E0,-3.649054468E-2,-1.887338907E-1,9.866206169E0
2.989075175E0,-2.931207791E-2,-1.887338907E-1,9.870991707E0
2.991520540E0,-4.127619043E-2,-2.030908167E-1,9.885348320E0
2.993965123E0,-4.127619043E-2,-1.935195327E-1,9.890133858E0
2.996408873E0,-2.691925503E-2,-1.911267042E-1,9.875777245E0
2.998853456E0,-2.213360928E-2,-2.030908167E-1,9.904491425E0
3.001298821E0,-3.409772366E-2,-2.030908167E-1,9.885348320E0
3.003743404E0,-2.213360928E-2,-1.887338907E-1,9.899705887E0
3.006187154E0,-5.084748194E-2,-1.983051747E-1,9.902098656E0
3.008631790E0,-2.452643216E-2,-1.863410622E-1,9.880562782E0
3.011077154E0,-3.888336942E-2,-2.078764737E-1,9.887741089E0
3.013521737E0,-5.324030295E-2,-2.126621157E-1,9.887741089E0
3.015965435E0,-4.606183618E-2,-1.935195327E-1,9.890133858E0
3.018410071E0,-5.084748194E-2,-1.887338907E-1,9.892526627E0
3.020855435E0,-3.888336942E-2,-2.006980032E-1,9.880562782E0
3.023300019E0,-2.452643216E-2,-1.959123611E-1,9.890133858E0
3.025743769E0,-2.213360928E-2,-2.006980032E-1,9.897313118E0
3.028188404E0,-2.452643216E-2,-1.935195327E-1,9.894919395E0
3.030633769E0,-1.016949583E-2,-2.054836452E-1,9.873384476E0
3.033078352E0,-2.452643216E-2,-1.935195327E-1,9.880562782E0
3.035522050E0,-1.734796353E-2,-1.887338907E-1,9.916455269E0
3.037966685E0,-2.691925503E-2,-1.791625917E-1,9.899705887E0
3.040412050E0,-4.366901144E-2,-2.054836452E-1,9.894919395E0
3.042856633E0,-1.495514158E-2,-1.983051747E-1,9.873384476E0
3.045300383E0,-1.734796353E-2,-2.054836452E-1,9.885348320E0
3.047745019E0,-1.495514158E-2,-1.983051747E-1,9.887741089E0
3.050190383E0,-3.409772366E-2,-2.078764737E-1,9.894919395E0
3.052634967E0,-2.691925503E-2,-2.030908167E-1,9.861420631E0
3.055078665E0,-4.127619043E-2,-1.911267042E-1,9.899705887E0
3.057523300E0,-3.170489892E-2,-1.863410622E-1,9.914062500E0
3.059968665E0,-1.256231871E-2,-1.959123611E-1,9.875777245E0
3.062413248E0,-3.170489892E-2,-2.006980032E-1,9.894919395E0
3.064856998E0,-4.366901144E-2,-1.935195327E-1,9.899705887E0
3.067301581E0,-3.888336942E-2,-1.887338907E-1,9.894919395E0
3.069746998E0,-3.649054468E-2,-2.054836452E-1,9.887741089E0
3.072191477E0,-5.084748194E-2,-2.006980032E-1,9.887741089E0
3.074635279E0,-3.170489892E-2,-2.030908167E-1,9.916455269E0
3.077079915E0,-2.931207791E-2,-2.054836452E-1,9.882955551E0
3.079525279E0,-4.127619043E-2,-1.839482337E-1,9.906884193E0
3.081969862E0,-2.452643216E-2,-1.863410622E-1,9.902098656E0
3.084413612E0,-3.170489892E-2,-1.983051747E-1,9.887741089E0
3.086858196E0,-3.409772366E-2,-1.959123611E-1,9.909276962E0
3.089303560E0,-2.213360928E-2,-1.983051747E-1,9.902098656E0
3.091748144E0,-2.213360928E-2,-1.839482337E-1,9.880562782E0
3.094191894E0,-1.734796353E-2,-1.983051747E-1,9.875777245E0
3.096636529E0,-2.213360928E-2,-2.078764737E-1,9.897313118E0
3.099081894E0,-3.888336942E-2,-2.006980032E-1,9.894919395E0
3.101526477E0,-3.409772366E-2,-1.935195327E-1,9.863813400E0
3.103970175E0,-4.127619043E-2,-1.863410622E-1,9.868598938E0
3.106414810E0,-4.606183618E-2,-2.006980032E-1,9.885348320E0
3.108860175E0,-1.256231871E-2,-2.030908167E-1,9.894919395E0
3.111304758E0,-5.084748194E-2,-2.054836452E-1,9.878170013E0
3.113748508E0,-3.888336942E-2,-1.863410622E-1,9.897313118E0
3.116193144E0,-2.452643216E-2,-1.887338907E-1,9.916455269E0
3.118638508E0,-4.606183618E-2,-1.911267042E-1,9.885348320E0
3.121083092E0,-1.256231871E-2,-2.078764737E-1,9.897313118E0
3.123526790E0,-2.931207791E-2,-2.078764737E-1,9.897313118E0
3.125971425E0,-4.366901144E-2,-2.030908167E-1,9.890133858E0
3.128416790E0,-2.931207791E-2,-2.054836452E-1,9.894919395E0
3.130861373E0,-3.409772366E-2,-1.959123611E-1,9.890133858E0
3.133305123E0,-7.776673418E-3,-1.911267042E-1,9.892526627E0
3.135749758E0,-2.452643216E-2,-1.887338907E-1,9.887741089E0
3.138195123E0,-4.366901144E-2,-2.030908167E-1,9.887741089E0
3.140639602E0,-2.691925503E-2,-1.959123611E-1,9.897313118E0
3.143083404E0,-2.931207791E-2,-2.030908167E-1,9.885348320E0
3.145528040E0,-2.691925503E-2,-1.911267042E-1,9.873384476E0
3.147973404E0,-2.691925503E-2,-1.719841212E-1,9.880562782E0
3.150417987E0,-3.649054468E-2,-1.887338907E-1,9.904491425E0
3.152861737E0,-4.366901144E-2,-1.863410622E-1,9.875777245E0
3.155306321E0,-1.734796353E-2,-2.006980032E-1,9.897313118E0
3.157751737E0,-2.691925503E-2,-1.935195327E-1,9.906884193E0
3.160196217E0,-4.127619043E-2,-1.959123611E-1,9.880562782E0
3.162640019E0,-4.127619043E-2,-1.959123611E-1,9.882955551E0
3.165084654E0,-1.495514158E-2,-1.983051747E-1,9.880562782E0
3.167530019E0,-2.452643216E-2,-2.054836452E-1,9.873384476E0
3.169974602E0,-1.734796353E-2,-1.911267042E-1,9.882955551E0
3.172418300E0,-2.691925503E-2,-1.911267042E-1,9.906884193E0
3.174862935E0,-1.734796353E-2,-1.935195327E-1,9.878170013E0
3.177308300E0,-2.691925503E-2,-2.126621157E-1,9.890133858E0
3.179752883E0,-3.170489892E-2,-2.006980032E-1,9.899705887E0
3.182196633E0,-7.776673418E-3,-1.983051747E-1,9.902098656E0
3.184641269E0,-1.256231871E-2,-2.006980032E-1,9.861420631E0
3.187086633E0,-1.734796353E-2,-2.078764737E-1,9.894919395E0
3.189531217E0,-2.931207791E-2,-2.030908167E-1,9.894919395E0
3.191974915E0,-2.452643216E-2,-2.126621157E-1,9.904491425E0
3.194419550E0,-1.974078640E-2,-1.935195327E-1,9.894919395E0
3.196864915E0,-4.127619043E-2,-2.030908167E-1,9.902098656E0
3.199309498E0,-5.324030295E-2,-1.863410622E-1,9.904491425E0
3.201753248E0,-2.931207791E-2,-2.054836452E-1,9.866206169E0
3.204197883E0,-2.213360928E-2,-1.983051747E-1,9.866206169E0
3.206643248E0,-3.649054468E-2,-2.054836452E-1,9.894919395E0
3.209087831E0,-3.888336942E-2,-1.911267042E-1,9.885348320E0
3.211531529E0,-1.495514158E-2,-2.030908167E-1,9.854242325E0
3.213976165E0,-2.691925503E-2,-1.983051747E-1,9.882955551E0
3.216421529E0,-3.409772366E-2,-1.863410622E-1,9.892526627E0
3.218866112E0,-3.170489892E-2,-1.743769497E-1,9.892526627E0
3.221309862E0,-3.649054468E-2,-1.815554202E-1,9.875777245E0
3.223754498E0,-4.366901144E-2,-1.887338907E-1,9.899705887E0
3.226199862E0,-3.170489892E-2,-1.815554202E-1,9.887741089E0
3.228644342E0,-4.127619043E-2,-2.030908167E-1,9.887741089E0
3.231088144E0,-3.649054468E-2,-1.935195327E-1,9.880562782E0
3.233532779E0,-3.170489892E-2,-2.102692872E-1,9.880562782E0
3.235978144E0,-3.888336942E-2,-1.911267042E-1,9.909276962E0
3.238422727E0,-3.170489892E-2,-1.767697781E-1,9.892526627E0
3.240866425E0,-3.649054468E-2,-2.030908167E-1,9.887741089E0
3.243311060E0,-2.452643216E-2,-2.054836452E-1,9.890133858E0
3.245756477E0,-5.324030295E-2,-1.983051747E-1,9.894919395E0
3.248200956E0,-3.409772366E-2,-1.983051747E-1,9.882955551E0
3.250644758E0,-2.931207791E-2,-1.887338907E-1,9.897313118E0
3.253089394E0,-3.170489892E-2,-1.863410622E-1,9.870991707E0
3.255534758E0,-2.213360928E-2,-1.887338907E-1,9.894919395E0
3.257979342E0,-4.366901144E-2,-1.863410622E-1,9.880562782E0
3.260423040E0,-3.409772366E-2,-1.911267042E-1,9.878170013E0
3.262867675E0,-3.409772366E-2,-2.054836452E-1,9.875777245E0
3.265313040E0,-4.127619043E-2,-2.006980032E-1,9.892526627E0
3.267757623E0,-4.127619043E-2,-2.030908167E-1,9.899705887E0
3.270201373E0,-1.495514158E-2,-1.791625917E-1,9.882955551E0
3.272646008E0,-4.606183618E-2,-1.791625917E-1,9.899705887E0
3.275091373E0,-2.931207791E-2,-1.791625917E-1,9.904491425E0
3.277535956E0,-4.127619043E-2,-1.863410622E-1,9.897313118E0
3.279979654E0,-2.213360928E-2,-2.006980032E-1,9.887741089E0
3.282424290E0,-3.409772366E-2,-1.887338907E-1,9.880562782E0
3.284869654E0,-2.931207791E-2,-1.863410622E-1,9.882955551E0
3.287314237E0,-1.974078640E-2,-1.935195327E-1,9.897313118E0
3.289757987E0,-3.649054468E-2,-1.959123611E-1,9.887741089E0
3.292202623E0,-2.691925503E-2,-1.983051747E-1,9.873384476E0
3.294647987E0,-5.832505226E-2,-2.030908167E-1,9.885348320E0
3.297092467E0,-2.452643216E-2,-2.006980032E-1,9.894919395E0
3.299536269E0,-3.649054468E-2,-2.030908167E-1,9.902098656E0
3.301980904E0,-4.127619043E-2,-1.839482337E-1,9.873384476E0
3.304426269E0,-2.691925503E-2,-2.030908167E-1,9.894919395E0
3.306870852E0,-4.127619043E-2,-1.887338907E-1,9.878170013E0
3.309314550E0,-4.606183618E-2,-1.839482337E-1,9.916455269E0
3.311759185E0,-4.127619043E-2,-1.863410622E-1,9.882955551E0
3.314204550E0,-2.213360928E-2,-2.030908167E-1,9.897313118E0
3.316649133E0,-1.974078640E-2,-2.078764737E-1,9.926026344E0
3.319092883E0,-3.170489892E-2,-1.959123611E-1,9.882955551E0
3.321537519E0,-3.649054468E-2,-2.030908167E-1,9.892526627E0
3.323982883E0,-1.495514158E-2,-1.887338907E-1,9.902098656E0
3.326427467E0,-2.213360928E-2,-1.791625917E-1,9.894919395E0
3.328871165E0,-3.409772366E-2,-1.959123611E-1,9.887741089E0
3.331315800E0,-5.084748194E-2,-1.887338907E-1,9.897313118E0
3.333761165E0,-3.649054468E-2,-1.959123611E-1,9.885348320E0
3.336205748E0,-4.606183618E-2,-1.935195327E-1,9.878170013E0
3.338649498E0,-3.170489892E-2,-1.887338907E-1,9.880562782E0
3.341094133E0,-5.084748194E-2,-1.815554202E-1,9.880562782E0
3.343539498E0,-1.734796353E-2,-1.911267042E-1,9.873384476E0
3.345984081E0,-2.691925503E-2,-1.911267042E-1,9.882955551E0
3.348427779E0,-4.366901144E-2,-1.959123611E-1,9.897313118E0
3.350872415E0,-3.409772366E-2,-1.863410622E-1,9.902098656E0
3.353317779E0,-3.649054468E-2,-1.863410622E-1,9.870991707E0
3.355762362E0,-3.170489892E-2,-1.839482337E-1,9.870991707E0
3.358206112E0,-2.452643216E-2,-2.054836452E-1,9.878170013E0
3.360650748E0,-4.127619043E-2,-1.935195327E-1,9.899705887E0
3.363096112E0,-2.691925503E-2,-2.054836452E-1,9.885348320E0
3.365540696E0,-3.170489892E-2,-1.839482337E-1,9.885348320E0
3.367984394E0,-2.931207791E-2,-2.102692872E-1,9.894919395E0
3.370429029E0,-4.127619043E-2,-2.078764737E-1,9.894919395E0
3.372874394E0,-3.888336942E-2,-1.983051747E-1,9.892526627E0
3.375318977E0,-4.845465720E-2,-1.935195327E-1,9.904491425E0
3.377762727E0,-4.366901144E-2,-1.887338907E-1,9.890133858E0
3.380207310E0,-3.649054468E-2,-1.839482337E-1,9.897313118E0
3.382652727E0,-1.974078640E-2,-1.887338907E-1,9.863813400E0
3.385097206E0,-2.931207791E-2,-2.054836452E-1,9.892526627E0
3.387541008E0,-4.127619043E-2,-1.983051747E-1,9.904491425E0
3.389985644E0,-4.606183618E-2,-1.863410622E-1,9.909276962E0
3.392431008E0,-2.452643216E-2,-1.815554202E-1,9.885348320E0
3.394875592E0,-3.170489892E-2,-1.887338907E-1,9.875777245E0
3.397319290E0,-5.084748194E-2,-1.935195327E-1,9.892526627E0
3.399763925E0,-2.213360928E-2,-2.126621157E-1,9.887741089E0
3.402209290E0,-4.127619043E-2,-1.959123611E-1,9.868598938E0
3.404653873E0,-2.213360928E-2,-1.815554202E-1,9.894919395E0
3.407097623E0,-5.383851007E-3,-1.911267042E-1,9.890133858E0
3.409542258E0,-3.888336942E-2,-1.935195327E-1,9.894919395E0
3.411987623E0,-2.691925503E-2,-1.911267042E-1,9.863813400E0
3.414432206E0,-3.409772366E-2,-2.006980032E-1,9.916455269E0
3.416875904E0,-3.649054468E-2,-1.815554202E-1,9.902098656E0
3.419320540E0,-2.931207791E-2,-1.887338907E-1,9.890133858E0
3.421765904E0,-2.931207791E-2,-2.006980032E-1,9.909276962E0
3.424210487E0,-1.974078640E-2,-1.743769497E-1,9.902098656E0
3.426654237E0,-3.649054468E-2,-1.743769497E-1,9.894919395E0
3.429098873E0,-3.649054468E-2,-1.887338907E-1,9.890133858E0
3.431544237E0,-2.213360928E-2,-2.126621157E-1,9.875777245E0
3.433988821E0,-3.649054468E-2,-1.791625917E-1,9.918848038E0
3.436432519E0,-4.366901144E-2,-1.815554202E-1,9.890133858E0
3.438877154E0,-2.691925503E-2,-2.078764737E-1,9.904491425E0
3.441322519E0,-1.495514158E-2,-2.030908167E-1,9.887741089E0
3.443767102E0,-3.888336942E-2,-1.911267042E-1,9.882955551E0
3.446210852E0,-1.734796353E-2,-1.887338907E-1,9.892526627E0
3.448655487E0,-3.170489892E-2,-1.839482337E-1,9.890133858E0
3.451100852E0,-2.691925503E-2,-1.959123611E-1,9.880562782E0
3.453545331E0,-2.931207791E-2,-2.030908167E-1,9.870991707E0
3.455989133E0,-5.563312769E-2,-1.959123611E-1,9.882955551E0
3.458433769E0,-2.691925503E-2,-1.911267042E-1,9.873384476E0
3.460879133E0,-1.734796353E-2,-1.935195327E-1,9.875777245E0
3.463323717E0,-3.170489892E-2,-1.791625917E-1,9.870991707E0
3.465767467E0,-3.170489892E-2,-2.030908167E-1,9.904491425E0
3.468212050E0,-1.734796353E-2,-2.030908167E-1,9.899705887E0
3.470657415E0,-2.931207791E-2,-1.983051747E-1,9.885348320E0
3.473101998E0,-2.213360928E-2,-1.959123611E-1,9.897313118E0
3.475545748E0,-3.170489892E-2,-1.719841212E-1,9.923633575E0
3.477990383E0,-4.366901144E-2,-1.815554202E-1,9.890133858E0
3.480435748E0,-3.409772366E-2,-1.815554202E-1,9.878170013E0
3.482880331E0,-3.170489892E-2,-1.911267042E-1,9.909276962E0
3.485324029E0,-4.127619043E-2,-1.791625917E-1,9.890133858E0
3.487768665E0,-1.974078640E-2,-1.839482337E-1,9.892526627E0
3.490214029E0,-3.170489892E-2,-1.959123611E-1,9.906884193E0
3.492658612E0,-3.409772366E-2,-1.887338907E-1,9.897313118E0
3.495102362E0,-1.495514158E-2,-1.935195327E-1,9.897313118E0
3.497546998E0,-2.931207791E-2,-1.600200087E-1,9.873384476E0
3.499992362E0,-2.213360928E-2,-1.887338907E-1,9.882955551E0
3.502436946E0,-5.383851007E-3,-1.839482337E-1,9.861420631E0
3.504880644E0,-3.649054468E-2,-1.863410622E-1,9.887741089E0
3.507325279E0,-2.691925503E-2,-1.767697781E-1,9.878170013E0
3.509770644E0,-1.734796353E-2,-1.863410622E-1,9.880562782E0
3.512215227E0,-2.931207791E-2,-1.887338907E-1,9.890133858E0
3.514658977E0,-4.366901144E-2,-1.935195327E-1,9.892526627E0
3.517103560E0,-3.170489892E-2,-1.983051747E-1,9.894919395E0
3.519548977E0,-2.213360928E-2,-2.126621157E-1,9.882955551E0
3.521993456E0,-3.409772366E-2,-1.959123611E-1,9.870991707E0
3.524437258E0,-3.649054468E-2,-1.863410622E-1,9.890133858E0
3.526881894E0,-3.409772366E-2,-2.030908167E-1,9.882955551E0
3.529327258E0,-2.213360928E-2,-1.839482337E-1,9.873384476E0
3.531771842E0,-3.888336942E-2,-1.815554202E-1,9.921240807E0
3.534215592E0,-2.931207791E-2,-1.815554202E-1,9.904491425E0
3.536660175E0,-1.734796353E-2,-2.030908167E-1,9.887741089E0
3.539105592E0,-2.452643216E-2,-1.911267042E-1,9.887741089E0
3.541550071E0,-2.213360928E-2,-1.887338907E-1,9.902098656E0
3.543993873E0,-4.366901144E-2,-1.935195327E-1,9.880562782E0
3.546438508E0,-2.691925503E-2,-1.911267042E-1,9.887741089E0
3.548883873E0,-4.845465720E-2,-2.150549293E-1,9.885348320E0
3.551328456E0,-4.366901144E-2,-1.959123611E-1,9.887741089E0
3.553772154E0,-4.366901144E-2,-1.983051747E-1,9.892526627E0
3.556216790E0,-1.974078640E-2,-1.839482337E-1,9.878170013E0
3.558662154E0,-2.452643216E-2,-1.935195327E-1,9.909276962E0
3.561106737E0,-5.982056609E-4,-1.839482337E-1,9.894919395E0
3.563550487E0,-2.931207791E-2,-1.935195327E-1,9.873384476E0
3.565995123E0,-2.213360928E-2,-1.935195327E-1,9.904491425E0
3.568440487E0,-1.734796353E-2,-1.863410622E-1,9.868598938E0
3.570885071E0,-4.606183618E-2,-1.959123611E-1,9.875777245E0
3.573328769E0,-2.691925503E-2,-1.863410622E-1,9.911669731E0
3.575773404E0,-2.213360928E-2,-2.078764737E-1,9.887741089E0
3.578218769E0,-2.691925503E-2,-1.887338907E-1,9.866206169E0
3.580663352E0,-3.888336942E-2,-1.887338907E-1,9.866206169E0
3.583107102E0,-1.734796353E-2,-2.006980032E-1,9.890133858E0
3.585551737E0,-4.606183618E-2,-1.863410622E-1,9.880562782E0
3.587997102E0,-3.888336942E-2,-1.839482337E-1,9.878170013E0
3.590441685E0,-1.734796353E-2,-1.959123611E-1,9.890133858E0
3.592885383E0,-5.084748194E-2,-1.959123611E-1,9.894919395E0
3.595330019E0,-4.606183618E-2,-1.887338907E-1,9.882955551E0
3.597775383E0,-2.931207791E-2,-1.887338907E-1,9.897313118E0
3.600219967E0,-3.649054468E-2,-1.935195327E-1,9.906884193E0
3.602663717E0,-4.845465720E-2,-2.126621157E-1,9.890133858E0
3.605108300E0,-1.256231871E-2,-1.983051747E-1,9.875777245E0
3.607553665E0,-2.452643216E-2,-1.959123611E-1,9.892526627E0
3.609998248E0,-4.366901144E-2,-1.743769497E-1,9.904491425E0
3.612441998E0,-3.170489892E-2,-1.815554202E-1,9.906884193E0
3.614886633E0,-3.409772366E-2,-1.935195327E-1,9.880562782E0
3.617331998E0,-2.931207791E-2,-1.815554202E-1,9.885348320E0
3.619776581E0,-1.974078640E-2,-1.839482337E-1,9.863813400E0
3.622220279E0,-4.606183618E-2,-1.911267042E-1,9.902098656E0
3.624664915E0,-4.127619043E-2,-1.959123611E-1,9.892526627E0
3.627110279E0,-3.888336942E-2,-1.935195327E-1,9.887741089E0
3.629554862E0,-3.170489892E-2,-1.959123611E-1,9.892526627E0
3.631998612E0,-2.452643216E-2,-2.030908167E-1,9.875777245E0
3.634443248E0,-3.649054468E-2,-1.911267042E-1,9.887741089E0
3.636888612E0,-1.256231871E-2,-1.959123611E-1,9.878170013E0
3.639333196E0,-1.974078640E-2,-2.006980032E-1,9.875777245E0
3.641776894E0,-3.649054468E-2,-2.102692872E-1,9.902098656E0
3.644221529E0,-1.016949583E-2,-1.959123611E-1,9.878170013E0
3.646666894E0,-5.383851007E-3,-1.935195327E-1,9.880562782E0
3.649111477E0,-3.409772366E-2,-2.126621157E-1,9.918848038E0
3.651555227E0,-2.213360928E-2,-2.030908167E-1,9.875777245E0
3.653999862E0,-3.409772366E-2,-2.006980032E-1,9.878170013E0
3.656445227E0,-3.649054468E-2,-1.935195327E-1,9.918848038E0
3.658889810E0,-3.409772366E-2,-1.935195327E-1,9.882955551E0
3.661333508E0,-3.170489892E-2,-1.863410622E-1,9.870991707E0
3.663778144E0,-3.649054468E-2,-1.935195327E-1,9.904491425E0
3.666223508E0,-2.691925503E-2,-2.198405862E-1,9.887741089E0
3.668668092E0,-4.366901144E-2,-1.935195327E-1,9.887741089E0
3.671111842E0,-4.127619043E-2,-1.983051747E-1,9.885348320E0
3.673556425E0,-3.888336942E-2,-2.030908167E-1,9.878170013E0
3.676001842E0,-4.606183618E-2,-1.983051747E-1,9.885348320E0
3.678446321E0,-1.734796353E-2,-2.270190418E-1,9.861420631E0
3.680890123E0,-3.409772366E-2,-1.911267042E-1,9.875777245E0
3.683334758E0,-3.888336942E-2,-1.911267042E-1,9.892526627E0
3.685780123E0,-2.452643216E-2,-1.863410622E-1,9.873384476E0
3.688224706E0,-3.409772366E-2,-1.743769497E-1,9.894919395E0
3.690668404E0,-2.691925503E-2,-1.815554202E-1,9.899705887E0
3.693113040E0,-2.691925503E-2,-1.935195327E-1,9.890133858E0
3.695558404E0,-3.888336942E-2,-2.006980032E-1,9.880562782E0
3.698002987E0,-4.127619043E-2,-1.935195327E-1,9.894919395E0
3.700446737E0,-2.691925503E-2,-1.767697781E-1,9.882955551E0
3.702891373E0,-2.452643216E-2,-1.863410622E-1,9.894919395E0
3.705336737E0,-3.170489892E-2,-1.839482337E-1,9.914062500E0
3.707781321E0,-3.409772366E-2,-1.887338907E-1,9.873384476E0
3.710225019E0,-2.931207791E-2,-2.006980032E-1,9.885348320E0
3.712669654E0,-4.606183618E-2,-1.815554202E-1,9.878170013E0
3.715115019E0,-3.170489892E-2,-1.815554202E-1,9.906884193E0
3.717559602E0,-2.213360928E-2,-1.959123611E-1,9.873384476E0
3.720003352E0,-2.691925503E-2,-1.839482337E-1,9.873384476E0
3.722447987E0,-2.931207791E-2,-1.935195327E-1,9.878170013E0
3.724893352E0,-3.409772366E-2,-2.102692872E-1,9.887741089E0
3.727337935E0,-4.366901144E-2,-2.030908167E-1,9.882955551E0
3.729781633E0,-2.691925503E-2,-2.006980032E-1,9.870991707E0
3.732226269E0,-2.931207791E-2,-1.815554202E-1,9.897313118E0
3.734671633E0,-1.495514158E-2,-1.959123611E-1,9.885348320E0
3.737116217E0,-1.974078640E-2,-1.815554202E-1,9.866206169E0
3.739559967E0,-4.845465720E-2,-1.983051747E-1,9.878170013E0
3.742004602E0,-4.127619043E-2,-1.983051747E-1,9.890133858E0
3.744449967E0,-2.931207791E-2,-1.743769497E-1,9.861420631E0
3.746894446E0,-4.366901144E-2,-1.863410622E-1,9.870991707E0
3.749338248E0,-3.409772366E-2,-1.959123611E-1,9.885348320E0
3.751782883E0,-4.366901144E-2,-1.959123611E-1,9.892526627E0
3.754228248E0,-1.734796353E-2,-1.959123611E-1,9.902098656E0
3.756672831E0,-2.931207791E-2,-1.935195327E-1,9.890133858E0
3.759116529E0,-2.931207791E-2,-1.911267042E-1,9.894919395E0
3.761561165E0,-3.409772366E-2,-1.839482337E-1,9.887741089E0
3.764006529E0,-2.931207791E-2,-1.935195327E-1,9.887741089E0
3.766451112E0,-4.127619043E-2,-1.911267042E-1,9.878170013E0
3.768894862E0,-3.409772366E-2,-1.863410622E-1,9.894919395E0
3.771339498E0,-4.127619043E-2,-2.006980032E-1,9.914062500E0
3.773784862E0,-2.452643216E-2,-2.006980032E-1,9.885348320E0
3.776229446E0,-4.366901144E-2,-1.863410622E-1,9.866206169E0
3.778673144E0,-3.170489892E-2,-2.054836452E-1,9.868598938E0
3.781117779E0,-3.170489892E-2,-1.959123611E-1,9.887741089E0
3.783563144E0,-3.649054468E-2,-1.911267042E-1,9.887741089E0
3.786007727E0,-2.691925503E-2,-2.078764737E-1,9.880562782E0
3.788451477E0,-2.931207791E-2,-1.959123611E-1,9.902098656E0
3.790896112E0,-3.888336942E-2,-2.078764737E-1,9.887741089E0
3.793341477E0,-2.691925503E-2,-2.006980032E-1,9.882955551E0
3.795786060E0,-3.649054468E-2,-2.054836452E-1,9.870991707E0
3.798229758E0,-3.409772366E-2,-2.006980032E-1,9.875777245E0
3.800674394E0,-4.366901144E-2,-1.935195327E-1,9.892526627E0
3.803119758E0,-2.931207791E-2,-1.911267042E-1,9.897313118E0
3.805564342E0,-2.213360928E-2,-1.935195327E-1,9.890133858E0
3.808008092E0,-2.452643216E-2,-1.935195327E-1,9.904491425E0
3.810452675E0,-1.256231871E-2,-1.983051747E-1,9.892526627E0
3.812898092E0,-3.409772366E-2,-1.863410622E-1,9.880562782E0
3.815342675E0,-1.734796353E-2,-1.935195327E-1,9.906884193E0
3.817786373E0,-3.409772366E-2,-1.767697781E-1,9.887741089E0
3.820231008E0,-2.452643216E-2,-1.959123611E-1,9.899705887E0
3.822676373E0,-3.649054468E-2,-1.983051747E-1,9.887741089E0
3.825120956E0,-3.888336942E-2,-2.078764737E-1,9.906884193E0
3.827564654E0,-4.845465720E-2,-1.863410622E-1,9.868598938E0
3.830009290E0,-3.649054468E-2,-1.815554202E-1,9.894919395E0
3.832454654E0,-2.213360928E-2,-1.791625917E-1,9.892526627E0
3.834899237E0,-3.888336942E-2,-1.887338907E-1,9.904491425E0
3.837342987E0,-2.213360928E-2,-2.126621157E-1,9.885348320E0
3.839787623E0,-4.606183618E-2,-2.006980032E-1,9.906884193E0
3.842232987E0,-2.452643216E-2,-1.935195327E-1,9.902098656E0
3.844677571E0,-3.888336942E-2,-1.791625917E-1,9.887741089E0
3.847121269E0,-2.691925503E-2,-1.959123611E-1,9.885348320E0
3.849565904E0,-1.734796353E-2,-1.791625917E-1,9.885348320E0
3.852011269E0,-4.366901144E-2,-1.959123611E-1,9.861420631E0
3.854455852E0,-3.409772366E-2,-1.863410622E-1,9.885348320E0
3.856899602E0,-5.084748194E-2,-2.078764737E-1,9.882955551E0
3.859344237E0,-3.170489892E-2,-2.054836452E-1,9.892526627E0
3.861789602E0,-1.974078640E-2,-2.054836452E-1,9.878170013E0
3.864234185E0,-2.691925503E-2,-1.959123611E-1,9.902098656E0
3.866677883E0,-2.931207791E-2,-2.174477577E-1,9.887741089E0
3.869122519E0,-2.691925503E-2,-1.887338907E-1,9.873384476E0
3.871567883E0,-1.734796353E-2,-1.935195327E-1,9.906884193E0
3.874012467E0,-1.016949583E-2,-2.030908167E-1,9.885348320E0
3.876456217E0,-1.974078640E-2,-2.006980032E-1,9.894919395E0
3.878900800E0,-3.649054468E-2,-2.006980032E-1,9.887741089E0
3.881346217E0,-4.366901144E-2,-1.863410622E-1,9.904491425E0
3.883790696E0,-3.649054468E-2,-1.959123611E-1,9.902098656E0
3.886234498E0,-2.213360928E-2,-1.983051747E-1,9.906884193E0
3.888679133E0,-2.213360928E-2,-1.815554202E-1,9.885348320E0
3.891124498E0,-2.931207791E-2,-1.959123611E-1,9.894919395E0
3.893569081E0,-2.691925503E-2,-1.791625917E-1,9.906884193E0
3.896012779E0,-4.366901144E-2,-2.126621157E-1,9.902098656E0
3.898457415E0,-3.170489892E-2,-1.959123611E-1,9.894919395E0
3.900902779E0,-1.974078640E-2,-1.935195327E-1,9.890133858E0
3.903347362E0,-4.845465720E-2,-1.791625917E-1,9.873384476E0
3.905791112E0,-2.691925503E-2,-1.959123611E-1,9.911669731E0
3.908235748E0,-3.170489892E-2,-2.078764737E-1,9.899705887E0
3.910681112E0,-2.452643216E-2,-1.887338907E-1,9.873384476E0
3.913125696E0,-1.734796353E-2,-1.624128371E-1,9.885348320E0
3.915569394E0,-2.452643216E-2,-1.983051747E-1,9.904491425E0
3.918014029E0,-2.691925503E-2,-1.983051747E-1,9.890133858E0
3.920459394E0,-3.888336942E-2,-2.078764737E-1,9.887741089E0
3.922903977E0,-2.931207791E-2,-2.078764737E-1,9.880562782E0
3.925347727E0,-2.213360928E-2,-2.006980032E-1,9.887741089E0
3.927792362E0,-2.931207791E-2,-1.815554202E-1,9.897313118E0
3.930237727E0,-2.931207791E-2,-2.102692872E-1,9.887741089E0
3.932682310E0,-7.776673418E-3,-1.791625917E-1,9.890133858E0
3.935126008E0,-3.409772366E-2,-1.791625917E-1,9.870991707E0
3.937570644E0,-2.691925503E-2,-1.959123611E-1,9.873384476E0
3.940016008E0,-2.452643216E-2,-1.887338907E-1,9.906884193E0
3.942460592E0,-2.213360928E-2,-2.102692872E-1,9.882955551E0
3.944904342E0,-2.931207791E-2,-2.054836452E-1,9.885348320E0
3.947348925E0,-1.495514158E-2,-2.030908167E-1,9.897313118E0
3.949794342E0,-2.691925503E-2,-2.054836452E-1,9.904491425E0
3.952238821E0,-5.084748194E-2,-1.935195327E-1,9.870991707E0
3.954682623E0,-1.734796353E-2,-2.126621157E-1,9.880562782E0
3.957127258E0,-2.452643216E-2,-2.198405862E-1,9.897313118E0
3.959572623E0,-2.452643216E-2,-1.887338907E-1,9.890133858E0
3.962017206E0,-3.649054468E-2,-1.791625917E-1,9.873384476E0
3.964460904E0,-3.649054468E-2,-1.767697781E-1,9.916455269E0
3.966905540E0,-1.974078640E-2,-1.911267042E-1,9.914062500E0
3.969350904E0,-4.845465720E-2,-2.102692872E-1,9.882955551E0
3.971795487E0,-3.170489892E-2,-1.839482337E-1,9.882955551E0
3.974239237E0,-2.691925503E-2,-2.030908167E-1,9.897313118E0
3.976683873E0,-4.606183618E-2,-2.054836452E-1,9.887741089E0
3.979129237E0,-4.606183618E-2,-1.935195327E-1,9.878170013E0
3.981573821E0,-3.888336942E-2,-1.959123611E-1,9.878170013E0
3.984017519E0,-3.170489892E-2,-1.671984792E-1,9.882955551E0
3.986462154E0,-1.495514158E-2,-1.671984792E-1,9.873384476E0
3.988907519E0,-1.974078640E-2,-1.815554202E-1,9.849455833E0
3.991352102E0,-3.888336942E-2,-1.743769497E-1,9.870991707E0
3.993795852E0,-6.071787328E-2,-1.959123611E-1,9.894919395E0
3.996240487E0,-1.734796353E-2,-1.863410622E-1,9.894919395E0
3.998685852E0,-1.734796353E-2,-1.959123611E-1,9.890133858E0
4.001130435E0,-3.888336942E-2,-1.935195327E-1,9.882955551E0
4.003574133E0,-3.649054468E-2,-2.078764737E-1,9.887741089E0
4.006018769E0,-2.931207791E-2,-1.911267042E-1,9.899705887E0
4.008464133E0,-2.931207791E-2,-1.791625917E-1,9.890133858E0
4.010908717E0,-5.324030295E-2,-1.887338907E-1,9.861420631E0
4.013352467E0,-5.084748194E-2,-1.959123611E-1,9.887741089E0
4.015797050E0,-3.888336942E-2,-1.791625917E-1,9.882955551E0
4.018242467E0,-1.734796353E-2,-2.006980032E-1,9.875777245E0
4.020686946E0,-3.409772366E-2,-2.150549293E-1,9.873384476E0
4.023130748E0,-3.170489892E-2,-1.911267042E-1,9.892526627E0
4.025575383E0,-3.649054468E-2,-2.006980032E-1,9.885348320E0
4.028020748E0,-5.324030295E-2,-1.935195327E-1,9.897313118E0
4.030465331E0,-2.931207791E-2,-1.935195327E-1,9.882955551E0
4.032909029E0,-2.213360928E-2,-2.126621157E-1,9.885348320E0
4.035353665E0,-5.982056609E-4,-1.983051747E-1,9.882955551E0
4.037799029E0,-3.170489892E-2,-2.006980032E-1,9.897313118E0
4.040243612E0,-3.888336942E-2,-1.983051747E-1,9.890133858E0
4.042687362E0,-3.170489892E-2,-2.030908167E-1,9.873384476E0
4.045131998E0,-3.649054468E-2,-1.959123611E-1,9.882955551E0
4.047577362E0,-2.452643216E-2,-1.911267042E-1,9.885348320E0
4.050021946E0,-4.845465720E-2,-1.767697781E-1,9.892526627E0
4.052465644E0,-2.691925503E-2,-2.006980032E-1,9.866206169E0
4.054910279E0,-1.495514158E-2,-1.983051747E-1,9.859027863E0
4.057355644E0,-2.691925503E-2,-1.959123611E-1,9.890133858E0
4.059800227E0,-2.452643216E-2,-1.887338907E-1,9.870991707E0
4.062243977E0,-1.734796353E-2,-2.102692872E-1,9.902098656E0
4.064688612E0,-3.409772366E-2,-2.102692872E-1,9.902098656E0
4.067133977E0,-7.776673418E-3,-1.935195327E-1,9.880562782E0
4.069578560E0,-3.170489892E-2,-1.959123611E-1,9.875777245E0
4.072022258E0,-2.452643216E-2,-1.863410622E-1,9.914062500E0
4.074466894E0,-2.931207791E-2,-1.935195327E-1,9.863813400E0
4.076912258E0,-3.409772366E-2,-1.863410622E-1,9.863813400E0
4.079356842E0,-1.734796353E-2,-2.030908167E-1,9.909276962E0
4.081800592E0,-3.409772366E-2,-1.863410622E-1,9.880562782E0
4.084245175E0,-3.409772366E-2,-1.935195327E-1,9.890133858E0
4.086690592E0,-3.170489892E-2,-1.815554202E-1,9.897313118E0
4.089135071E0,-2.691925503E-2,-1.863410622E-1,9.899705887E0
4.091578873E0,-3.170489892E-2,-1.911267042E-1,9.875777245E0
4.094023508E0,-4.127619043E-2,-1.911267042E-1,9.882955551E0
4.096468873E0,-2.452643216E-2,-2.006980032E-1,9.921240807E0
4.098913456E0,-2.452643216E-2,-1.983051747E-1,9.890133858E0
4.101357154E0,-4.845465720E-2,-1.887338907E-1,9.892526627E0
4.103801790E0,-4.127619043E-2,-1.935195327E-1,9.887741089E0
4.106247206E0,-1.495514158E-2,-2.006980032E-1,9.894919395E0
4.108691685E0,-3.170489892E-2,-1.983051747E-1,9.911669731E0
4.111135487E0,-2.213360928E-2,-1.911267042E-1,9.880562782E0
4.113580123E0,-2.452643216E-2,-2.006980032E-1,9.894919395E0
4.116025487E0,-4.366901144E-2,-1.935195327E-1,9.906884193E0
4.118470071E0,-3.409772366E-2,-1.959123611E-1,9.894919395E0
4.120913769E0,-2.931207791E-2,-1.743769497E-1,9.868598938E0
4.123358404E0,-3.888336942E-2,-1.839482337E-1,9.885348320E0
4.125803769E0,-4.127619043E-2,-1.863410622E-1,9.878170013E0
4.128248352E0,-1.256231871E-2,-1.959123611E-1,9.899705887E0
4.130692102E0,-1.495514158E-2,-1.839482337E-1,9.882955551E0
4.133136737E0,-2.213360928E-2,-1.839482337E-1,9.875777245E0
4.135582102E0,-2.452643216E-2,-1.815554202E-1,9.878170013E0
4.138026685E0,-1.016949583E-2,-1.983051747E-1,9.873384476E0
4.140470383E0,-1.495514158E-2,-2.126621157E-1,9.892526627E0
4.142915019E0,-3.649054468E-2,-2.030908167E-1,9.897313118E0
4.145360383E0,-3.170489892E-2,-1.935195327E-1,9.890133858E0
4.147804967E0,-1.256231871E-2,-1.911267042E-1,9.902098656E0
4.150248717E0,-2.931207791E-2,-2.102692872E-1,9.887741089E0
4.152693300E0,-2.931207791E-2,-1.911267042E-1,9.870991707E0
4.155138717E0,-2.931207791E-2,-1.911267042E-1,9.875777245E0
4.157583196E0,-2.452643216E-2,-1.815554202E-1,9.892526627E0
4.160026998E0,-3.888336942E-2,-1.719841212E-1,9.892526627E0
4.162471633E0,-4.127619043E-2,-2.030908167E-1,9.882955551E0
4.164916998E0,-3.888336942E-2,-2.054836452E-1,9.885348320E0
4.167361581E0,-1.974078640E-2,-2.006980032E-1,9.890133858E0
4.169805279E0,-4.366901144E-2,-1.863410622E-1,9.899705887E0
4.172249915E0,-3.409772366E-2,-1.935195327E-1,9.899705887E0
4.174695279E0,-3.888336942E-2,-1.935195327E-1,9.911669731E0
4.177139862E0,-4.127619043E-2,-1.767697781E-1,9.899705887E0
4.179583612E0,-3.888336942E-2,-2.006980032E-1,9.878170013E0
4.182028248E0,-3.888336942E-2,-1.959123611E-1,9.928419113E0
4.184473612E0,-3.170489892E-2,-1.767697781E-1,9.878170013E0
4.186918196E0,-2.691925503E-2,-1.911267042E-1,9.866206169E0
4.189361894E0,-2.452643216E-2,-1.983051747E-1,9.870991707E0
4.191806529E0,-3.649054468E-2,-2.078764737E-1,9.882955551E0
4.194251894E0,-3.409772366E-2,-1.839482337E-1,9.885348320E0
4.196696477E0,-4.127619043E-2,-2.006980032E-1,9.890133858E0
4.199140227E0,-2.452643216E-2,-1.863410622E-1,9.902098656E0
4.201584862E0,-4.127619043E-2,-1.791625917E-1,9.885348320E0
4.204030227E0,-1.734796353E-2,-1.935195327E-1,9.897313118E0
4.206474810E0,-2.213360928E-2,-2.054836452E-1,9.885348320E0
4.208918508E0,-4.127619043E-2,-2.030908167E-1,9.909276962E0
4.211363144E0,-2.691925503E-2,-2.006980032E-1,9.897313118E0
4.213808508E0,-1.734796353E-2,-1.935195327E-1,9.899705887E0
4.216253092E0,-1.734796353E-2,-1.935195327E-1,9.882955551E0
4.218696842E0,-3.888336942E-2,-1.911267042E-1,9.887741089E0
4.221141477E0,-3.409772366E-2,-1.863410622E-1,9.899705887E0
4.223586842E0,-3.170489892E-2,-1.935195327E-1,9.892526627E0
4.226031321E0,-3.888336942E-2,-2.054836452E-1,9.885348320E0
4.228475123E0,-5.324030295E-2,-1.743769497E-1,9.880562782E0
4.230919758E0,-2.931207791E-2,-1.839482337E-1,9.887741089E0
4.233365123E0,-2.931207791E-2,-2.006980032E-1,9.899705887E0
4.235809706E0,-2.213360928E-2,-1.911267042E-1,9.878170013E0
4.238253404E0,-5.324030295E-2,-1.983051747E-1,9.897313118E0
4.240698040E0,-3.170489892E-2,-1.839482337E-1,9.892526627E0
4.243143404E0,-2.452643216E-2,-1.959123611E-1,9.873384476E0
4.245587987E0,-2.452643216E-2,-1.911267042E-1,9.897313118E0
4.248031737E0,-3.170489892E-2,-1.959123611E-1,9.904491425E0
4.250476373E0,-3.170489892E-2,-1.983051747E-1,9.882955551E0
4.252921737E0,-3.649054468E-2,-1.887338907E-1,9.868598938E0
4.255366321E0,-2.452643216E-2,-1.983051747E-1,9.882955551E0
4.257810019E0,-2.691925503E-2,-1.839482337E-1,9.911669731E0
4.260254654E0,-3.888336942E-2,-1.959123611E-1,9.868598938E0
4.262700019E0,-3.409772366E-2,-2.294118702E-1,9.880562782E0
4.265144602E0,-4.606183618E-2,-2.054836452E-1,9.904491425E0
4.267588352E0,-3.409772366E-2,-1.983051747E-1,9.892526627E0
4.270032987E0,-2.691925503E-2,-1.887338907E-1,9.890133858E0
4.272478352E0,-1.495514158E-2,-2.078764737E-1,9.902098656E0
4.274922935E0,-3.888336942E-2,-2.054836452E-1,9.902098656E0
4.277366633E0,-2.213360928E-2,-1.863410622E-1,9.880562782E0
4.279811269E0,-3.649054468E-2,-2.102692872E-1,9.892526627E0
4.282256633E0,-3.888336942E-2,-2.054836452E-1,9.897313118E0
4.284701217E0,-4.845465720E-2,-2.054836452E-1,9.906884193E0
4.287144967E0,-2.931207791E-2,-1.839482337E-1,9.890133858E0
4.289589550E0,-1.974078640E-2,-1.911267042E-1,9.880562782E0
4.292034967E0,-3.649054468E-2,-2.030908167E-1,9.904491425E0
4.294479446E0,-2.691925503E-2,-2.078764737E-1,9.916455269E0
4.296923248E0,-3.409772366E-2,-1.935195327E-1,9.909276962E0
4.299367883E0,-1.495514158E-2,-1.887338907E-1,9.885348320E0
4.301813248E0,-4.606183618E-2,-1.839482337E-1,9.859027863E0
4.304257831E0,-4.127619043E-2,-1.911267042E-1,9.882955551E0
4.306701529E0,-3.170489892E-2,-1.839482337E-1,9.890133858E0
4.309146165E0,-3.649054468E-2,-1.983051747E-1,9.873384476E0
4.311591529E0,-3.649054468E-2,-1.863410622E-1,9.892526627E0
4.314036112E0,-1.256231871E-2,-1.815554202E-1,9.890133858E0
4.316479862E0,-2.691925503E-2,-2.006980032E-1,9.899705887E0
4.318924498E0,-2.691925503E-2,-1.839482337E-1,9.880562782E0
4.321369862E0,-4.606183618E-2,-1.983051747E-1,9.894919395E0
4.323814446E0,-2.213360928E-2,-1.887338907E-1,9.870991707E0
4.326258144E0,-3.409772366E-2,-1.911267042E-1,9.878170013E0
4.328702779E0,-3.409772366E-2,-1.959123611E-1,9.894919395E0
4.331148144E0,-2.691925503E-2,-1.935195327E-1,9.885348320E0
4.333592727E0,-4.127619043E-2,-2.054836452E-1,9.880562782E0
4.336036477E0,-3.409772366E-2,-2.078764737E-1,9.892526627E0
4.338481112E0,-4.366901144E-2,-1.983051747E-1,9.885348320E0
4.340926477E0,-1.974078640E-2,-2.054836452E-1,9.897313118E0
4.343370956E0,-3.170489892E-2,-1.815554202E-1,9.916455269E0
4.345814758E0,-4.127619043E-2,-1.911267042E-1,9.902098656E0
4.348259394E0,-4.606183618E-2,-2.006980032E-1,9.875777245E0
4.350704758E0,-2.452643216E-2,-1.935195327E-1,9.868598938E0
4.353149342E0,-1.974078640E-2,-1.935195327E-1,9.866206169E0
4.355593092E0,-3.170489892E-2,-2.006980032E-1,9.885348320E0
4.358037675E0,-1.256231871E-2,-1.983051747E-1,9.880562782E0
4.360483040E0,-3.170489892E-2,-1.863410622E-1,9.868598938E0
4.362927623E0,-3.888336942E-2,-1.863410622E-1,9.890133858E0
4.365371373E0,-3.170489892E-2,-2.150549293E-1,9.878170013E0
4.367816008E0,-3.888336942E-2,-1.863410622E-1,9.880562782E0
4.370261373E0,-4.845465720E-2,-1.719841212E-1,9.875777245E0
4.372705956E0,-4.127619043E-2,-1.767697781E-1,9.890133858E0
4.375149706E0,-1.495514158E-2,-1.911267042E-1,9.875777245E0
4.377594290E0,-2.691925503E-2,-2.054836452E-1,9.875777245E0
4.380039654E0,-3.409772366E-2,-1.959123611E-1,9.904491425E0
4.382484237E0,-2.931207791E-2,-2.054836452E-1,9.894919395E0
4.384927987E0,-4.127619043E-2,-1.863410622E-1,9.892526627E0
4.387372623E0,-7.776673418E-3,-2.102692872E-1,9.866206169E0
4.389817987E0,-2.213360928E-2,-2.054836452E-1,9.882955551E0
4.392262571E0,-3.888336942E-2,-1.959123611E-1,9.868598938E0
4.394706269E0,-2.452643216E-2,-1.935195327E-1,9.873384476E0
4.397150904E0,-1.974078640E-2,-2.030908167E-1,9.873384476E0
4.399596269E0,-1.734796353E-2,-2.006980032E-1,9.890133858E0
4.402040852E0,-2.691925503E-2,-1.863410622E-1,9.904491425E0
4.404484602E0,-4.366901144E-2,-2.006980032E-1,9.890133858E0
4.406929237E0,-2.452643216E-2,-1.959123611E-1,9.911669731E0
4.409374602E0,-3.409772366E-2,-1.983051747E-1,9.885348320E0
4.411819185E0,-2.931207791E-2,-1.911267042E-1,9.892526627E0
4.414262883E0,-2.452643216E-2,-1.911267042E-1,9.894919395E0
4.416707519E0,-1.734796353E-2,-1.887338907E-1,9.887741089E0
4.419152883E0,-2.931207791E-2,-2.054836452E-1,9.878170013E0
4.421597467E0,-3.170489892E-2,-2.030908167E-1,9.882955551E0
4.424041217E0,-4.127619043E-2,-1.911267042E-1,9.892526627E0
4.426485800E0,-3.170489892E-2,-1.863410622E-1,9.894919395E0
4.428931165E0,-5.324030295E-2,-1.791625917E-1,9.885348320E0
4.431375748E0,-2.691925503E-2,-1.983051747E-1,9.885348320E0
4.433819498E0,-3.409772366E-2,-1.911267042E-1,9.878170013E0
4.436264133E0,-4.606183618E-2,-1.887338907E-1,9.875777245E0
4.438709498E0,-4.127619043E-2,-2.006980032E-1,9.887741089E0
4.441154081E0,-3.409772366E-2,-1.935195327E-1,9.909276962E0
4.443597779E0,-3.649054468E-2,-1.983051747E-1,9.878170013E0
4.446042415E0,-7.776673418E-3,-2.126621157E-1,9.890133858E0
4.448487779E0,-1.734796353E-2,-1.887338907E-1,9.894919395E0
4.450932362E0,-1.734796353E-2,-1.863410622E-1,9.890133858E0
4.453376112E0,-4.845465720E-2,-1.887338907E-1,9.875777245E0
4.455820748E0,-4.845465720E-2,-1.959123611E-1,9.882955551E0
4.458266112E0,-3.170489892E-2,-1.983051747E-1,9.897313118E0
4.460710696E0,-3.170489892E-2,-1.839482337E-1,9.887741089E0
4.463154394E0,-1.256231871E-2,-1.887338907E-1,9.880562782E0
4.465598977E0,-4.366901144E-2,-1.839482337E-1,9.875777245E0
4.468044394E0,-3.170489892E-2,-1.983051747E-1,9.878170013E0
4.470488977E0,-2.213360928E-2,-1.887338907E-1,9.875777245E0
4.472932727E0,-4.606183618E-2,-1.983051747E-1,9.880562782E0
4.475377362E0,-4.366901144E-2,-2.006980032E-1,9.890133858E0
4.477822727E0,-3.170489892E-2,-2.030908167E-1,9.861420631E0
4.480267206E0,-2.931207791E-2,-2.054836452E-1,9.868598938E0
4.482711008E0,-4.127619043E-2,-2.054836452E-1,9.916455269E0
4.485155644E0,-2.931207791E-2,-1.983051747E-1,9.885348320E0
4.487601008E0,-3.888336942E-2,-1.983051747E-1,9.873384476E0
4.490045592E0,-2.931207791E-2,-1.911267042E-1,9.911669731E0
4.492489342E0,-1.256231871E-2,-1.671984792E-1,9.873384476E0
4.494933925E0,-3.888336942E-2,-2.078764737E-1,9.892526627E0
4.497379342E0,-3.409772366E-2,-1.959123611E-1,9.902098656E0
4.499823821E0,-1.974078640E-2,-1.815554202E-1,9.882955551E0
4.502267623E0,-4.127619043E-2,-1.911267042E-1,9.878170013E0
4.504712258E0,-1.734796353E-2,-1.839482337E-1,9.873384476E0
4.507157623E0,-2.691925503E-2,-1.911267042E-1,9.866206169E0
4.509602206E0,-4.606183618E-2,-1.887338907E-1,9.892526627E0
4.512045904E0,-4.845465720E-2,-2.006980032E-1,9.875777245E0
4.514490540E0,-3.409772366E-2,-1.743769497E-1,9.880562782E0
4.516935904E0,-1.256231871E-2,-2.078764737E-1,9.906884193E0
4.519380487E0,-2.213360928E-2,-1.911267042E-1,9.861420631E0
4.521824237E0,-1.495514158E-2,-1.959123611E-1,9.882955551E0
4.524268873E0,-1.016949583E-2,-1.887338907E-1,9.873384476E0
4.526714237E0,-2.452643216E-2,-2.030908167E-1,9.914062500E0
4.529158821E0,-4.366901144E-2,-1.983051747E-1,9.882955551E0
4.531602519E0,-3.649054468E-2,-1.983051747E-1,9.878170013E0
4.534047154E0,-2.213360928E-2,-1.935195327E-1,9.878170013E0
4.536492519E0,-4.366901144E-2,-1.935195327E-1,9.890133858E0
4.538937102E0,-2.691925503E-2,-1.911267042E-1,9.885348320E0
4.541380852E0,-2.452643216E-2,-1.887338907E-1,9.873384476E0
4.543825435E0,-2.452643216E-2,-1.959123611E-1,9.880562782E0
4.546270852E0,-3.649054468E-2,-1.911267042E-1,9.885348320E0
4.548715331E0,-3.649054468E-2,-1.983051747E-1,9.875777245E0
4.551159133E0,-3.649054468E-2,-2.030908167E-1,9.890133858E0
4.553603769E0,-3.409772366E-2,-2.006980032E-1,9.875777245E0
4.556049133E0,-3.409772366E-2,-1.839482337E-1,9.902098656E0
4.558493717E0,-3.649054468E-2,-1.839482337E-1,9.902098656E0
4.560937467E0,-3.409772366E-2,-1.983051747E-1,9.880562782E0
4.563382050E0,-4.845465720E-2,-1.959123611E-1,9.899705887E0
4.565827415E0,-1.256231871E-2,-1.839482337E-1,9.894919395E0
4.568271998E0,-1.256231871E-2,-1.839482337E-1,9.878170013E0
4.570715748E0,-3.649054468E-2,-1.911267042E-1,9.882955551E0
4.573160383E0,-4.366901144E-2,-1.863410622E-1,9.892526627E0
4.575605748E0,-2.931207791E-2,-1.887338907E-1,9.890133858E0
4.578050331E0,-4.845465720E-2,-1.815554202E-1,9.880562782E0
4.580494029E0,-4.606183618E-2,-2.054836452E-1,9.897313118E0
4.582938665E0,-2.931207791E-2,-2.030908167E-1,9.899705887E0
4.585384029E0,-1.734796353E-2,-1.959123611E-1,9.873384476E0
4.587828612E0,-1.495514158E-2,-1.863410622E-1,9.847063065E0
4.590272362E0,-2.691925503E-2,-2.054836452E-1,9.878170013E0
4.592716998E0,-2.213360928E-2,-1.959123611E-1,9.873384476E0
4.595162362E0,-3.649054468E-2,-2.102692872E-1,9.897313118E0
4.597606946E0,-3.409772366E-2,-1.983051747E-1,9.863813400E0
4.600050644E0,-2.213360928E-2,-1.959123611E-1,9.875777245E0
4.602495279E0,-2.452643216E-2,-1.911267042E-1,9.882955551E0
4.604940644E0,-2.452643216E-2,-2.054836452E-1,9.875777245E0
4.607385227E0,-5.563312769E-2,-2.126621157E-1,9.894919395E0
4.609828977E0,-3.409772366E-2,-2.150549293E-1,9.894919395E0
4.612273612E0,-1.974078640E-2,-2.030908167E-1,9.890133858E0
4.614718977E0,-2.691925503E-2,-1.887338907E-1,9.897313118E0
4.617163560E0,-2.452643216E-2,-1.911267042E-1,9.868598938E0
4.619607258E0,-2.213360928E-2,-2.030908167E-1,9.890133858E0
4.622051894E0,-1.974078640E-2,-1.911267042E-1,9.904491425E0
4.624497258E0,-3.170489892E-2,-1.983051747E-1,9.902098656E0
4.626941842E0,-2.213360928E-2,-1.911267042E-1,9.890133858E0
4.629385540E0,-3.409772366E-2,-1.959123611E-1,9.870991707E0
4.631830175E0,-4.366901144E-2,-1.743769497E-1,9.882955551E0
4.634275540E0,-3.409772366E-2,-1.911267042E-1,9.894919395E0
4.636720123E0,-2.452643216E-2,-1.815554202E-1,9.880562782E0
4.639163873E0,-3.649054468E-2,-1.911267042E-1,9.904491425E0
4.641608508E0,-3.409772366E-2,-1.959123611E-1,9.887741089E0
4.644053873E0,-3.649054468E-2,-1.887338907E-1,9.880562782E0
4.646498456E0,-2.691925503E-2,-2.030908167E-1,9.899705887E0
4.648942154E0,-3.649054468E-2,-1.983051747E-1,9.880562782E0
4.651386790E0,-2.452643216E-2,-1.911267042E-1,9.882955551E0
4.653832154E0,-1.495514158E-2,-1.935195327E-1,9.890133858E0
4.656276737E0,-4.366901144E-2,-1.935195327E-1,9.894919395E0
4.658720487E0,-2.931207791E-2,-1.935195327E-1,9.885348320E0
4.661165123E0,-2.213360928E-2,-1.887338907E-1,9.887741089E0
4.663610487E0,-2.691925503E-2,-1.863410622E-1,9.882955551E0
4.666055071E0,-2.931207791E-2,-1.815554202E-1,9.882955551E0
4.668498769E0,-5.084748194E-2,-1.911267042E-1,9.897313118E0
4.670943404E0,-3.170489892E-2,-1.839482337E-1,9.904491425E0
4.673388769E0,-2.213360928E-2,-1.983051747E-1,9.859027863E0
4.675833352E0,-4.127619043E-2,-1.935195327E-1,9.904491425E0
4.678277102E0,-2.213360928E-2,-1.767697781E-1,9.890133858E0
4.680721737E0,-3.170489892E-2,-1.839482337E-1,9.894919395E0
4.683167102E0,-3.170489892E-2,-1.887338907E-1,9.885348320E0
4.685611685E0,-1.016949583E-2,-2.078764737E-1,9.899705887E0
4.688055383E0,-2.691925503E-2,-1.983051747E-1,9.870991707E0
4.690500019E0,-3.888336942E-2,-1.959123611E-1,9.892526627E0
4.692945383E0,-2.691925503E-2,-1.791625917E-1,9.878170013E0
4.695389967E0,-3.649054468E-2,-1.959123611E-1,9.873384476E0
4.697833717E0,-2.691925503E-2,-1.983051747E-1,9.887741089E0
4.700278300E0,-1.256231871E-2,-2.006980032E-1,9.897313118E0
4.702723665E0,-1.495514158E-2,-1.863410622E-1,9.882955551E0
4.705168248E0,-4.127619043E-2,-2.102692872E-1,9.875777245E0
4.707611998E0,-3.649054468E-2,-2.078764737E-1,9.882955551E0
4.710056633E0,-1.974078640E-2,-1.911267042E-1,9.897313118E0
4.712501998E0,-5.084748194E-2,-1.887338907E-1,9.885348320E0
4.714946581E0,-3.409772366E-2,-1.959123611E-1,9.894919395E0
4.717390279E0,-2.452643216E-2,-1.815554202E-1,9.897313118E0
4.719834915E0,-2.691925503E-2,-1.959123611E-1,9.878170013E0
4.722280279E0,-2.931207791E-2,-2.006980032E-1,9.878170013E0
4.724724862E0,-2.931207791E-2,-1.935195327E-1,9.887741089E0
4.727168612E0,-4.606183618E-2,-1.935195327E-1,9.914062500E0
4.729613248E0,-2.931207791E-2,-1.983051747E-1,9.890133858E0
4.732058612E0,-3.888336942E-2,-1.935195327E-1,9.880562782E0
4.734503196E0,-2.691925503E-2,-1.935195327E-1,9.894919395E0
4.736946894E0,-3.170489892E-2,-1.935195327E-1,9.904491425E0
4.739391529E0,-4.127619043E-2,-2.030908167E-1,9.902098656E0
4.741836894E0,-3.888336942E-2,-1.815554202E-1,9.885348320E0
4.744281477E0,-2.691925503E-2,-1.959123611E-1,9.890133858E0
4.746725227E0,-2.213360928E-2,-2.054836452E-1,9.870991707E0
4.749169810E0,-3.409772366E-2,-1.983051747E-1,9.892526627E0
4.751615227E0,-4.366901144E-2,-1.935195327E-1,9.859027863E0
4.754059706E0,-3.170489892E-2,-1.887338907E-1,9.882955551E0
4.756503508E0,-3.170489892E-2,-2.078764737E-1,9.914062500E0
4.758948144E0,-3.649054468E-2,-1.887338907E-1,9.863813400E0
4.761393508E0,-1.974078640E-2,-1.887338907E-1,9.892526627E0
4.763838092E0,-3.649054468E-2,-1.935195327E-1,9.882955551E0
4.766281842E0,-2.931207791E-2,-2.006980032E-1,9.882955551E0
4.768726425E0,-3.649054468E-2,-1.887338907E-1,9.890133858E0
4.771171842E0,-1.256231871E-2,-2.006980032E-1,9.878170013E0
4.773616321E0,-3.409772366E-2,-1.935195327E-1,9.890133858E0
4.776060123E0,-3.888336942E-2,-1.935195327E-1,9.909276962E0
4.778504758E0,-1.974078640E-2,-1.935195327E-1,9.859027863E0
4.780950123E0,-7.776673418E-3,-1.959123611E-1,9.904491425E0
4.783394706E0,-1.734796353E-2,-1.935195327E-1,9.875777245E0
4.785838404E0,-2.691925503E-2,-1.887338907E-1,9.887741089E0
4.788283040E0,-4.366901144E-2,-1.959123611E-1,9.892526627E0
4.790728404E0,-3.170489892E-2,-2.054836452E-1,9.882955551E0
4.793172987E0,-4.127619043E-2,-2.054836452E-1,9.863813400E0
4.795616737E0,-3.170489892E-2,-2.054836452E-1,9.882955551E0
4.798061373E0,-2.931207791E-2,-1.935195327E-1,9.897313118E0
4.800506737E0,-2.691925503E-2,-1.791625917E-1,9.897313118E0
4.802951321E0,-3.649054468E-2,-1.959123611E-1,9.882955551E0
4.805395019E0,-3.170489892E-2,-2.126621157E-1,9.923633575E0
4.807839654E0,-3.170489892E-2,-1.911267042E-1,9.890133858E0
4.810285019E0,-1.974078640E-2,-2.006980032E-1,9.875777245E0
4.812729602E0,-3.170489892E-2,-1.839482337E-1,9.878170013E0
4.815173352E0,-2.931207791E-2,-1.911267042E-1,9.902098656E0
4.817617987E0,-3.649054468E-2,-1.887338907E-1,9.904491425E0
4.820063352E0,-1.734796353E-2,-1.887338907E-1,9.875777245E0
4.822507831E0,-2.931207791E-2,-1.983051747E-1,9.899705887E0
4.824951633E0,-1.974078640E-2,-1.863410622E-1,9.880562782E0
4.827396269E0,-4.845465720E-2,-1.983051747E-1,9.890133858E0
4.829841633E0,-2.213360928E-2,-1.935195327E-1,9.885348320E0
4.832286217E0,-1.495514158E-2,-1.935195327E-1,9.882955551E0
4.834729915E0,-5.084748194E-2,-1.935195327E-1,9.885348320E0
4.837174550E0,-1.256231871E-2,-1.911267042E-1,9.887741089E0
4.839619915E0,-3.649054468E-2,-2.150549293E-1,9.890133858E0
4.842064498E0,-3.409772366E-2,-1.935195327E-1,9.885348320E0
4.844508248E0,-4.127619043E-2,-2.006980032E-1,9.902098656E0
4.846952883E0,-2.691925503E-2,-1.911267042E-1,9.921240807E0
4.849398248E0,-3.409772366E-2,-2.126621157E-1,9.880562782E0
4.851842831E0,-5.084748194E-2,-1.983051747E-1,9.878170013E0
4.854286529E0,-4.606183618E-2,-2.078764737E-1,9.887741089E0
4.856731165E0,-3.409772366E-2,-2.102692872E-1,9.904491425E0
4.859176529E0,-4.606183618E-2,-1.911267042E-1,9.878170013E0
4.861621112E0,-3.649054468E-2,-1.959123611E-1,9.887741089E0
4.864064862E0,-4.127619043E-2,-2.006980032E-1,9.885348320E0
4.866509498E0,-3.409772366E-2,-2.006980032E-1,9.902098656E0
4.868954862E0,-7.776673418E-3,-1.887338907E-1,9.897313118E0
4.871399446E0,-3.170489892E-2,-1.839482337E-1,9.885348320E0
4.873843144E0,-3.649054468E-2,-1.815554202E-1,9.887741089E0
4.876287779E0,-2.213360928E-2,-1.791625917E-1,9.885348320E0
4.878733144E0,-2.691925503E-2,-1.887338907E-1,9.897313118E0
4.881177727E0,-5.982056609E-4,-1.863410622E-1,9.890133858E0
4.883621477E0,-1.734796353E-2,-1.863410622E-1,9.923633575E0
4.886066112E0,-3.888336942E-2,-2.030908167E-1,9.897313118E0
4.888511477E0,-3.409772366E-2,-2.078764737E-1,9.904491425E0
