"Time (s)","Gyroscope x (rad/s)","Gyroscope y (rad/s)","Gyroscope z (rad/s)"
1.447337170E-1,3.054236295E-4,-1.068982761E-3,-1.527118147E-4
1.471783000E-1,3.054236295E-4,1.527118147E-4,1.068982761E-3
1.496220500E-1,3.054236295E-4,1.527118147E-4,1.068982761E-3
1.520666850E-1,3.054236295E-4,1.374406274E-3,-1.374406274E-3
1.545120500E-1,1.527118147E-3,1.527118147E-4,1.068982761E-3
1.569566330E-1,1.527118147E-3,-1.068982761E-3,2.290677279E-3
1.594003310E-1,3.054236295E-4,-1.068982761E-3,1.068982761E-3
1.618449670E-1,2.748812549E-3,-1.068982761E-3,1.068982761E-3
1.642903310E-1,1.527118147E-3,1.527118147E-4,1.068982761E-3
1.667349150E-1,1.527118147E-3,1.527118147E-4,-1.527118147E-4
1.691786650E-1,3.054236295E-4,-1.068982761E-3,-1.527118147E-4
1.716233000E-1,3.054236295E-4,1.527118147E-4,1.068982761E-3
1.740686650E-1,3.054236295E-4,-1.068982761E-3,1.068982761E-3
1.765132480E-1,-9.162708884E-4,-1.068982761E-3,-1.527118147E-4
1.789569460E-1,3.054236295E-4,-1.068982761E-3,1.068982761E-3
1.814015810E-1,3.054236295E-4,1.374406274E-3,-1.374406274E-3
1.838469460E-1,3.054236295E-4,1.527118147E-4,-1.374406274E-3
1.862915290E-1,-9.162708884E-4,-1.068982761E-3,-1.527118147E-4
1.887352790E-1,3.054236295E-4,-1.068982761E-3,1.068982761E-3
1.911798620E-1,3.054236295E-4,-1.068982761E-3,2.290677279E-3
1.936252790E-1,-9.162708884E-4,1.527118147E-4,-1.374406274E-3
1.960698620E-1,-9.162708884E-4,1.527118147E-4,-2.596100792E-3
1.985135600E-1,1.527118147E-3,-1.068982761E-3,-1.527118147E-4
2.009581960E-1,3.054236295E-4,-1.068982761E-3,-1.527118147E-4
2.034035600E-1,3.054236295E-4,-2.290677279E-3,1.068982761E-3
2.058481440E-1,3.054236295E-4,1.374406274E-3,-1.527118147E-4
2.082918940E-1,3.054236295E-4,-1.068982761E-3,-1.374406274E-3
2.107364770E-1,3.054236295E-4,-1.068982761E-3,-1.374406274E-3
2.131818420E-1,3.054236295E-4,-1.068982761E-3,1.068982761E-3
2.156264250E-1,1.527118147E-3,1.527118147E-4,-1.374406274E-3
2.180701750E-1,-9.162708884E-4,-1.068982761E-3,-2.596100792E-3
2.205148100E-1,-2.137965523E-3,1.374406274E-3,-2.596100792E-3
2.229601750E-1,1.527118147E-3,1.374406274E-3,1.068982761E-3
2.254047580E-1,1.527118147E-3,-1.068982761E-3,1.068982761E-3
2.278484560E-1,3.054236295E-4,1.527118147E-4,-1.527118147E-4
2.302930920E-1,3.054236295E-4,1.527118147E-4,-1.374406274E-3
2.327384560E-1,1.527118147E-3,-2.290677279E-3,-1.374406274E-3
2.351830400E-1,3.054236295E-4,-1.068982761E-3,-2.596100792E-3
2.376267900E-1,3.054236295E-4,1.527118147E-4,-1.374406274E-3
2.400714250E-1,3.054236295E-4,-2.290677279E-3,-1.527118147E-4
2.425167900E-1,-9.162708884E-4,1.527118147E-4,-1.527118147E-4
2.449613730E-1,3.054236295E-4,-2.290677279E-3,-1.527118147E-4
2.474050710E-1,3.054236295E-4,-2.290677279E-3,-1.374406274E-3
2.498497060E-1,3.054236295E-4,-1.068982761E-3,1.068982761E-3
2.522950710E-1,3.054236295E-4,-2.290677279E-3,1.068982761E-3
2.547396540E-1,3.054236295E-4,-2.290677279E-3,-1.527118147E-4
2.571834040E-1,-9.162708884E-4,-2.290677279E-3,1.068982761E-3
2.596280400E-1,-9.162708884E-4,-2.290677279E-3,-2.596100792E-3
2.620734040E-1,3.054236295E-4,-1.068982761E-3,-1.374406274E-3
2.645179870E-1,-9.162708884E-4,1.527118147E-4,-1.527118147E-4
2.669616850E-1,3.054236295E-4,1.527118147E-4,-2.596100792E-3
2.694063210E-1,3.054236295E-4,1.527118147E-4,1.068982761E-3
2.718516850E-1,3.054236295E-4,1.374406274E-3,1.068982761E-3
2.742962690E-1,-9.162708884E-4,1.527118147E-4,-1.527118147E-4
2.767400190E-1,-9.162708884E-4,-1.068982761E-3,1.068982761E-3
2.791846540E-1,3.054236295E-4,1.527118147E-4,-1.527118147E-4
2.816300190E-1,1.527118147E-3,1.527118147E-4,2.290677279E-3
2.840746020E-1,3.054236295E-4,-1.068982761E-3,-1.374406274E-3
2.865183000E-1,3.054236295E-4,-2.290677279E-3,-2.596100792E-3
2.889629350E-1,3.054236295E-4,1.527118147E-4,-1.374406274E-3
2.914083000E-1,-9.162708884E-4,1.527118147E-4,-1.527118147E-4
2.938528830E-1,-9.162708884E-4,1.374406274E-3,-1.527118147E-4
2.962966330E-1,3.054236295E-4,-1.068982761E-3,-2.596100792E-3
2.987412690E-1,3.054236295E-4,-2.290677279E-3,-2.596100792E-3
3.011866330E-1,-9.162708884E-4,-1.068982761E-3,-1.374406274E-3
3.036312170E-1,3.054236295E-4,1.527118147E-4,-1.374406274E-3
3.060749150E-1,1.527118147E-3,1.527118147E-4,-1.374406274E-3
3.085195500E-1,3.054236295E-4,-1.068982761E-3,2.290677279E-3
3.109649150E-1,3.054236295E-4,-2.290677279E-3,1.068982761E-3
3.134094980E-1,3.054236295E-4,-1.068982761E-3,1.068982761E-3
3.158532480E-1,1.527118147E-3,1.527118147E-4,-1.374406274E-3
3.182978830E-1,3.054236295E-4,1.527118147E-4,-1.527118147E-4
3.207432480E-1,-2.137965523E-3,1.527118147E-4,-1.527118147E-4
3.231878310E-1,3.054236295E-4,1.527118147E-4,-1.374406274E-3
3.256315290E-1,3.054236295E-4,-1.068982761E-3,-1.527118147E-4
3.280761650E-1,1.527118147E-3,1.527118147E-4,-1.527118147E-4
3.305215290E-1,-9.162708884E-4,1.527118147E-4,-1.527118147E-4
3.329661120E-1,-9.162708884E-4,1.527118147E-4,-1.527118147E-4
3.354098620E-1,3.054236295E-4,1.527118147E-4,-1.374406274E-3
3.378544980E-1,3.054236295E-4,-1.068982761E-3,-1.527118147E-4
3.402998620E-1,3.054236295E-4,-1.068982761E-3,1.068982761E-3
3.427444460E-1,3.054236295E-4,-1.068982761E-3,-1.527118147E-4
3.451881440E-1,-9.162708884E-4,1.527118147E-4,-1.527118147E-4
3.476327790E-1,1.527118147E-3,-2.290677279E-3,-1.374406274E-3
3.500781440E-1,1.527118147E-3,-1.068982761E-3,-1.527118147E-4
3.525227270E-1,3.054236295E-4,-1.068982761E-3,1.068982761E-3
3.549664770E-1,3.054236295E-4,1.527118147E-4,1.068982761E-3
3.574111120E-1,-9.162708884E-4,1.374406274E-3,-2.596100792E-3
3.598564770E-1,3.054236295E-4,1.527118147E-4,-1.374406274E-3
3.623010600E-1,-9.162708884E-4,1.374406274E-3,-1.527118147E-4
3.647447580E-1,-9.162708884E-4,1.374406274E-3,-1.374406274E-3
3.671893940E-1,3.054236295E-4,-1.068982761E-3,-1.527118147E-4
3.696347580E-1,-9.162708884E-4,1.527118147E-4,-2.596100792E-3
3.720793420E-1,3.054236295E-4,1.527118147E-4,-1.374406274E-3
3.745230920E-1,3.054236295E-4,1.527118147E-4,-1.374406274E-3
3.769676750E-1,1.527118147E-3,-1.068982761E-3,1.068982761E-3
3.794130920E-1,-9.162708884E-4,-2.290677279E-3,-1.527118147E-4
3.818575710E-1,-3.359660041E-3,1.374406274E-3,-1.374406274E-3
3.843013730E-1,-9.162708884E-4,-1.068982761E-3,-1.527118147E-4
3.867460080E-1,3.054236295E-4,-1.068982761E-3,1.068982761E-3
3.891913730E-1,1.527118147E-3,-1.068982761E-3,-1.527118147E-4
3.916359560E-1,-9.162708884E-4,1.374406274E-3,-1.374406274E-3
3.940797060E-1,3.054236295E-4,-1.068982761E-3,-1.527118147E-4
3.965242900E-1,1.527118147E-3,-1.068982761E-3,-1.527118147E-4
3.989697060E-1,1.527118147E-3,1.527118147E-4,-1.374406274E-3
4.014141850E-1,1.527118147E-3,-1.068982761E-3,-1.527118147E-4
4.038579870E-1,1.527118147E-3,1.527118147E-4,1.068982761E-3
4.063026230E-1,-9.162708884E-4,-1.068982761E-3,-2.596100792E-3
4.087479870E-1,-9.162708884E-4,-1.068982761E-3,-1.527118147E-4
4.111925710E-1,3.054236295E-4,-2.290677279E-3,1.068982761E-3
4.136362690E-1,3.054236295E-4,-1.068982761E-3,-1.527118147E-4
4.160809040E-1,1.527118147E-3,-1.068982761E-3,-1.527118147E-4
4.185262690E-1,1.527118147E-3,-1.068982761E-3,-1.527118147E-4
4.209708520E-1,3.054236295E-4,1.527118147E-4,1.068982761E-3
4.234146020E-1,-9.162708884E-4,1.527118147E-4,-1.374406274E-3
4.258592370E-1,3.054236295E-4,1.527118147E-4,1.068982761E-3
4.283046020E-1,3.054236295E-4,1.527118147E-4,-1.374406274E-3
4.307491850E-1,3.054236295E-4,1.527118147E-4,1.068982761E-3
4.331928830E-1,3.054236295E-4,-1.068982761E-3,3.512371797E-3
4.356375190E-1,3.054236295E-4,1.527118147E-4,-1.527118147E-4
4.380828830E-1,3.054236295E-4,-1.068982761E-3,1.068982761E-3
4.405274670E-1,3.054236295E-4,1.527118147E-4,1.068982761E-3
4.429712170E-1,3.054236295E-4,-2.290677279E-3,1.068982761E-3
4.454158520E-1,3.054236295E-4,-1.068982761E-3,-1.527118147E-4
4.478612170E-1,3.054236295E-4,-1.068982761E-3,-2.596100792E-3
4.503058000E-1,3.054236295E-4,1.527118147E-4,-1.527118147E-4
4.527494980E-1,3.054236295E-4,1.527118147E-4,2.290677279E-3
4.551941330E-1,2.748812549E-3,-1.068982761E-3,-1.527118147E-4
4.576394980E-1,-9.162708884E-4,1.527118147E-4,-2.596100792E-3
4.600840810E-1,-9.162708884E-4,-1.068982761E-3,-1.374406274E-3
4.625278310E-1,-9.162708884E-4,1.527118147E-4,-1.374406274E-3
4.649724670E-1,-3.359660041E-3,1.527118147E-4,-2.596100792E-3
4.674178310E-1,3.054236295E-4,1.527118147E-4,-1.527118147E-4
4.698624150E-1,3.054236295E-4,1.527118147E-4,-1.527118147E-4
4.723061120E-1,1.527118147E-3,-1.068982761E-3,-1.527118147E-4
4.747507480E-1,1.527118147E-3,-1.068982761E-3,-1.374406274E-3
4.771961120E-1,1.527118147E-3,-1.068982761E-3,1.068982761E-3
4.796406960E-1,3.054236295E-4,1.527118147E-4,1.068982761E-3
4.820844460E-1,-9.162708884E-4,-1.068982761E-3,-1.527118147E-4
4.845290810E-1,-9.162708884E-4,-1.068982761E-3,-1.527118147E-4
4.869744460E-1,1.527118147E-3,1.527118147E-4,-1.374406274E-3
4.894190290E-1,3.054236295E-4,-1.068982761E-3,-1.527118147E-4
4.918627270E-1,-9.162708884E-4,-2.290677279E-3,-1.374406274E-3
4.943073620E-1,3.054236295E-4,-2.290677279E-3,-1.374406274E-3
4.967527270E-1,3.054236295E-4,-2.290677279E-3,-1.527118147E-4
4.991973100E-1,-9.162708884E-4,1.527118147E-4,-1.527118147E-4
5.016410600E-1,3.054236295E-4,2.596100792E-3,-1.527118147E-4
5.040856960E-1,3.054236295E-4,-1.068982761E-3,-1.527118147E-4
5.065310600E-1,1.527118147E-3,1.527118147E-4,1.068982761E-3
5.089756440E-1,3.054236295E-4,1.527118147E-4,-2.596100792E-3
5.114193420E-1,3.054236295E-4,1.374406274E-3,-1.527118147E-4
5.138639770E-1,3.054236295E-4,1.374406274E-3,-1.527118147E-4
5.163093420E-1,-9.162708884E-4,1.527118147E-4,-1.527118147E-4
5.187539250E-1,-3.359660041E-3,-2.290677279E-3,-1.374406274E-3
5.211976750E-1,2.748812549E-3,-2.290677279E-3,1.068982761E-3
5.236422580E-1,-9.162708884E-4,-1.068982761E-3,-1.527118147E-4
5.260876750E-1,3.054236295E-4,1.374406274E-3,-1.527118147E-4
5.285321540E-1,3.054236295E-4,1.527118147E-4,-2.596100792E-3
5.309759560E-1,1.527118147E-3,1.527118147E-4,-1.527118147E-4
5.334205920E-1,1.527118147E-3,-1.068982761E-3,1.068982761E-3
5.358659560E-1,1.527118147E-3,-1.068982761E-3,-1.527118147E-4
5.383105400E-1,3.054236295E-4,1.527118147E-4,-1.527118147E-4
5.407542900E-1,1.527118147E-3,1.527118147E-4,-1.527118147E-4
5.431988730E-1,-9.162708884E-4,1.527118147E-4,-1.374406274E-3
5.456442900E-1,-9.162708884E-4,1.527118147E-4,-1.527118147E-4
5.480887690E-1,3.054236295E-4,-1.068982761E-3,1.068982761E-3
5.505325710E-1,-9.162708884E-4,-1.068982761E-3,-1.527118147E-4
5.529772060E-1,1.527118147E-3,1.527118147E-4,-1.374406274E-3
5.554225710E-1,3.054236295E-4,-1.068982761E-3,-1.527118147E-4
5.578671540E-1,3.054236295E-4,1.374406274E-3,-1.527118147E-4
5.603108520E-1,3.054236295E-4,1.374406274E-3,-1.527118147E-4
5.627554870E-1,-9.162708884E-4,-1.068982761E-3,-1.374406274E-3
5.652009040E-1,3.054236295E-4,1.527118147E-4,-2.596100792E-3
5.676453830E-1,3.054236295E-4,1.527118147E-4,1.068982761E-3
5.700891850E-1,-9.162708884E-4,-1.068982761E-3,2.290677279E-3
5.725338210E-1,1.527118147E-3,1.527118147E-4,-1.527118147E-4
5.749791850E-1,3.054236295E-4,-1.068982761E-3,-1.527118147E-4
5.774237690E-1,-9.162708884E-4,-1.068982761E-3,-1.527118147E-4
5.798674670E-1,1.527118147E-3,-1.068982761E-3,3.512371797E-3
5.823121020E-1,3.054236295E-4,1.527118147E-4,-1.527118147E-4
5.847575190E-1,3.054236295E-4,-1.068982761E-3,-1.374406274E-3
5.872019980E-1,1.527118147E-3,1.527118147E-4,-1.527118147E-4
5.896458000E-1,-9.162708884E-4,1.374406274E-3,1.068982761E-3
5.920904350E-1,3.054236295E-4,1.374406274E-3,-1.374406274E-3
5.945358000E-1,1.527118147E-3,1.374406274E-3,-1.374406274E-3
5.969803830E-1,3.054236295E-4,-2.290677279E-3,-1.527118147E-4
5.994240810E-1,3.054236295E-4,-1.068982761E-3,-1.527118147E-4
6.018687170E-1,-9.162708884E-4,-1.068982761E-3,-1.527118147E-4
6.043140810E-1,1.527118147E-3,1.527118147E-4,1.068982761E-3
6.067586650E-1,3.054236295E-4,-1.068982761E-3,1.068982761E-3
6.092024150E-1,3.054236295E-4,1.527118147E-4,-1.527118147E-4
6.116470500E-1,3.054236295E-4,1.527118147E-4,1.068982761E-3
6.140924150E-1,-9.162708884E-4,1.374406274E-3,-1.527118147E-4
6.165369980E-1,-2.137965523E-3,-1.068982761E-3,-1.527118147E-4
6.189806960E-1,-9.162708884E-4,-1.068982761E-3,-1.527118147E-4
6.214253310E-1,3.054236295E-4,1.527118147E-4,-1.374406274E-3
6.238706960E-1,3.054236295E-4,1.374406274E-3,-1.527118147E-4
6.263152790E-1,3.054236295E-4,1.374406274E-3,1.068982761E-3
6.287590290E-1,3.054236295E-4,1.374406274E-3,-1.527118147E-4
6.312036650E-1,3.054236295E-4,1.527118147E-4,-1.527118147E-4
6.336490290E-1,1.527118147E-3,-1.068982761E-3,-1.374406274E-3
6.360936120E-1,3.054236295E-4,1.527118147E-4,-1.527118147E-4
6.385373100E-1,3.054236295E-4,1.527118147E-4,-1.374406274E-3
6.409819460E-1,3.054236295E-4,2.596100792E-3,-1.527118147E-4
6.434273100E-1,-2.137965523E-3,1.527118147E-4,-1.374406274E-3
6.458718940E-1,-9.162708884E-4,-1.068982761E-3,-1.374406274E-3
6.483156440E-1,3.054236295E-4,-2.290677279E-3,1.068982761E-3
6.507602790E-1,3.054236295E-4,-1.068982761E-3,-1.527118147E-4
6.532056440E-1,3.054236295E-4,1.527118147E-4,-1.374406274E-3
6.556502270E-1,1.527118147E-3,1.527118147E-4,1.068982761E-3
6.580939250E-1,3.054236295E-4,1.527118147E-4,-1.374406274E-3
6.605385600E-1,-9.162708884E-4,1.374406274E-3,-1.527118147E-4
6.629839250E-1,-9.162708884E-4,-1.068982761E-3,-1.527118147E-4
6.654285080E-1,-9.162708884E-4,-2.290677279E-3,-1.527118147E-4
6.678722580E-1,3.054236295E-4,1.374406274E-3,-1.527118147E-4
6.703168940E-1,-9.162708884E-4,1.527118147E-4,-2.596100792E-3
6.727622580E-1,3.054236295E-4,-1.068982761E-3,-1.374406274E-3
6.752068420E-1,-9.162708884E-4,1.527118147E-4,-1.527118147E-4
6.776505400E-1,3.054236295E-4,1.527118147E-4,-1.374406274E-3
6.800951750E-1,3.054236295E-4,-1.068982761E-3,-1.374406274E-3
6.825405400E-1,3.054236295E-4,1.527118147E-4,-1.527118147E-4
6.849851230E-1,-9.162708884E-4,1.374406274E-3,-1.374406274E-3
6.874288730E-1,-9.162708884E-4,1.527118147E-4,-2.596100792E-3
6.898734560E-1,-9.162708884E-4,1.527118147E-4,-1.527118147E-4
6.923188730E-1,3.054236295E-4,-1.068982761E-3,1.068982761E-3
6.947633520E-1,-9.162708884E-4,-1.068982761E-3,1.068982761E-3
6.972071540E-1,3.054236295E-4,-2.290677279E-3,1.068982761E-3
6.996517900E-1,3.054236295E-4,-1.068982761E-3,1.068982761E-3
7.020971540E-1,3.054236295E-4,1.527118147E-4,3.512371797E-3
7.045417370E-1,-9.162708884E-4,1.374406274E-3,1.068982761E-3
7.069854870E-1,-9.162708884E-4,1.374406274E-3,-1.374406274E-3
7.094300710E-1,3.054236295E-4,-2.290677279E-3,-1.527118147E-4
7.118754870E-1,-9.162708884E-4,-2.290677279E-3,1.068982761E-3
7.143199670E-1,3.054236295E-4,1.527118147E-4,-1.527118147E-4
7.167637690E-1,-9.162708884E-4,1.527118147E-4,-1.527118147E-4
7.192084040E-1,3.054236295E-4,-1.068982761E-3,-2.596100792E-3
7.216537690E-1,3.054236295E-4,1.527118147E-4,2.290677279E-3
7.240983520E-1,3.054236295E-4,1.527118147E-4,2.290677279E-3
7.265421020E-1,1.527118147E-3,2.596100792E-3,-1.374406274E-3
7.289866850E-1,-9.162708884E-4,1.527118147E-4,-2.596100792E-3
7.314321020E-1,3.054236295E-4,1.527118147E-4,1.068982761E-3
7.338765810E-1,3.054236295E-4,1.527118147E-4,2.290677279E-3
7.363203830E-1,3.054236295E-4,-1.068982761E-3,-1.527118147E-4
7.387650190E-1,3.054236295E-4,-3.512371797E-3,-1.374406274E-3
7.412103830E-1,-9.162708884E-4,1.527118147E-4,-1.527118147E-4
7.436549670E-1,1.527118147E-3,-3.512371797E-3,1.068982761E-3
7.460987170E-1,3.054236295E-4,-1.068982761E-3,1.068982761E-3
7.485433000E-1,3.054236295E-4,1.527118147E-4,-1.527118147E-4
7.509886650E-1,-9.162708884E-4,1.374406274E-3,-1.527118147E-4
7.534332480E-1,3.054236295E-4,1.527118147E-4,-1.374406274E-3
7.558769980E-1,3.054236295E-4,1.527118147E-4,-1.527118147E-4
7.583216330E-1,-9.162708884E-4,1.527118147E-4,-1.527118147E-4
7.607669980E-1,-2.137965523E-3,-1.068982761E-3,-1.374406274E-3
7.632115810E-1,3.054236295E-4,1.527118147E-4,-1.527118147E-4
7.656552790E-1,3.054236295E-4,1.527118147E-4,-1.374406274E-3
7.680999150E-1,-9.162708884E-4,1.374406274E-3,-1.374406274E-3
7.705452790E-1,3.054236295E-4,1.527118147E-4,1.068982761E-3
7.729898620E-1,1.527118147E-3,-1.068982761E-3,3.512371797E-3
7.754336120E-1,3.054236295E-4,1.374406274E-3,-1.527118147E-4
7.778782480E-1,1.527118147E-3,1.527118147E-4,-1.527118147E-4
7.803236120E-1,3.054236295E-4,1.527118147E-4,1.068982761E-3
7.827681960E-1,-9.162708884E-4,-2.290677279E-3,-1.527118147E-4
7.852118940E-1,-9.162708884E-4,1.527118147E-4,-1.527118147E-4
7.876565290E-1,3.054236295E-4,-2.290677279E-3,-1.527118147E-4
7.901018940E-1,3.054236295E-4,1.527118147E-4,-1.527118147E-4
7.925464770E-1,-9.162708884E-4,1.527118147E-4,-1.527118147E-4
7.949902270E-1,-9.162708884E-4,-1.068982761E-3,-1.374406274E-3
7.974348620E-1,1.527118147E-3,-1.068982761E-3,-1.374406274E-3
7.998802270E-1,-9.162708884E-4,1.527118147E-4,-1.527118147E-4
8.023248100E-1,3.054236295E-4,1.374406274E-3,1.068982761E-3
8.047685080E-1,3.054236295E-4,-1.068982761E-3,-1.374406274E-3
8.072131440E-1,1.527118147E-3,1.527118147E-4,-1.527118147E-4
8.096585080E-1,3.054236295E-4,-1.068982761E-3,-1.527118147E-4
8.121030920E-1,1.527118147E-3,1.527118147E-4,-1.374406274E-3
8.145468420E-1,3.054236295E-4,1.527118147E-4,3.512371797E-3
8.169914770E-1,3.054236295E-4,1.374406274E-3,-1.527118147E-4
8.194368420E-1,3.054236295E-4,1.527118147E-4,-1.527118147E-4
8.218814250E-1,1.527118147E-3,-1.068982761E-3,-1.527118147E-4
8.243251230E-1,3.054236295E-4,1.527118147E-4,1.068982761E-3
8.267697580E-1,-9.162708884E-4,1.374406274E-3,-1.527118147E-4
8.292151230E-1,1.527118147E-3,-2.290677279E-3,-1.527118147E-4
8.316597060E-1,-9.162708884E-4,-1.068982761E-3,-1.374406274E-3
8.341034560E-1,3.054236295E-4,-1.068982761E-3,-1.527118147E-4
8.365480920E-1,3.054236295E-4,1.527118147E-4,-1.527118147E-4
8.389934560E-1,-9.162708884E-4,1.527118147E-4,1.068982761E-3
8.414380400E-1,1.527118147E-3,-1.068982761E-3,-1.374406274E-3
8.438817370E-1,-2.137965523E-3,-2.290677279E-3,-3.817795310E-3
8.463263730E-1,3.054236295E-4,-1.068982761E-3,2.290677279E-3
8.487717370E-1,1.527118147E-3,-1.068982761E-3,1.068982761E-3
8.512163210E-1,3.054236295E-4,-1.068982761E-3,-1.374406274E-3
8.536600710E-1,3.054236295E-4,-3.512371797E-3,-1.374406274E-3
8.561047060E-1,3.054236295E-4,-1.068982761E-3,1.068982761E-3
8.585500710E-1,3.054236295E-4,1.374406274E-3,-1.374406274E-3
8.609945500E-1,1.527118147E-3,-1.068982761E-3,-1.527118147E-4
8.634383520E-1,-9.162708884E-4,-1.068982761E-3,1.068982761E-3
8.658829870E-1,1.527118147E-3,-1.068982761E-3,-1.527118147E-4
8.683283520E-1,3.054236295E-4,1.527118147E-4,-2.596100792E-3
8.707729350E-1,-9.162708884E-4,1.527118147E-4,-1.374406274E-3
8.732166850E-1,3.054236295E-4,1.374406274E-3,1.068982761E-3
8.756613210E-1,3.054236295E-4,-1.068982761E-3,-1.527118147E-4
8.781066850E-1,-9.162708884E-4,1.527118147E-4,-1.374406274E-3
8.805511650E-1,1.527118147E-3,-1.068982761E-3,2.290677279E-3
8.829949670E-1,-9.162708884E-4,-1.068982761E-3,2.290677279E-3
8.854396020E-1,2.748812549E-3,1.527118147E-4,2.290677279E-3
8.878849670E-1,3.054236295E-4,1.527118147E-4,-1.374406274E-3
8.903295500E-1,3.054236295E-4,1.527118147E-4,-1.527118147E-4
8.927733000E-1,-2.137965523E-3,1.527118147E-4,1.068982761E-3
8.952178830E-1,3.054236295E-4,-2.290677279E-3,-1.527118147E-4
8.976633000E-1,3.054236295E-4,-1.068982761E-3,-2.596100792E-3
9.001077790E-1,3.054236295E-4,1.527118147E-4,1.068982761E-3
9.025515810E-1,-9.162708884E-4,1.527118147E-4,-1.527118147E-4
9.049962170E-1,-9.162708884E-4,1.527118147E-4,-1.374406274E-3
9.074415810E-1,-9.162708884E-4,1.374406274E-3,-1.527118147E-4
9.098861650E-1,-9.162708884E-4,1.527118147E-4,1.068982761E-3
9.123298620E-1,1.527118147E-3,1.527118147E-4,-1.527118147E-4
9.147744980E-1,-9.162708884E-4,-1.068982761E-3,-1.374406274E-3
9.172199150E-1,3.054236295E-4,1.527118147E-4,1.068982761E-3
9.196643940E-1,2.748812549E-3,-1.068982761E-3,1.068982761E-3
9.221081960E-1,1.527118147E-3,1.527118147E-4,-1.374406274E-3
9.245528310E-1,3.054236295E-4,-1.068982761E-3,-1.374406274E-3
9.269981960E-1,1.527118147E-3,-2.290677279E-3,-1.527118147E-4
9.294427790E-1,3.054236295E-4,-1.068982761E-3,-1.374406274E-3
9.318864770E-1,3.054236295E-4,-2.290677279E-3,-1.374406274E-3
9.343311120E-1,-9.162708884E-4,-2.290677279E-3,-1.527118147E-4
9.367764770E-1,-2.137965523E-3,1.527118147E-4,-1.374406274E-3
9.392210600E-1,2.748812549E-3,1.527118147E-4,-1.527118147E-4
9.416648100E-1,3.054236295E-4,-1.068982761E-3,-1.527118147E-4
9.441094460E-1,-9.162708884E-4,1.374406274E-3,-1.374406274E-3
9.465548100E-1,1.527118147E-3,-1.068982761E-3,2.290677279E-3
9.489993940E-1,3.054236295E-4,1.527118147E-4,-1.527118147E-4
9.514430920E-1,3.054236295E-4,1.527118147E-4,-1.527118147E-4
9.538877270E-1,3.054236295E-4,1.527118147E-4,-1.527118147E-4
9.563330920E-1,3.054236295E-4,-1.068982761E-3,1.068982761E-3
9.587776750E-1,3.054236295E-4,-2.290677279E-3,1.068982761E-3
9.612214250E-1,3.054236295E-4,1.527118147E-4,-1.527118147E-4
9.636660600E-1,-9.162708884E-4,1.527118147E-4,-1.527118147E-4
9.661114250E-1,-9.162708884E-4,-1.068982761E-3,1.068982761E-3
9.685560080E-1,3.054236295E-4,-2.290677279E-3,-1.527118147E-4
9.709997060E-1,-9.162708884E-4,1.527118147E-4,-1.527118147E-4
9.734443420E-1,-9.162708884E-4,1.527118147E-4,-1.527118147E-4
9.758897060E-1,-9.162708884E-4,-1.068982761E-3,-2.596100792E-3
9.783342900E-1,3.054236295E-4,1.527118147E-4,-1.374406274E-3
9.807780400E-1,3.054236295E-4,1.527118147E-4,-1.527118147E-4
9.832226750E-1,-9.162708884E-4,-1.068982761E-3,-1.527118147E-4
9.856680400E-1,-2.137965523E-3,1.374406274E-3,-1.527118147E-4
9.881126230E-1,-9.162708884E-4,1.527118147E-4,-1.527118147E-4
9.905563210E-1,3.054236295E-4,1.374406274E-3,-1.374406274E-3
9.930009560E-1,3.054236295E-4,1.527118147E-4,-2.596100792E-3
9.954463210E-1,3.054236295E-4,-2.290677279E-3,-1.527118147E-4
9.978909040E-1,3.054236295E-4,-2.290677279E-3,-1.527118147E-4
1.000334654E0,-9.162708884E-4,-1.068982761E-3,1.068982761E-3
1.002779290E0,3.054236295E-4,1.527118147E-4,-3.817795310E-3
1.005224654E0,-9.162708884E-4,-2.290677279E-3,-2.596100792E-3
1.007669237E0,-9.162708884E-4,-1.068982761E-3,-1.527118147E-4
1.010112935E0,-9.162708884E-4,1.527118147E-4,-1.374406274E-3
1.012557571E0,3.054236295E-4,1.527118147E-4,-1.527118147E-4
1.015002935E0,3.054236295E-4,1.527118147E-4,-1.527118147E-4
1.017447519E0,-3.359660041E-3,1.527118147E-4,-2.596100792E-3
1.019891269E0,3.054236295E-4,1.374406274E-3,-1.527118147E-4
1.022335852E0,1.527118147E-3,1.527118147E-4,-1.374406274E-3
1.024781269E0,3.054236295E-4,1.527118147E-4,-1.374406274E-3
1.027225852E0,3.054236295E-4,-1.068982761E-3,1.068982761E-3
1.029669550E0,3.054236295E-4,1.527118147E-4,2.290677279E-3
1.032114185E0,3.054236295E-4,1.527118147E-4,-1.374406274E-3
1.034559550E0,-9.162708884E-4,1.374406274E-3,-1.374406274E-3
1.037004133E0,3.054236295E-4,1.527118147E-4,-1.374406274E-3
1.039447883E0,1.527118147E-3,-1.068982761E-3,3.512371797E-3
1.041892519E0,3.054236295E-4,1.527118147E-4,1.068982761E-3
1.044337883E0,-9.162708884E-4,1.527118147E-4,-3.817795310E-3
1.046782362E0,-9.162708884E-4,1.527118147E-4,-1.527118147E-4
1.049226165E0,-9.162708884E-4,1.527118147E-4,-1.527118147E-4
1.051670800E0,3.054236295E-4,-1.068982761E-3,-1.374406274E-3
1.054116165E0,3.054236295E-4,-2.290677279E-3,-1.527118147E-4
1.056560748E0,-9.162708884E-4,1.374406274E-3,-1.374406274E-3
1.059004498E0,-9.162708884E-4,1.374406274E-3,-1.527118147E-4
1.061449081E0,3.054236295E-4,1.374406274E-3,-1.374406274E-3
1.063894498E0,1.527118147E-3,1.527118147E-4,1.068982761E-3
1.066338977E0,1.527118147E-3,-1.068982761E-3,1.068982761E-3
1.068782779E0,3.054236295E-4,1.527118147E-4,1.068982761E-3
1.071227415E0,3.054236295E-4,1.527118147E-4,-1.527118147E-4
1.073672779E0,3.054236295E-4,1.374406274E-3,-1.527118147E-4
1.076117362E0,3.054236295E-4,1.374406274E-3,-1.527118147E-4
1.078561060E0,3.054236295E-4,1.374406274E-3,-1.527118147E-4
1.081005696E0,3.054236295E-4,1.374406274E-3,-3.817795310E-3
1.083451060E0,-9.162708884E-4,-1.068982761E-3,-2.596100792E-3
1.085895644E0,3.054236295E-4,1.374406274E-3,1.068982761E-3
1.088339394E0,1.527118147E-3,-1.068982761E-3,-1.527118147E-4
1.090784029E0,2.748812549E-3,-2.290677279E-3,1.068982761E-3
1.093229394E0,3.054236295E-4,1.527118147E-4,1.068982761E-3
1.095673977E0,3.054236295E-4,2.596100792E-3,1.068982761E-3
1.098117675E0,-9.162708884E-4,1.527118147E-4,-1.527118147E-4
1.100562310E0,3.054236295E-4,1.374406274E-3,1.068982761E-3
1.103007675E0,3.054236295E-4,-1.068982761E-3,-1.527118147E-4
1.105452258E0,-9.162708884E-4,1.527118147E-4,-2.596100792E-3
1.107896008E0,1.527118147E-3,-1.068982761E-3,1.068982761E-3
1.110340644E0,3.054236295E-4,1.527118147E-4,2.290677279E-3
1.112786008E0,3.054236295E-4,1.527118147E-4,1.068982761E-3
1.115230592E0,-9.162708884E-4,-1.068982761E-3,-1.527118147E-4
1.117674290E0,1.527118147E-3,1.374406274E-3,1.068982761E-3
1.120118925E0,2.748812549E-3,-1.068982761E-3,2.290677279E-3
1.122564290E0,3.054236295E-4,1.527118147E-4,2.290677279E-3
1.125008873E0,1.527118147E-3,-1.068982761E-3,1.068982761E-3
1.127452623E0,-9.162708884E-4,1.527118147E-4,-1.527118147E-4
1.129897258E0,3.054236295E-4,-1.068982761E-3,-1.527118147E-4
1.132342623E0,3.054236295E-4,-1.068982761E-3,-1.527118147E-4
1.134787206E0,3.054236295E-4,1.527118147E-4,-1.527118147E-4
1.137230904E0,3.054236295E-4,-1.068982761E-3,-1.527118147E-4
1.139675540E0,3.054236295E-4,-1.068982761E-3,-1.374406274E-3
1.142120904E0,-9.162708884E-4,1.527118147E-4,-1.374406274E-3
1.144565487E0,1.527118147E-3,-1.068982761E-3,1.068982761E-3
1.147009237E0,1.527118147E-3,-1.068982761E-3,-1.527118147E-4
1.149453873E0,1.527118147E-3,1.374406274E-3,-1.527118147E-4
1.151899237E0,1.527118147E-3,-3.512371797E-3,-1.527118147E-4
1.154343821E0,1.527118147E-3,-2.290677279E-3,-2.596100792E-3
1.156787519E0,3.054236295E-4,1.527118147E-4,1.068982761E-3
1.159232154E0,-9.162708884E-4,1.527118147E-4,1.068982761E-3
1.161677519E0,1.527118147E-3,-1.068982761E-3,-1.527118147E-4
1.164122102E0,3.054236295E-4,-1.068982761E-3,-1.374406274E-3
1.166565852E0,3.054236295E-4,-2.290677279E-3,-1.527118147E-4
1.169010487E0,1.527118147E-3,-1.068982761E-3,1.068982761E-3
1.171455852E0,-9.162708884E-4,-1.068982761E-3,-1.527118147E-4
1.173900435E0,-9.162708884E-4,1.527118147E-4,-1.527118147E-4
1.176344133E0,3.054236295E-4,1.527118147E-4,-1.374406274E-3
1.178788769E0,3.054236295E-4,1.527118147E-4,-1.527118147E-4
1.181234133E0,-9.162708884E-4,-2.290677279E-3,-1.527118147E-4
1.183678717E0,-9.162708884E-4,-1.068982761E-3,-1.374406274E-3
1.186122467E0,3.054236295E-4,1.527118147E-4,-1.527118147E-4
1.188567102E0,3.054236295E-4,-2.290677279E-3,1.068982761E-3
1.191012467E0,3.054236295E-4,-2.290677279E-3,1.068982761E-3
1.193456946E0,3.054236295E-4,1.527118147E-4,2.290677279E-3
1.195900748E0,3.054236295E-4,1.527118147E-4,-1.527118147E-4
1.198345383E0,3.054236295E-4,1.527118147E-4,1.068982761E-3
1.200790748E0,1.527118147E-3,-1.068982761E-3,-1.374406274E-3
1.203235331E0,1.527118147E-3,-2.290677279E-3,-1.527118147E-4
1.205679081E0,1.527118147E-3,-1.068982761E-3,-1.374406274E-3
1.208123665E0,-9.162708884E-4,1.527118147E-4,-2.596100792E-3
1.210569081E0,3.054236295E-4,1.527118147E-4,-1.527118147E-4
1.213013560E0,1.527118147E-3,1.527118147E-4,-1.527118147E-4
1.215457362E0,3.054236295E-4,1.527118147E-4,-1.527118147E-4
1.217901998E0,1.527118147E-3,-2.290677279E-3,-1.527118147E-4
1.220347362E0,3.054236295E-4,1.527118147E-4,2.290677279E-3
1.222791946E0,1.527118147E-3,1.527118147E-4,1.068982761E-3
1.225235644E0,3.054236295E-4,1.527118147E-4,-1.527118147E-4
1.227680279E0,3.054236295E-4,1.527118147E-4,-1.527118147E-4
1.230125696E0,1.527118147E-3,1.527118147E-4,1.068982761E-3
1.232570175E0,3.054236295E-4,1.527118147E-4,-1.527118147E-4
1.235013977E0,3.054236295E-4,-1.068982761E-3,1.068982761E-3
1.237458612E0,3.054236295E-4,1.374406274E-3,1.068982761E-3
1.239903977E0,-9.162708884E-4,1.527118147E-4,-1.527118147E-4
1.242348560E0,-9.162708884E-4,1.527118147E-4,1.068982761E-3
1.244792258E0,3.054236295E-4,-1.068982761E-3,-1.527118147E-4
1.247236894E0,3.054236295E-4,1.374406274E-3,-1.527118147E-4
1.249682258E0,3.054236295E-4,-2.290677279E-3,-1.374406274E-3
1.252126842E0,3.054236295E-4,1.527118147E-4,-1.527118147E-4
1.254570592E0,-9.162708884E-4,1.527118147E-4,-1.527118147E-4
1.257015227E0,1.527118147E-3,1.527118147E-4,-1.527118147E-4
1.259460592E0,3.054236295E-4,-1.068982761E-3,-1.374406274E-3
1.261905175E0,1.527118147E-3,1.527118147E-4,1.068982761E-3
1.264348873E0,-9.162708884E-4,-1.068982761E-3,1.068982761E-3
1.266793508E0,3.054236295E-4,1.527118147E-4,-1.527118147E-4
1.269238873E0,3.054236295E-4,-1.068982761E-3,-1.374406274E-3
1.271683456E0,1.527118147E-3,-1.068982761E-3,1.068982761E-3
1.274127206E0,-9.162708884E-4,1.527118147E-4,-1.374406274E-3
1.276571842E0,3.054236295E-4,1.374406274E-3,-1.374406274E-3
1.279017206E0,3.054236295E-4,1.527118147E-4,-1.527118147E-4
1.281461790E0,3.054236295E-4,1.527118147E-4,1.068982761E-3
1.283905487E0,1.527118147E-3,-2.290677279E-3,1.068982761E-3
1.286350123E0,1.527118147E-3,1.527118147E-4,-1.374406274E-3
1.288795487E0,3.054236295E-4,1.527118147E-4,-1.527118147E-4
1.291240071E0,-9.162708884E-4,1.374406274E-3,-1.527118147E-4
1.293683821E0,3.054236295E-4,1.527118147E-4,-1.374406274E-3
1.296128456E0,1.527118147E-3,-1.068982761E-3,-1.527118147E-4
1.298573821E0,3.054236295E-4,-1.068982761E-3,-1.527118147E-4
1.301018404E0,-9.162708884E-4,1.527118147E-4,-2.596100792E-3
1.303462102E0,1.527118147E-3,-1.068982761E-3,-1.527118147E-4
1.305906737E0,3.054236295E-4,-1.068982761E-3,1.068982761E-3
1.308352102E0,3.054236295E-4,1.527118147E-4,1.068982761E-3
1.310796685E0,1.527118147E-3,1.527118147E-4,1.068982761E-3
1.313240435E0,1.527118147E-3,-1.068982761E-3,2.290677279E-3
1.315685071E0,-9.162708884E-4,1.374406274E-3,1.068982761E-3
1.318130435E0,-9.162708884E-4,-1.068982761E-3,-2.596100792E-3
1.320575019E0,3.054236295E-4,1.374406274E-3,-1.527118147E-4
1.323018717E0,3.054236295E-4,-1.068982761E-3,-1.527118147E-4
1.325463352E0,-9.162708884E-4,1.527118147E-4,-1.374406274E-3
1.327908717E0,3.054236295E-4,1.374406274E-3,-1.527118147E-4
1.330353300E0,-9.162708884E-4,1.527118147E-4,1.068982761E-3
1.332797050E0,3.054236295E-4,1.527118147E-4,1.068982761E-3
1.335241633E0,1.527118147E-3,-2.290677279E-3,-1.374406274E-3
1.337687050E0,-9.162708884E-4,-1.068982761E-3,1.068982761E-3
1.340131633E0,-9.162708884E-4,1.527118147E-4,1.068982761E-3
1.342575331E0,3.054236295E-4,1.527118147E-4,-1.527118147E-4
1.345019967E0,-9.162708884E-4,-1.068982761E-3,-1.527118147E-4
1.347465331E0,1.527118147E-3,1.527118147E-4,1.068982761E-3
1.349909915E0,1.527118147E-3,1.527118147E-4,1.068982761E-3
1.352353665E0,3.054236295E-4,-1.068982761E-3,-1.527118147E-4
1.354798248E0,3.054236295E-4,-1.068982761E-3,1.068982761E-3
1.357243665E0,3.054236295E-4,-1.068982761E-3,-1.527118147E-4
1.359688144E0,-9.162708884E-4,1.527118147E-4,1.068982761E-3
1.362131946E0,3.054236295E-4,-1.068982761E-3,-1.527118147E-4
1.364576581E0,1.527118147E-3,-1.068982761E-3,-1.527118147E-4
1.367021946E0,2.748812549E-3,-1.068982761E-3,-1.374406274E-3
1.369466529E0,1.527118147E-3,1.527118147E-4,-1.527118147E-4
1.371910279E0,3.054236295E-4,1.527118147E-4,-1.527118147E-4
1.374354862E0,3.054236295E-4,-2.290677279E-3,-1.527118147E-4
1.376800227E0,-9.162708884E-4,-1.068982761E-3,-1.374406274E-3
1.379244810E0,-9.162708884E-4,-1.068982761E-3,-1.527118147E-4
1.381688560E0,1.527118147E-3,-2.290677279E-3,1.068982761E-3
1.384133196E0,1.527118147E-3,-2.290677279E-3,-1.527118147E-4
1.386578560E0,-9.162708884E-4,1.527118147E-4,-1.527118147E-4
1.389023144E0,-9.162708884E-4,-1.068982761E-3,-1.374406274E-3
1.391466842E0,3.054236295E-4,-1.068982761E-3,1.068982761E-3
1.393911477E0,3.054236295E-4,-1.068982761E-3,1.068982761E-3
1.396356842E0,-9.162708884E-4,1.527118147E-4,1.068982761E-3
1.398801425E0,-9.162708884E-4,1.527118147E-4,-1.527118147E-4
1.401245175E0,-9.162708884E-4,-1.068982761E-3,-1.374406274E-3
1.403689810E0,3.054236295E-4,1.527118147E-4,1.068982761E-3
1.406135175E0,-9.162708884E-4,-1.068982761E-3,-1.374406274E-3
1.408579758E0,3.054236295E-4,-1.068982761E-3,-1.527118147E-4
1.411023456E0,3.054236295E-4,1.527118147E-4,1.068982761E-3
1.413468092E0,3.054236295E-4,-1.068982761E-3,1.068982761E-3
1.415913456E0,1.527118147E-3,-1.068982761E-3,-1.527118147E-4
1.418358040E0,3.054236295E-4,-1.068982761E-3,-1.527118147E-4
1.420801790E0,3.054236295E-4,1.527118147E-4,1.068982761E-3
1.423246425E0,-9.162708884E-4,-1.068982761E-3,-1.374406274E-3
1.425691790E0,3.054236295E-4,1.527118147E-4,-1.527118147E-4
1.428136373E0,3.054236295E-4,1.374406274E-3,1.068982761E-3
1.430580071E0,1.527118147E-3,1.527118147E-4,-1.374406274E-3
1.433024706E0,2.748812549E-3,1.527118147E-4,-1.527118147E-4
1.435470071E0,1.527118147E-3,-2.290677279E-3,-1.374406274E-3
1.437914654E0,3.054236295E-4,-1.068982761E-3,1.068982761E-3
1.440358404E0,1.527118147E-3,-1.068982761E-3,-1.527118147E-4
1.442803040E0,3.054236295E-4,-1.068982761E-3,-1.527118147E-4
1.445248404E0,3.054236295E-4,-1.068982761E-3,-1.374406274E-3
1.447692987E0,3.054236295E-4,-2.290677279E-3,-1.527118147E-4
1.450136685E0,-9.162708884E-4,1.374406274E-3,1.068982761E-3
1.452581321E0,3.054236295E-4,1.374406274E-3,-1.527118147E-4
1.455026685E0,3.054236295E-4,-1.068982761E-3,-1.374406274E-3
1.457471269E0,3.054236295E-4,1.527118147E-4,-1.527118147E-4
1.459915019E0,-9.162708884E-4,1.374406274E-3,2.290677279E-3
1.462359654E0,3.054236295E-4,-1.068982761E-3,1.068982761E-3
1.464805019E0,3.054236295E-4,1.527118147E-4,-1.374406274E-3
1.467249602E0,3.054236295E-4,1.527118147E-4,-1.527118147E-4
1.469693300E0,-9.162708884E-4,2.596100792E-3,-1.527118147E-4
1.472137935E0,3.054236295E-4,1.527118147E-4,-1.527118147E-4
1.474583300E0,3.054236295E-4,1.527118147E-4,-1.374406274E-3
1.477027883E0,1.527118147E-3,1.527118147E-4,-1.527118147E-4
1.479471633E0,3.054236295E-4,-2.290677279E-3,-1.527118147E-4
1.481916217E0,1.527118147E-3,-1.068982761E-3,1.068982761E-3
1.484361633E0,3.054236295E-4,1.527118147E-4,1.068982761E-3
1.486806112E0,3.054236295E-4,1.527118147E-4,1.068982761E-3
1.489249915E0,1.527118147E-3,-2.290677279E-3,-1.527118147E-4
1.491694550E0,3.054236295E-4,1.527118147E-4,-1.527118147E-4
1.494139915E0,3.054236295E-4,1.527118147E-4,-1.527118147E-4
1.496584498E0,-9.162708884E-4,1.527118147E-4,1.068982761E-3
1.499028196E0,-9.162708884E-4,-1.068982761E-3,-1.527118147E-4
1.501472831E0,3.054236295E-4,-2.290677279E-3,-1.527118147E-4
1.503918248E0,3.054236295E-4,-1.068982761E-3,-1.527118147E-4
1.506362727E0,1.527118147E-3,1.527118147E-4,-1.374406274E-3
1.508806529E0,1.527118147E-3,1.527118147E-4,-2.596100792E-3
1.511251165E0,3.054236295E-4,1.374406274E-3,-1.374406274E-3
1.513696529E0,1.527118147E-3,-1.068982761E-3,1.068982761E-3
1.516141112E0,-9.162708884E-4,2.596100792E-3,-1.527118147E-4
1.518584810E0,-9.162708884E-4,1.374406274E-3,-1.527118147E-4
1.521029446E0,3.054236295E-4,1.527118147E-4,-1.374406274E-3
1.523474810E0,-9.162708884E-4,-1.068982761E-3,-1.527118147E-4
1.525919394E0,-9.162708884E-4,1.527118147E-4,-2.596100792E-3
1.528363144E0,-9.162708884E-4,1.527118147E-4,-1.374406274E-3
1.530807779E0,-9.162708884E-4,1.374406274E-3,1.068982761E-3
1.533253144E0,1.527118147E-3,1.527118147E-4,-1.527118147E-4
1.535697727E0,3.054236295E-4,-1.068982761E-3,-1.374406274E-3
1.538141425E0,-9.162708884E-4,1.527118147E-4,-1.527118147E-4
1.540586060E0,3.054236295E-4,1.527118147E-4,-1.527118147E-4
1.543031425E0,3.054236295E-4,-1.068982761E-3,1.068982761E-3
1.545476008E0,-9.162708884E-4,-1.068982761E-3,2.290677279E-3
1.547919758E0,-9.162708884E-4,1.527118147E-4,-1.527118147E-4
1.550364394E0,3.054236295E-4,-1.068982761E-3,-1.527118147E-4
1.552809758E0,3.054236295E-4,1.527118147E-4,-1.527118147E-4
1.555254342E0,3.054236295E-4,-1.068982761E-3,1.068982761E-3
1.557698040E0,1.527118147E-3,-1.068982761E-3,1.068982761E-3
1.560142675E0,3.054236295E-4,1.527118147E-4,-1.527118147E-4
1.562588040E0,-9.162708884E-4,-1.068982761E-3,1.068982761E-3
1.565032623E0,3.054236295E-4,1.527118147E-4,-1.527118147E-4
1.567476373E0,3.054236295E-4,-1.068982761E-3,-1.527118147E-4
1.569921008E0,1.527118147E-3,-2.290677279E-3,-1.527118147E-4
1.572366373E0,3.054236295E-4,-1.068982761E-3,1.068982761E-3
1.574810956E0,1.527118147E-3,-1.068982761E-3,-1.527118147E-4
1.577254654E0,3.054236295E-4,-3.512371797E-3,-1.527118147E-4
1.579699290E0,3.054236295E-4,-1.068982761E-3,1.068982761E-3
1.582144654E0,2.748812549E-3,1.527118147E-4,-1.527118147E-4
1.584589237E0,1.527118147E-3,1.527118147E-4,-1.374406274E-3
1.587032987E0,-9.162708884E-4,1.374406274E-3,1.068982761E-3
1.589477623E0,-9.162708884E-4,-1.068982761E-3,-1.374406274E-3
1.591922987E0,1.527118147E-3,-2.290677279E-3,-1.527118147E-4
1.594367571E0,1.527118147E-3,-1.068982761E-3,1.068982761E-3
1.596811269E0,1.527118147E-3,1.527118147E-4,-1.527118147E-4
1.599255904E0,3.054236295E-4,1.527118147E-4,-1.374406274E-3
1.601701269E0,3.054236295E-4,-1.068982761E-3,-1.374406274E-3
1.604145852E0,3.054236295E-4,1.527118147E-4,1.068982761E-3
1.606589602E0,3.054236295E-4,1.527118147E-4,1.068982761E-3
1.609034185E0,3.054236295E-4,1.527118147E-4,-1.527118147E-4
1.611479602E0,-9.162708884E-4,-2.290677279E-3,-1.374406274E-3
1.613924081E0,3.054236295E-4,1.527118147E-4,-1.374406274E-3
1.616367883E0,1.527118147E-3,-1.068982761E-3,1.068982761E-3
1.618812519E0,3.054236295E-4,1.527118147E-4,-1.374406274E-3
1.621257883E0,3.054236295E-4,-1.068982761E-3,-2.596100792E-3
1.623702467E0,1.527118147E-3,-1.068982761E-3,1.068982761E-3
1.626146217E0,1.527118147E-3,-1.068982761E-3,1.068982761E-3
1.628590800E0,3.054236295E-4,-1.068982761E-3,-1.527118147E-4
1.631036217E0,3.054236295E-4,-1.068982761E-3,-1.374406274E-3
1.633480696E0,3.054236295E-4,1.527118147E-4,1.068982761E-3
1.635924498E0,1.527118147E-3,-1.068982761E-3,1.068982761E-3
1.638369133E0,3.054236295E-4,-2.290677279E-3,-1.527118147E-4
1.640814498E0,3.054236295E-4,-1.068982761E-3,-1.527118147E-4
1.643259081E0,1.527118147E-3,-2.290677279E-3,-1.527118147E-4
1.645702779E0,-9.162708884E-4,-1.068982761E-3,-1.527118147E-4
1.648147415E0,-9.162708884E-4,1.527118147E-4,-1.527118147E-4
1.650592779E0,3.054236295E-4,-1.068982761E-3,-1.527118147E-4
1.653037362E0,-9.162708884E-4,1.374406274E-3,-1.527118147E-4
1.655481112E0,3.054236295E-4,1.527118147E-4,-1.527118147E-4
1.657925748E0,-9.162708884E-4,1.527118147E-4,-1.527118147E-4
1.660371112E0,-2.137965523E-3,1.527118147E-4,-1.527118147E-4
1.662815696E0,3.054236295E-4,-2.290677279E-3,-1.527118147E-4
1.665259394E0,3.054236295E-4,-1.068982761E-3,-1.374406274E-3
1.667704029E0,3.054236295E-4,-1.068982761E-3,-1.374406274E-3
1.670149394E0,-9.162708884E-4,-1.068982761E-3,-1.374406274E-3
1.672593977E0,1.527118147E-3,-2.290677279E-3,-1.374406274E-3
1.675037727E0,3.054236295E-4,-2.290677279E-3,1.068982761E-3
1.677482362E0,3.054236295E-4,1.374406274E-3,1.068982761E-3
1.679927727E0,3.054236295E-4,1.527118147E-4,-1.527118147E-4
1.682372310E0,-9.162708884E-4,-1.068982761E-3,-1.374406274E-3
1.684816008E0,1.527118147E-3,1.527118147E-4,-1.374406274E-3
1.687260644E0,-9.162708884E-4,-1.068982761E-3,-2.596100792E-3
1.689706008E0,3.054236295E-4,-1.068982761E-3,1.068982761E-3
1.692150592E0,1.527118147E-3,1.527118147E-4,-1.374406274E-3
1.694594342E0,3.054236295E-4,1.527118147E-4,1.068982761E-3
1.697038977E0,-9.162708884E-4,-1.068982761E-3,1.068982761E-3
1.699484342E0,3.054236295E-4,-1.068982761E-3,-1.527118147E-4
1.701928925E0,1.527118147E-3,-1.068982761E-3,1.068982761E-3
1.704372623E0,3.054236295E-4,-1.068982761E-3,-1.527118147E-4
1.706817258E0,3.054236295E-4,-1.068982761E-3,-1.374406274E-3
1.709262623E0,3.054236295E-4,-1.068982761E-3,-1.374406274E-3
1.711707206E0,3.054236295E-4,-2.290677279E-3,1.068982761E-3
1.714150956E0,3.054236295E-4,-1.068982761E-3,-1.527118147E-4
1.716595592E0,3.054236295E-4,-2.290677279E-3,1.068982761E-3
1.719040956E0,1.527118147E-3,-1.068982761E-3,-1.374406274E-3
1.721485435E0,3.054236295E-4,1.527118147E-4,-1.374406274E-3
1.723929237E0,3.054236295E-4,-1.068982761E-3,-1.527118147E-4
1.726373873E0,-9.162708884E-4,-2.290677279E-3,-1.527118147E-4
1.728819237E0,3.054236295E-4,1.527118147E-4,-1.374406274E-3
1.731263821E0,3.054236295E-4,-1.068982761E-3,-1.527118147E-4
1.733707571E0,3.054236295E-4,-3.512371797E-3,-1.527118147E-4
1.736152154E0,1.527118147E-3,-2.290677279E-3,-1.374406274E-3
1.738597571E0,1.527118147E-3,1.527118147E-4,-1.527118147E-4
1.741042050E0,1.527118147E-3,-1.068982761E-3,-1.374406274E-3
1.743485852E0,1.527118147E-3,1.527118147E-4,-1.374406274E-3
1.745930487E0,1.527118147E-3,-1.068982761E-3,-1.527118147E-4
1.748375852E0,3.054236295E-4,1.527118147E-4,-1.527118147E-4
1.750820435E0,3.054236295E-4,-1.068982761E-3,-1.527118147E-4
1.753264185E0,3.054236295E-4,-1.068982761E-3,-1.374406274E-3
1.755708769E0,3.054236295E-4,-1.068982761E-3,1.068982761E-3
1.758154185E0,-9.162708884E-4,-1.068982761E-3,1.068982761E-3
1.760598665E0,3.054236295E-4,1.527118147E-4,-1.527118147E-4
1.763042467E0,3.054236295E-4,1.374406274E-3,-2.596100792E-3
1.765487102E0,2.748812549E-3,1.374406274E-3,-1.374406274E-3
1.767932467E0,3.054236295E-4,-1.068982761E-3,-1.527118147E-4
1.770377050E0,3.054236295E-4,1.527118147E-4,-1.374406274E-3
1.772820748E0,3.054236295E-4,-1.068982761E-3,-1.527118147E-4
1.775265383E0,3.054236295E-4,1.527118147E-4,1.068982761E-3
1.777710748E0,-9.162708884E-4,1.527118147E-4,1.068982761E-3
1.780155331E0,3.054236295E-4,1.527118147E-4,-1.527118147E-4
1.782599081E0,1.527118147E-3,-1.068982761E-3,-1.527118147E-4
1.785043717E0,3.054236295E-4,-1.068982761E-3,-2.596100792E-3
1.787489081E0,3.054236295E-4,-1.068982761E-3,1.068982761E-3
1.789933665E0,3.054236295E-4,1.527118147E-4,-1.527118147E-4
1.792377362E0,3.054236295E-4,1.527118147E-4,1.068982761E-3
1.794821998E0,3.054236295E-4,1.527118147E-4,-1.374406274E-3
1.797267362E0,3.054236295E-4,1.374406274E-3,1.068982761E-3
1.799711946E0,-9.162708884E-4,1.527118147E-4,1.068982761E-3
1.802155696E0,1.527118147E-3,-2.290677279E-3,-1.527118147E-4
1.804600331E0,1.527118147E-3,-1.068982761E-3,-1.374406274E-3
1.807045696E0,1.527118147E-3,-1.068982761E-3,-1.374406274E-3
1.809490279E0,3.054236295E-4,1.527118147E-4,1.068982761E-3
1.811933977E0,-9.162708884E-4,1.527118147E-4,-1.527118147E-4
1.814378612E0,3.054236295E-4,-1.068982761E-3,-1.374406274E-3
1.816823977E0,3.054236295E-4,-1.068982761E-3,-1.527118147E-4
1.819268560E0,3.054236295E-4,-1.068982761E-3,-1.374406274E-3
1.821712310E0,3.054236295E-4,1.527118147E-4,1.068982761E-3
1.824156946E0,1.527118147E-3,1.374406274E-3,-1.527118147E-4
1.826602310E0,1.527118147E-3,1.527118147E-4,-1.374406274E-3
1.829046790E0,1.527118147E-3,1.527118147E-4,-1.527118147E-4
1.831490592E0,3.054236295E-4,1.527118147E-4,-1.527118147E-4
1.833935227E0,1.527118147E-3,1.527118147E-4,-1.527118147E-4
1.836380592E0,1.527118147E-3,-2.290677279E-3,-1.527118147E-4
1.838825175E0,3.054236295E-4,1.527118147E-4,-1.374406274E-3
1.841268925E0,-9.162708884E-4,1.527118147E-4,-1.527118147E-4
1.843713508E0,-9.162708884E-4,1.527118147E-4,-1.527118147E-4
1.846158925E0,-9.162708884E-4,1.374406274E-3,1.068982761E-3
1.848603508E0,1.527118147E-3,1.527118147E-4,-1.374406274E-3
1.851047206E0,1.527118147E-3,-1.068982761E-3,-1.374406274E-3
1.853491842E0,1.527118147E-3,1.527118147E-4,-1.527118147E-4
1.855937206E0,3.054236295E-4,1.527118147E-4,-1.527118147E-4
1.858381790E0,3.054236295E-4,1.374406274E-3,-1.527118147E-4
1.860825540E0,1.527118147E-3,-1.068982761E-3,-1.527118147E-4
1.863270123E0,3.054236295E-4,1.527118147E-4,1.068982761E-3
1.865715540E0,-9.162708884E-4,-1.068982761E-3,1.068982761E-3
1.868160019E0,-9.162708884E-4,1.527118147E-4,-1.527118147E-4
1.870603821E0,-9.162708884E-4,1.527118147E-4,-1.374406274E-3
1.873048456E0,3.054236295E-4,-1.068982761E-3,-1.527118147E-4
1.875493821E0,3.054236295E-4,1.527118147E-4,1.068982761E-3
1.877938404E0,1.527118147E-3,1.374406274E-3,-1.374406274E-3
1.880382102E0,3.054236295E-4,-2.290677279E-3,-1.527118147E-4
1.882826737E0,3.054236295E-4,-1.068982761E-3,-1.374406274E-3
1.885272102E0,3.054236295E-4,-1.068982761E-3,1.068982761E-3
1.887716685E0,-9.162708884E-4,1.527118147E-4,-1.374406274E-3
1.890160435E0,1.527118147E-3,1.527118147E-4,-2.596100792E-3
1.892605071E0,3.054236295E-4,1.527118147E-4,-1.374406274E-3
1.895050435E0,-9.162708884E-4,-1.068982761E-3,1.068982761E-3
1.897495019E0,3.054236295E-4,-1.068982761E-3,-1.374406274E-3
1.899938717E0,-9.162708884E-4,1.374406274E-3,-1.374406274E-3
1.902383352E0,3.054236295E-4,1.527118147E-4,-1.527118147E-4
1.904828717E0,1.527118147E-3,1.527118147E-4,-1.527118147E-4
1.907273300E0,3.054236295E-4,-1.068982761E-3,-1.527118147E-4
1.909717050E0,3.054236295E-4,-1.068982761E-3,1.068982761E-3
1.912161685E0,3.054236295E-4,-2.290677279E-3,-1.527118147E-4
1.914607050E0,-9.162708884E-4,-1.068982761E-3,-1.374406274E-3
1.917051633E0,1.527118147E-3,-1.068982761E-3,1.068982761E-3
1.919495331E0,3.054236295E-4,1.527118147E-4,-1.527118147E-4
1.921939967E0,1.527118147E-3,1.527118147E-4,1.068982761E-3
1.924385331E0,3.054236295E-4,-1.068982761E-3,1.068982761E-3
1.926829915E0,3.054236295E-4,-1.068982761E-3,-1.527118147E-4
1.929273665E0,3.054236295E-4,-2.290677279E-3,1.068982761E-3
1.931718300E0,3.054236295E-4,-1.068982761E-3,-1.374406274E-3
1.934163665E0,1.527118147E-3,-1.068982761E-3,-1.374406274E-3
1.936608144E0,-9.162708884E-4,-1.068982761E-3,-1.374406274E-3
1.939051946E0,3.054236295E-4,1.527118147E-4,-1.527118147E-4
1.941496581E0,3.054236295E-4,-1.068982761E-3,1.068982761E-3
1.943941946E0,3.054236295E-4,-2.290677279E-3,1.068982761E-3
1.946386529E0,3.054236295E-4,1.527118147E-4,1.068982761E-3
1.948830279E0,3.054236295E-4,-1.068982761E-3,-1.527118147E-4
1.951274862E0,3.054236295E-4,-1.068982761E-3,-1.527118147E-4
1.953720279E0,3.054236295E-4,-1.068982761E-3,-1.374406274E-3
1.956164758E0,-9.162708884E-4,-1.068982761E-3,-1.527118147E-4
1.958608560E0,-9.162708884E-4,1.527118147E-4,-2.596100792E-3
1.961053196E0,3.054236295E-4,1.527118147E-4,-1.527118147E-4
1.963498560E0,3.054236295E-4,-1.068982761E-3,-1.527118147E-4
1.965943144E0,3.054236295E-4,1.527118147E-4,-1.527118147E-4
1.968386894E0,3.054236295E-4,1.527118147E-4,-1.527118147E-4
1.970831477E0,-9.162708884E-4,1.374406274E-3,1.068982761E-3
1.973276894E0,3.054236295E-4,-1.068982761E-3,-1.527118147E-4
1.975721373E0,-9.162708884E-4,1.374406274E-3,-1.374406274E-3
1.978165175E0,3.054236295E-4,1.374406274E-3,-1.374406274E-3
1.980609810E0,1.527118147E-3,1.527118147E-4,1.068982761E-3
1.983055175E0,3.054236295E-4,-1.068982761E-3,-1.527118147E-4
1.985499758E0,3.054236295E-4,1.527118147E-4,-1.527118147E-4
1.987943456E0,-9.162708884E-4,-2.290677279E-3,-1.374406274E-3
1.990388092E0,3.054236295E-4,-1.068982761E-3,-1.527118147E-4
1.992833456E0,-9.162708884E-4,-1.068982761E-3,-2.596100792E-3
1.995278040E0,3.054236295E-4,1.527118147E-4,-1.527118147E-4
1.997721790E0,3.054236295E-4,-1.068982761E-3,-1.374406274E-3
2.000166425E0,3.054236295E-4,1.527118147E-4,-1.527118147E-4
2.002611790E0,3.054236295E-4,-1.068982761E-3,-1.374406274E-3
2.005056373E0,-9.162708884E-4,1.527118147E-4,-1.374406274E-3
2.007500071E0,1.527118147E-3,-2.290677279E-3,-1.527118147E-4
2.009944706E0,3.054236295E-4,1.374406274E-3,-1.527118147E-4
2.012390071E0,3.054236295E-4,1.527118147E-4,-1.374406274E-3
2.014834654E0,1.527118147E-3,-1.068982761E-3,-1.374406274E-3
2.017278404E0,1.527118147E-3,-1.068982761E-3,1.068982761E-3
2.019723040E0,3.054236295E-4,-1.068982761E-3,-1.527118147E-4
2.022168404E0,-9.162708884E-4,-1.068982761E-3,-1.527118147E-4
2.024612987E0,3.054236295E-4,1.527118147E-4,-1.527118147E-4
2.027056685E0,1.527118147E-3,-1.068982761E-3,-1.527118147E-4
2.029501321E0,-9.162708884E-4,1.374406274E-3,1.068982761E-3
2.031946685E0,3.054236295E-4,-1.068982761E-3,-1.527118147E-4
2.034391269E0,3.054236295E-4,1.527118147E-4,-1.527118147E-4
2.036835019E0,3.054236295E-4,-2.290677279E-3,1.068982761E-3
2.039279654E0,-9.162708884E-4,1.527118147E-4,-1.374406274E-3
2.041725019E0,3.054236295E-4,1.527118147E-4,-1.527118147E-4
2.044169602E0,3.054236295E-4,1.527118147E-4,-1.527118147E-4
2.046613300E0,3.054236295E-4,-1.068982761E-3,-1.374406274E-3
2.049057935E0,-9.162708884E-4,-1.068982761E-3,-1.527118147E-4
2.051503300E0,3.054236295E-4,1.527118147E-4,-1.527118147E-4
2.053947883E0,3.054236295E-4,1.527118147E-4,1.068982761E-3
2.056391633E0,3.054236295E-4,-1.068982761E-3,2.290677279E-3
2.058836269E0,3.054236295E-4,1.527118147E-4,-1.374406274E-3
2.061281633E0,-9.162708884E-4,1.527118147E-4,-1.527118147E-4
2.063726112E0,3.054236295E-4,-1.068982761E-3,-1.527118147E-4
2.066169915E0,3.054236295E-4,1.527118147E-4,-1.527118147E-4
2.068614550E0,3.054236295E-4,-1.068982761E-3,1.068982761E-3
2.071059915E0,-9.162708884E-4,-1.068982761E-3,-1.374406274E-3
2.073504498E0,-9.162708884E-4,1.374406274E-3,-1.374406274E-3
2.075948248E0,-9.162708884E-4,-1.068982761E-3,-1.374406274E-3
2.078392831E0,3.054236295E-4,-2.290677279E-3,-1.527118147E-4
2.080838248E0,3.054236295E-4,-1.068982761E-3,1.068982761E-3
2.083282727E0,3.054236295E-4,1.527118147E-4,1.068982761E-3
2.085726529E0,-9.162708884E-4,-2.290677279E-3,-1.527118147E-4
2.088171165E0,-9.162708884E-4,-1.068982761E-3,-1.374406274E-3
2.090616529E0,1.527118147E-3,1.527118147E-4,-1.527118147E-4
2.093061112E0,3.054236295E-4,1.527118147E-4,-1.527118147E-4
2.095504810E0,3.054236295E-4,1.527118147E-4,3.512371797E-3
2.097949446E0,-9.162708884E-4,-1.068982761E-3,-1.527118147E-4
2.100394810E0,3.054236295E-4,-3.512371797E-3,-1.374406274E-3
2.102839394E0,3.054236295E-4,-1.068982761E-3,-1.527118147E-4
2.105283144E0,-9.162708884E-4,2.596100792E-3,1.068982761E-3
2.107727779E0,-9.162708884E-4,1.527118147E-4,-1.374406274E-3
2.110173144E0,1.527118147E-3,-1.068982761E-3,-1.527118147E-4
2.112617727E0,3.054236295E-4,-1.068982761E-3,-1.527118147E-4
2.115061425E0,3.054236295E-4,-1.068982761E-3,-1.527118147E-4
2.117506060E0,3.054236295E-4,-1.068982761E-3,2.290677279E-3
2.119951425E0,1.527118147E-3,1.527118147E-4,-1.374406274E-3
2.122396008E0,-9.162708884E-4,1.527118147E-4,-1.374406274E-3
2.124839758E0,-9.162708884E-4,1.527118147E-4,-1.527118147E-4
2.127284394E0,3.054236295E-4,-2.290677279E-3,-1.527118147E-4
2.129729758E0,-9.162708884E-4,1.527118147E-4,-1.374406274E-3
2.132174342E0,3.054236295E-4,1.527118147E-4,-1.527118147E-4
2.134618040E0,1.527118147E-3,-1.068982761E-3,-1.374406274E-3
2.137062675E0,3.054236295E-4,1.527118147E-4,-1.374406274E-3
2.139508040E0,3.054236295E-4,-1.068982761E-3,1.068982761E-3
2.141952623E0,3.054236295E-4,-1.068982761E-3,-1.527118147E-4
2.144396373E0,1.527118147E-3,1.374406274E-3,-1.527118147E-4
2.146841008E0,3.054236295E-4,-1.068982761E-3,-1.527118147E-4
2.149286373E0,3.054236295E-4,-1.068982761E-3,-1.527118147E-4
2.151730956E0,3.054236295E-4,-2.290677279E-3,-2.596100792E-3
2.154174654E0,3.054236295E-4,1.527118147E-4,-2.596100792E-3
2.156619290E0,3.054236295E-4,-1.068982761E-3,-1.527118147E-4
2.159064654E0,3.054236295E-4,-1.068982761E-3,-1.374406274E-3
2.161509237E0,3.054236295E-4,-2.290677279E-3,-1.527118147E-4
2.163952987E0,3.054236295E-4,1.527118147E-4,1.068982761E-3
2.166397623E0,1.527118147E-3,1.527118147E-4,1.068982761E-3
2.168842987E0,3.054236295E-4,1.527118147E-4,-1.374406274E-3
2.171287467E0,3.054236295E-4,-1.068982761E-3,2.290677279E-3
2.173731269E0,3.054236295E-4,-1.068982761E-3,-1.527118147E-4
2.176175904E0,1.527118147E-3,-2.290677279E-3,-1.527118147E-4
2.178621269E0,3.054236295E-4,1.374406274E-3,-1.527118147E-4
2.181065852E0,1.527118147E-3,1.374406274E-3,-1.527118147E-4
2.183509602E0,1.527118147E-3,1.527118147E-4,-1.527118147E-4
2.185954185E0,3.054236295E-4,-1.068982761E-3,-1.527118147E-4
2.188399602E0,1.527118147E-3,-3.512371797E-3,1.068982761E-3
2.190844081E0,3.054236295E-4,-2.290677279E-3,-1.527118147E-4
2.193287883E0,3.054236295E-4,-2.290677279E-3,1.068982761E-3
2.195732519E0,3.054236295E-4,-1.068982761E-3,-1.527118147E-4
2.198177883E0,-9.162708884E-4,1.527118147E-4,1.068982761E-3
2.200622467E0,-2.137965523E-3,1.374406274E-3,1.068982761E-3
2.203066165E0,3.054236295E-4,-1.068982761E-3,-1.374406274E-3
2.205510800E0,3.054236295E-4,-1.068982761E-3,-1.527118147E-4
2.207956165E0,3.054236295E-4,-1.068982761E-3,-1.527118147E-4
2.210400748E0,-9.162708884E-4,1.527118147E-4,1.068982761E-3
2.212844498E0,3.054236295E-4,1.527118147E-4,-1.527118147E-4
2.215289133E0,1.527118147E-3,-1.068982761E-3,-1.527118147E-4
2.217734498E0,1.527118147E-3,-1.068982761E-3,-1.527118147E-4
2.220179081E0,3.054236295E-4,1.527118147E-4,-1.374406274E-3
2.222622779E0,3.054236295E-4,1.374406274E-3,-1.527118147E-4
2.225067415E0,3.054236295E-4,-1.068982761E-3,-1.527118147E-4
2.227512779E0,1.527118147E-3,-1.068982761E-3,-1.374406274E-3
2.229957362E0,-9.162708884E-4,1.374406274E-3,1.068982761E-3
2.232401112E0,1.527118147E-3,-1.068982761E-3,1.068982761E-3
2.234845748E0,-9.162708884E-4,-1.068982761E-3,-1.374406274E-3
2.237291112E0,1.527118147E-3,-2.290677279E-3,-1.374406274E-3
2.239735696E0,3.054236295E-4,-2.290677279E-3,-1.527118147E-4
2.242179394E0,3.054236295E-4,-1.068982761E-3,-1.527118147E-4
2.244624029E0,3.054236295E-4,-1.068982761E-3,-1.374406274E-3
2.247069394E0,3.054236295E-4,-2.290677279E-3,-1.374406274E-3
2.249513977E0,3.054236295E-4,1.527118147E-4,-1.527118147E-4
2.251957727E0,3.054236295E-4,-1.068982761E-3,-1.374406274E-3
2.254402362E0,3.054236295E-4,-1.068982761E-3,1.068982761E-3
2.256847727E0,-9.162708884E-4,1.527118147E-4,-1.527118147E-4
2.259292310E0,1.527118147E-3,-3.512371797E-3,-1.527118147E-4
2.261736008E0,1.527118147E-3,-2.290677279E-3,-1.527118147E-4
2.264180644E0,-9.162708884E-4,-1.068982761E-3,-1.527118147E-4
2.266626008E0,3.054236295E-4,-1.068982761E-3,-1.374406274E-3
2.269070592E0,3.054236295E-4,-1.068982761E-3,-1.527118147E-4
2.271514342E0,3.054236295E-4,1.527118147E-4,-1.374406274E-3
2.273958977E0,3.054236295E-4,1.527118147E-4,-1.527118147E-4
2.276404342E0,3.054236295E-4,-1.068982761E-3,-1.527118147E-4
2.278848821E0,3.054236295E-4,-1.068982761E-3,-1.374406274E-3
2.281292623E0,3.054236295E-4,-2.290677279E-3,1.068982761E-3
2.283737258E0,-9.162708884E-4,1.527118147E-4,-1.527118147E-4
2.286182623E0,3.054236295E-4,1.527118147E-4,1.068982761E-3
2.288627206E0,3.054236295E-4,-1.068982761E-3,-1.374406274E-3
2.291070956E0,-9.162708884E-4,-1.068982761E-3,-1.527118147E-4
2.293515540E0,3.054236295E-4,1.527118147E-4,-1.527118147E-4
2.295960956E0,1.527118147E-3,-2.290677279E-3,-1.527118147E-4
2.298405435E0,3.054236295E-4,-1.068982761E-3,-1.527118147E-4
2.300849237E0,1.527118147E-3,-1.068982761E-3,-1.374406274E-3
2.303293873E0,1.527118147E-3,-1.068982761E-3,-1.374406274E-3
2.305739237E0,3.054236295E-4,1.527118147E-4,-1.527118147E-4
2.308183821E0,3.054236295E-4,1.527118147E-4,-1.374406274E-3
2.310627519E0,-9.162708884E-4,-1.068982761E-3,-1.527118147E-4
2.313072154E0,-9.162708884E-4,-1.068982761E-3,-1.527118147E-4
2.315517519E0,3.054236295E-4,-1.068982761E-3,-1.527118147E-4
2.317962102E0,3.054236295E-4,1.527118147E-4,-1.374406274E-3
2.320405852E0,3.054236295E-4,1.527118147E-4,-1.374406274E-3
2.322850487E0,3.054236295E-4,-1.068982761E-3,1.068982761E-3
2.325295852E0,1.527118147E-3,-1.068982761E-3,1.068982761E-3
2.327740435E0,1.527118147E-3,1.527118147E-4,-2.596100792E-3
2.330184133E0,3.054236295E-4,-1.068982761E-3,-1.527118147E-4
2.332628769E0,3.054236295E-4,-1.068982761E-3,1.068982761E-3
2.335074133E0,3.054236295E-4,1.527118147E-4,1.068982761E-3
2.337518717E0,3.054236295E-4,-2.290677279E-3,-1.527118147E-4
2.339962467E0,-9.162708884E-4,1.527118147E-4,1.068982761E-3
2.342407102E0,-9.162708884E-4,-1.068982761E-3,1.068982761E-3
2.344852467E0,3.054236295E-4,-1.068982761E-3,-1.374406274E-3
2.347297050E0,3.054236295E-4,-1.068982761E-3,1.068982761E-3
2.349740748E0,2.748812549E-3,-1.068982761E-3,-1.374406274E-3
2.352185383E0,3.054236295E-4,-2.290677279E-3,-1.527118147E-4
2.354630748E0,3.054236295E-4,-2.290677279E-3,-1.374406274E-3
2.357075331E0,1.527118147E-3,-1.068982761E-3,-1.527118147E-4
2.359519081E0,3.054236295E-4,1.527118147E-4,1.068982761E-3
2.361963717E0,-9.162708884E-4,-1.068982761E-3,-1.374406274E-3
2.364409081E0,1.527118147E-3,-1.068982761E-3,-1.374406274E-3
2.366853665E0,1.527118147E-3,1.374406274E-3,-1.527118147E-4
2.369297362E0,-9.162708884E-4,1.374406274E-3,1.068982761E-3
2.371741998E0,3.054236295E-4,1.527118147E-4,-1.527118147E-4
2.374187362E0,-9.162708884E-4,-1.068982761E-3,-1.374406274E-3
2.376631946E0,3.054236295E-4,1.527118147E-4,1.068982761E-3
2.379075696E0,3.054236295E-4,-1.068982761E-3,-1.374406274E-3
2.381520279E0,-9.162708884E-4,1.374406274E-3,-1.527118147E-4
2.383965696E0,-9.162708884E-4,1.374406274E-3,2.290677279E-3
2.386410175E0,1.527118147E-3,1.527118147E-4,1.068982761E-3
2.388853977E0,-9.162708884E-4,1.527118147E-4,1.068982761E-3
2.391298612E0,3.054236295E-4,-1.068982761E-3,-1.527118147E-4
2.393743977E0,3.054236295E-4,-1.068982761E-3,-1.527118147E-4
2.396188560E0,-9.162708884E-4,-2.290677279E-3,1.068982761E-3
2.398632310E0,3.054236295E-4,1.527118147E-4,1.068982761E-3
2.401076894E0,3.054236295E-4,-1.068982761E-3,-1.527118147E-4
2.403522258E0,1.527118147E-3,-3.512371797E-3,-1.374406274E-3
2.405966842E0,3.054236295E-4,1.527118147E-4,-1.527118147E-4
2.408410592E0,1.527118147E-3,-1.068982761E-3,-1.527118147E-4
2.410855227E0,-9.162708884E-4,-1.068982761E-3,-1.374406274E-3
2.413300592E0,3.054236295E-4,1.527118147E-4,1.068982761E-3
2.415745175E0,-9.162708884E-4,-1.068982761E-3,1.068982761E-3
2.418188873E0,3.054236295E-4,-2.290677279E-3,-1.527118147E-4
2.420633508E0,-9.162708884E-4,1.527118147E-4,-1.374406274E-3
2.423078873E0,1.527118147E-3,-1.068982761E-3,-1.527118147E-4
2.425523456E0,-9.162708884E-4,1.527118147E-4,-1.374406274E-3
2.427967206E0,-9.162708884E-4,-1.068982761E-3,-1.527118147E-4
2.430411842E0,-9.162708884E-4,1.527118147E-4,1.068982761E-3
2.432857206E0,3.054236295E-4,-1.068982761E-3,1.068982761E-3
2.435301790E0,3.054236295E-4,-2.290677279E-3,-1.527118147E-4
2.437745487E0,1.527118147E-3,-2.290677279E-3,1.068982761E-3
2.440190123E0,3.054236295E-4,1.527118147E-4,1.068982761E-3
2.442635487E0,3.054236295E-4,1.527118147E-4,1.068982761E-3
2.445080071E0,3.054236295E-4,-1.068982761E-3,-1.527118147E-4
2.447523821E0,1.527118147E-3,-2.290677279E-3,-1.374406274E-3
2.449968456E0,3.054236295E-4,-1.068982761E-3,-1.527118147E-4
2.452413821E0,3.054236295E-4,1.527118147E-4,-1.527118147E-4
2.454858404E0,3.054236295E-4,1.527118147E-4,-1.527118147E-4
2.457302102E0,1.527118147E-3,-1.068982761E-3,-1.527118147E-4
2.459746737E0,-9.162708884E-4,1.527118147E-4,-2.596100792E-3
2.462192102E0,3.054236295E-4,-2.290677279E-3,-1.527118147E-4
2.464636685E0,3.054236295E-4,1.527118147E-4,-1.527118147E-4
2.467080435E0,3.054236295E-4,-1.068982761E-3,2.290677279E-3
2.469525019E0,3.054236295E-4,-1.068982761E-3,-1.527118147E-4
2.471970435E0,3.054236295E-4,-1.068982761E-3,-1.374406274E-3
2.474414915E0,3.054236295E-4,1.527118147E-4,1.068982761E-3
2.476858717E0,3.054236295E-4,-1.068982761E-3,-1.374406274E-3
2.479303352E0,1.527118147E-3,-1.068982761E-3,-1.527118147E-4
2.481748717E0,-9.162708884E-4,1.374406274E-3,-1.527118147E-4
2.484193300E0,3.054236295E-4,1.527118147E-4,-1.527118147E-4
2.486637050E0,3.054236295E-4,-1.068982761E-3,1.068982761E-3
2.489081633E0,3.054236295E-4,-1.068982761E-3,1.068982761E-3
2.491527050E0,3.054236295E-4,-2.290677279E-3,1.068982761E-3
2.493971529E0,-9.162708884E-4,1.527118147E-4,-1.527118147E-4
2.496415331E0,1.527118147E-3,-1.068982761E-3,-1.527118147E-4
2.498859967E0,3.054236295E-4,-1.068982761E-3,-1.527118147E-4
2.501305331E0,3.054236295E-4,-1.068982761E-3,-1.527118147E-4
2.503749915E0,-9.162708884E-4,-1.068982761E-3,-1.527118147E-4
2.506193612E0,-9.162708884E-4,1.527118147E-4,1.068982761E-3
2.508638248E0,3.054236295E-4,-1.068982761E-3,1.068982761E-3
2.511083612E0,-9.162708884E-4,-1.068982761E-3,-1.527118147E-4
2.513528196E0,3.054236295E-4,1.527118147E-4,-2.596100792E-3
2.515971946E0,3.054236295E-4,1.374406274E-3,-2.596100792E-3
2.518416581E0,3.054236295E-4,1.527118147E-4,-1.374406274E-3
2.520861946E0,3.054236295E-4,1.527118147E-4,-1.527118147E-4
2.523306529E0,3.054236295E-4,1.527118147E-4,-1.527118147E-4
2.525750227E0,-9.162708884E-4,-1.068982761E-3,-1.374406274E-3
2.528194862E0,3.054236295E-4,-1.068982761E-3,1.068982761E-3
2.530640227E0,-9.162708884E-4,-1.068982761E-3,-1.527118147E-4
2.533084810E0,3.054236295E-4,1.374406274E-3,-1.374406274E-3
2.535528560E0,1.527118147E-3,-1.068982761E-3,1.068982761E-3
2.537973196E0,1.527118147E-3,-2.290677279E-3,2.290677279E-3
2.540418560E0,-9.162708884E-4,1.527118147E-4,-2.596100792E-3
2.542863144E0,3.054236295E-4,-1.068982761E-3,-1.374406274E-3
2.545306842E0,3.054236295E-4,-1.068982761E-3,1.068982761E-3
2.547751477E0,3.054236295E-4,-2.290677279E-3,-1.374406274E-3
2.550196842E0,1.527118147E-3,1.527118147E-4,-2.596100792E-3
2.552641425E0,-9.162708884E-4,-1.068982761E-3,-1.374406274E-3
2.555085175E0,-9.162708884E-4,1.527118147E-4,-1.374406274E-3
2.557529758E0,1.527118147E-3,1.527118147E-4,1.068982761E-3
2.559975175E0,3.054236295E-4,-1.068982761E-3,1.068982761E-3
2.562419654E0,-2.137965523E-3,1.527118147E-4,-1.374406274E-3
2.564863456E0,3.054236295E-4,-1.068982761E-3,-1.374406274E-3
2.567308092E0,-9.162708884E-4,1.527118147E-4,-1.527118147E-4
2.569753456E0,-9.162708884E-4,1.527118147E-4,-1.527118147E-4
2.572198040E0,-9.162708884E-4,1.374406274E-3,-1.374406274E-3
2.574641790E0,-9.162708884E-4,1.374406274E-3,-1.374406274E-3
2.577086373E0,3.054236295E-4,1.527118147E-4,1.068982761E-3
2.579531790E0,3.054236295E-4,1.527118147E-4,1.068982761E-3
2.581976373E0,3.054236295E-4,-1.068982761E-3,1.068982761E-3
2.584420071E0,3.054236295E-4,1.527118147E-4,-1.374406274E-3
2.586864706E0,3.054236295E-4,1.527118147E-4,-1.374406274E-3
2.589310071E0,3.054236295E-4,1.527118147E-4,-1.527118147E-4
2.591754654E0,3.054236295E-4,-1.068982761E-3,-1.527118147E-4
2.594198352E0,-9.162708884E-4,-2.290677279E-3,-1.374406274E-3
2.596642987E0,-9.162708884E-4,-1.068982761E-3,-1.527118147E-4
2.599088352E0,3.054236295E-4,1.527118147E-4,1.068982761E-3
2.601532935E0,-9.162708884E-4,1.527118147E-4,-1.374406274E-3
2.603976685E0,1.527118147E-3,1.527118147E-4,-1.374406274E-3
2.606421321E0,3.054236295E-4,1.527118147E-4,-1.527118147E-4
2.608866685E0,1.527118147E-3,-1.068982761E-3,-1.374406274E-3
2.611311269E0,-9.162708884E-4,1.527118147E-4,-1.374406274E-3
2.613754967E0,3.054236295E-4,1.374406274E-3,-1.527118147E-4
2.616199602E0,-9.162708884E-4,1.374406274E-3,-1.527118147E-4
2.618644967E0,3.054236295E-4,-1.068982761E-3,-1.527118147E-4
2.621089550E0,-9.162708884E-4,1.527118147E-4,1.068982761E-3
2.623533300E0,1.527118147E-3,1.527118147E-4,1.068982761E-3
2.625977935E0,1.527118147E-3,-2.290677279E-3,-1.374406274E-3
2.628423300E0,-9.162708884E-4,-2.290677279E-3,-1.527118147E-4
2.630867883E0,3.054236295E-4,1.527118147E-4,-1.527118147E-4
2.633311581E0,2.748812549E-3,1.527118147E-4,1.068982761E-3
2.635756217E0,3.054236295E-4,-1.068982761E-3,-1.527118147E-4
2.638201581E0,-9.162708884E-4,-1.068982761E-3,-1.527118147E-4
2.640646165E0,-9.162708884E-4,-1.068982761E-3,-1.527118147E-4
2.643089915E0,3.054236295E-4,-1.068982761E-3,-1.527118147E-4
2.645534498E0,3.054236295E-4,1.527118147E-4,-1.374406274E-3
2.647979915E0,-9.162708884E-4,1.527118147E-4,-1.527118147E-4
2.650424394E0,3.054236295E-4,-1.068982761E-3,-1.527118147E-4
2.652868196E0,1.527118147E-3,-1.068982761E-3,-1.527118147E-4
2.655312831E0,3.054236295E-4,1.374406274E-3,-1.527118147E-4
2.657758196E0,-9.162708884E-4,1.527118147E-4,-1.374406274E-3
2.660202779E0,-9.162708884E-4,1.374406274E-3,1.068982761E-3
2.662646529E0,-9.162708884E-4,1.527118147E-4,-1.527118147E-4
2.665091112E0,-9.162708884E-4,-1.068982761E-3,-1.527118147E-4
2.667536477E0,3.054236295E-4,1.527118147E-4,-1.374406274E-3
2.669981060E0,1.527118147E-3,-1.068982761E-3,-1.527118147E-4
2.672424810E0,3.054236295E-4,1.527118147E-4,-1.527118147E-4
2.674869446E0,-9.162708884E-4,1.374406274E-3,-2.596100792E-3
2.677314810E0,3.054236295E-4,-1.068982761E-3,-1.527118147E-4
2.679759394E0,-9.162708884E-4,-1.068982761E-3,-1.374406274E-3
2.682203092E0,-9.162708884E-4,1.374406274E-3,-1.527118147E-4
2.684647727E0,3.054236295E-4,1.374406274E-3,1.068982761E-3
2.687093092E0,1.527118147E-3,1.527118147E-4,-1.527118147E-4
2.689537675E0,3.054236295E-4,1.527118147E-4,-1.527118147E-4
2.691981425E0,1.527118147E-3,-1.068982761E-3,1.068982761E-3
2.694426060E0,1.527118147E-3,-2.290677279E-3,2.290677279E-3
2.696871425E0,1.527118147E-3,-1.068982761E-3,1.068982761E-3
2.699316008E0,3.054236295E-4,-1.068982761E-3,-1.527118147E-4
2.701759706E0,3.054236295E-4,1.527118147E-4,-1.527118147E-4
2.704204342E0,3.054236295E-4,1.527118147E-4,-1.527118147E-4
2.706649706E0,-9.162708884E-4,-1.068982761E-3,-1.374406274E-3
2.709094290E0,3.054236295E-4,-1.068982761E-3,-1.527118147E-4
2.711538040E0,1.527118147E-3,-1.068982761E-3,-1.527118147E-4
2.713982675E0,-9.162708884E-4,-1.068982761E-3,-1.374406274E-3
2.716428040E0,3.054236295E-4,-1.068982761E-3,-1.527118147E-4
2.718872623E0,3.054236295E-4,-2.290677279E-3,-1.527118147E-4
2.721316321E0,3.054236295E-4,-2.290677279E-3,-1.527118147E-4
2.723760956E0,3.054236295E-4,1.527118147E-4,-1.374406274E-3
2.726206321E0,3.054236295E-4,1.527118147E-4,-1.527118147E-4
2.728650904E0,3.054236295E-4,1.527118147E-4,1.068982761E-3
2.731094654E0,3.054236295E-4,-1.068982761E-3,2.290677279E-3
2.733539290E0,3.054236295E-4,-1.068982761E-3,1.068982761E-3
2.735984654E0,3.054236295E-4,-1.068982761E-3,1.068982761E-3
2.738429237E0,1.527118147E-3,1.374406274E-3,-1.527118147E-4
2.740872935E0,1.527118147E-3,-1.068982761E-3,1.068982761E-3
2.743317571E0,-9.162708884E-4,-2.290677279E-3,-2.596100792E-3
2.745762935E0,3.054236295E-4,1.527118147E-4,-2.596100792E-3
2.748207519E0,1.527118147E-3,-1.068982761E-3,-1.374406274E-3
2.750651269E0,1.527118147E-3,1.527118147E-4,-1.374406274E-3
2.753095852E0,1.527118147E-3,1.527118147E-4,-1.527118147E-4
2.755541269E0,-2.137965523E-3,2.596100792E-3,-1.374406274E-3
2.757985748E0,-9.162708884E-4,1.527118147E-4,-1.374406274E-3
2.760429550E0,3.054236295E-4,-1.068982761E-3,-1.527118147E-4
2.762874185E0,-9.162708884E-4,1.527118147E-4,1.068982761E-3
2.765319550E0,-9.162708884E-4,-1.068982761E-3,-2.596100792E-3
2.767764133E0,3.054236295E-4,-1.068982761E-3,-1.527118147E-4
2.770207831E0,1.527118147E-3,1.527118147E-4,-1.527118147E-4
2.772652467E0,3.054236295E-4,1.527118147E-4,1.068982761E-3
2.775097831E0,3.054236295E-4,-1.068982761E-3,-1.527118147E-4
2.777542415E0,3.054236295E-4,1.374406274E-3,-1.527118147E-4
2.779986165E0,3.054236295E-4,-1.068982761E-3,1.068982761E-3
2.782430800E0,1.527118147E-3,-2.290677279E-3,1.068982761E-3
2.784876165E0,1.527118147E-3,-1.068982761E-3,-1.527118147E-4
2.787320748E0,1.527118147E-3,-2.290677279E-3,1.068982761E-3
2.789764446E0,1.527118147E-3,-1.068982761E-3,1.068982761E-3
2.792209081E0,-9.162708884E-4,1.374406274E-3,1.068982761E-3
2.794654446E0,3.054236295E-4,-1.068982761E-3,-1.527118147E-4
2.797099029E0,1.527118147E-3,1.527118147E-4,-1.374406274E-3
2.799542779E0,3.054236295E-4,1.527118147E-4,1.068982761E-3
2.801987415E0,3.970507067E-3,-1.068982761E-3,-1.527118147E-4
2.804432779E0,1.527118147E-3,-2.290677279E-3,1.068982761E-3
2.806877362E0,3.054236295E-4,1.527118147E-4,-2.596100792E-3
2.809321060E0,1.527118147E-3,-1.068982761E-3,-1.527118147E-4
2.811765696E0,3.054236295E-4,1.374406274E-3,2.290677279E-3
2.814211060E0,3.054236295E-4,-1.068982761E-3,-1.374406274E-3
2.816655644E0,-9.162708884E-4,-2.290677279E-3,-2.596100792E-3
2.819099394E0,-9.162708884E-4,-1.068982761E-3,-1.374406274E-3
2.821543977E0,-9.162708884E-4,1.527118147E-4,1.068982761E-3
2.823989394E0,-9.162708884E-4,1.527118147E-4,2.290677279E-3
2.826433873E0,3.054236295E-4,-1.068982761E-3,1.068982761E-3
2.828877675E0,1.527118147E-3,-1.068982761E-3,2.290677279E-3
2.831322310E0,3.054236295E-4,-1.068982761E-3,3.512371797E-3
2.833767675E0,1.527118147E-3,1.527118147E-4,-1.374406274E-3
2.836212258E0,3.054236295E-4,1.527118147E-4,-2.596100792E-3
2.838656008E0,1.527118147E-3,1.527118147E-4,-1.527118147E-4
2.841100592E0,3.054236295E-4,-1.068982761E-3,-1.527118147E-4
2.843545956E0,-9.162708884E-4,1.374406274E-3,-3.817795310E-3
2.845990540E0,3.054236295E-4,1.374406274E-3,-1.374406274E-3
2.848434290E0,-9.162708884E-4,-2.290677279E-3,-1.374406274E-3
2.850878925E0,3.054236295E-4,-2.290677279E-3,2.290677279E-3
2.853324290E0,1.527118147E-3,1.527118147E-4,2.290677279E-3
2.855768873E0,1.527118147E-3,-1.068982761E-3,-1.527118147E-4
2.858212571E0,3.054236295E-4,-2.290677279E-3,-1.527118147E-4
2.860657206E0,1.527118147E-3,1.527118147E-4,-1.527118147E-4
2.863102571E0,-9.162708884E-4,-1.068982761E-3,-1.527118147E-4
2.865547154E0,3.054236295E-4,-2.290677279E-3,-2.596100792E-3
2.867990904E0,1.527118147E-3,-1.068982761E-3,-1.374406274E-3
2.870435540E0,3.054236295E-4,-1.068982761E-3,1.068982761E-3
2.872880904E0,3.054236295E-4,1.527118147E-4,-1.374406274E-3
2.875325487E0,3.054236295E-4,1.527118147E-4,-1.374406274E-3
2.877769185E0,2.748812549E-3,-1.068982761E-3,-1.374406274E-3
2.880213821E0,1.527118147E-3,-2.290677279E-3,-1.374406274E-3
2.882659185E0,1.527118147E-3,-2.290677279E-3,-1.527118147E-4
2.885103769E0,3.054236295E-4,-1.068982761E-3,-1.527118147E-4
2.887547519E0,-9.162708884E-4,1.527118147E-4,-1.374406274E-3
2.889992154E0,1.527118147E-3,1.527118147E-4,1.068982761E-3
2.892437519E0,1.527118147E-3,-1.068982761E-3,-1.374406274E-3
2.894882102E0,3.054236295E-4,1.374406274E-3,1.068982761E-3
2.897325800E0,3.054236295E-4,1.527118147E-4,-1.374406274E-3
2.899770435E0,3.054236295E-4,1.527118147E-4,1.068982761E-3
2.902215800E0,-9.162708884E-4,1.527118147E-4,1.068982761E-3
2.904660383E0,3.054236295E-4,-1.068982761E-3,1.068982761E-3
2.907104133E0,3.054236295E-4,-1.068982761E-3,-1.527118147E-4
2.909548717E0,-9.162708884E-4,-2.290677279E-3,-1.527118147E-4
2.911994133E0,-2.137965523E-3,-1.068982761E-3,-1.527118147E-4
2.914438612E0,-9.162708884E-4,1.527118147E-4,-1.527118147E-4
2.916882415E0,3.054236295E-4,1.527118147E-4,-1.527118147E-4
2.919327050E0,3.054236295E-4,1.527118147E-4,1.068982761E-3
2.921772415E0,3.054236295E-4,1.527118147E-4,1.068982761E-3
2.924216998E0,3.054236295E-4,1.527118147E-4,2.290677279E-3
2.926660696E0,-9.162708884E-4,-1.068982761E-3,1.068982761E-3
2.929105331E0,3.054236295E-4,-1.068982761E-3,-1.374406274E-3
2.931550696E0,-9.162708884E-4,-1.068982761E-3,-1.374406274E-3
2.933995279E0,-9.162708884E-4,-1.068982761E-3,-1.527118147E-4
2.936439029E0,1.527118147E-3,-1.068982761E-3,2.290677279E-3
2.938883665E0,-9.162708884E-4,-1.068982761E-3,-1.527118147E-4
2.941329029E0,3.054236295E-4,-1.068982761E-3,-1.374406274E-3
2.943773612E0,3.054236295E-4,-2.290677279E-3,-1.527118147E-4
2.946217310E0,3.054236295E-4,1.527118147E-4,1.068982761E-3
2.948661946E0,3.054236295E-4,-1.068982761E-3,-1.527118147E-4
2.951107310E0,3.054236295E-4,-1.068982761E-3,-1.374406274E-3
2.953551894E0,-9.162708884E-4,1.374406274E-3,-1.527118147E-4
2.955995644E0,-9.162708884E-4,-1.068982761E-3,1.068982761E-3
2.958440279E0,-9.162708884E-4,1.374406274E-3,1.068982761E-3
2.960885644E0,3.054236295E-4,-1.068982761E-3,-1.374406274E-3
2.963330227E0,-9.162708884E-4,1.527118147E-4,-2.596100792E-3
2.965773925E0,1.527118147E-3,-1.068982761E-3,-1.374406274E-3
2.968218560E0,3.054236295E-4,1.527118147E-4,-1.527118147E-4
2.970663925E0,-9.162708884E-4,1.527118147E-4,-1.374406274E-3
2.973108508E0,3.054236295E-4,-1.068982761E-3,-1.527118147E-4
2.975552258E0,-9.162708884E-4,-2.290677279E-3,-1.374406274E-3
2.977996894E0,1.527118147E-3,-1.068982761E-3,-1.527118147E-4
2.980442258E0,1.527118147E-3,-1.068982761E-3,-1.527118147E-4
2.982886842E0,3.054236295E-4,-1.068982761E-3,-1.527118147E-4
2.985330540E0,3.054236295E-4,-1.068982761E-3,-1.527118147E-4
2.987775175E0,1.527118147E-3,-2.290677279E-3,-1.527118147E-4
2.990220540E0,3.054236295E-4,-2.290677279E-3,-1.527118147E-4
2.992665123E0,3.054236295E-4,1.527118147E-4,-1.374406274E-3
2.995108873E0,1.527118147E-3,-1.068982761E-3,1.068982761E-3
2.997553456E0,3.054236295E-4,1.527118147E-4,-1.527118147E-4
2.999998821E0,3.054236295E-4,1.527118147E-4,-1.527118147E-4
3.002443404E0,1.527118147E-3,-1.068982761E-3,-1.374406274E-3
3.004887154E0,3.054236295E-4,-2.290677279E-3,-1.374406274E-3
3.007331790E0,3.054236295E-4,-1.068982761E-3,-1.527118147E-4
3.009777154E0,3.054236295E-4,-2.290677279E-3,1.068982761E-3
3.012221737E0,3.054236295E-4,1.527118147E-4,1.068982761E-3
3.014665435E0,3.054236295E-4,1.374406274E-3,-1.527118147E-4
3.017110071E0,3.054236295E-4,-1.068982761E-3,-1.527118147E-4
3.019555435E0,1.527118147E-3,1.527118147E-4,1.068982761E-3
3.022000019E0,3.054236295E-4,-1.068982761E-3,-1.527118147E-4
3.024443769E0,3.054236295E-4,1.527118147E-4,1.068982761E-3
3.026888404E0,1.527118147E-3,-1.068982761E-3,1.068982761E-3
3.029333769E0,-9.162708884E-4,-2.290677279E-3,1.068982761E-3
3.031778352E0,1.527118147E-3,-2.290677279E-3,-1.527118147E-4
3.034222050E0,3.054236295E-4,1.527118147E-4,-1.527118147E-4
3.036666685E0,3.054236295E-4,1.527118147E-4,1.068982761E-3
3.039112050E0,1.527118147E-3,-1.068982761E-3,-1.527118147E-4
3.041556633E0,2.748812549E-3,1.527118147E-4,-1.527118147E-4
3.044000383E0,1.527118147E-3,1.527118147E-4,-1.374406274E-3
3.046445019E0,3.054236295E-4,1.527118147E-4,-1.527118147E-4
3.048890383E0,1.527118147E-3,-1.068982761E-3,1.068982761E-3
3.051334967E0,1.527118147E-3,-1.068982761E-3,-1.374406274E-3
3.053778665E0,3.054236295E-4,-1.068982761E-3,-1.527118147E-4
3.056223300E0,3.054236295E-4,1.527118147E-4,1.068982761E-3
3.058668665E0,3.054236295E-4,1.374406274E-3,-1.527118147E-4
3.061113248E0,-9.162708884E-4,1.374406274E-3,1.068982761E-3
3.063556998E0,-9.162708884E-4,1.527118147E-4,-1.527118147E-4
3.066001581E0,3.054236295E-4,-1.068982761E-3,-1.527118147E-4
3.068446998E0,-9.162708884E-4,1.527118147E-4,-1.527118147E-4
3.070891477E0,3.054236295E-4,-1.068982761E-3,1.068982761E-3
3.073335279E0,3.054236295E-4,1.527118147E-4,-1.374406274E-3
3.075779915E0,3.054236295E-4,-1.068982761E-3,-1.374406274E-3
3.078225279E0,1.527118147E-3,-1.068982761E-3,-1.527118147E-4
3.080669862E0,3.054236295E-4,-1.068982761E-3,-1.527118147E-4
3.083113612E0,3.054236295E-4,-2.290677279E-3,-1.527118147E-4
3.085558196E0,-9.162708884E-4,-2.290677279E-3,-1.374406274E-3
3.088003560E0,3.054236295E-4,-2.290677279E-3,1.068982761E-3
3.090448144E0,1.527118147E-3,-1.068982761E-3,-1.527118147E-4
3.092891894E0,3.054236295E-4,1.527118147E-4,-1.374406274E-3
3.095336529E0,-9.162708884E-4,1.527118147E-4,-1.374406274E-3
3.097781894E0,3.054236295E-4,-1.068982761E-3,-1.374406274E-3
3.100226477E0,-9.162708884E-4,1.374406274E-3,1.068982761E-3
3.102670175E0,3.054236295E-4,1.527118147E-4,-2.596100792E-3
3.105114810E0,3.054236295E-4,-1.068982761E-3,-1.527118147E-4
3.107560175E0,3.054236295E-4,-1.068982761E-3,1.068982761E-3
3.110004758E0,3.054236295E-4,1.527118147E-4,2.290677279E-3
3.112448508E0,-9.162708884E-4,1.527118147E-4,-1.527118147E-4
3.114893144E0,-2.137965523E-3,-1.068982761E-3,-1.527118147E-4
3.117338508E0,3.054236295E-4,-1.068982761E-3,-1.374406274E-3
3.119783092E0,3.054236295E-4,1.374406274E-3,-1.374406274E-3
3.122226790E0,-9.162708884E-4,1.527118147E-4,-1.374406274E-3
3.124671425E0,3.054236295E-4,1.374406274E-3,-1.527118147E-4
3.127116790E0,3.054236295E-4,-1.068982761E-3,-1.527118147E-4
3.129561373E0,-9.162708884E-4,-2.290677279E-3,-1.374406274E-3
3.132005123E0,3.054236295E-4,-1.068982761E-3,-1.374406274E-3
3.134449758E0,3.054236295E-4,1.527118147E-4,-1.527118147E-4
3.136895123E0,3.054236295E-4,1.527118147E-4,-1.527118147E-4
3.139339602E0,3.054236295E-4,-2.290677279E-3,-1.527118147E-4
3.141783404E0,-9.162708884E-4,-1.068982761E-3,-1.374406274E-3
3.144228040E0,1.527118147E-3,-1.068982761E-3,-1.527118147E-4
3.146673404E0,1.527118147E-3,1.527118147E-4,1.068982761E-3
3.149117987E0,3.054236295E-4,1.527118147E-4,-1.374406274E-3
3.151561737E0,-9.162708884E-4,-1.068982761E-3,-2.596100792E-3
3.154006321E0,3.054236295E-4,1.527118147E-4,-1.374406274E-3
3.156451737E0,3.054236295E-4,-1.068982761E-3,2.290677279E-3
3.158896217E0,3.054236295E-4,1.527118147E-4,1.068982761E-3
3.161340019E0,-9.162708884E-4,1.374406274E-3,-1.527118147E-4
3.163784654E0,3.054236295E-4,-1.068982761E-3,-1.374406274E-3
3.166230019E0,1.527118147E-3,-1.068982761E-3,-1.527118147E-4
3.168674602E0,-9.162708884E-4,1.527118147E-4,1.068982761E-3
3.171118300E0,-9.162708884E-4,1.374406274E-3,2.290677279E-3
3.173562935E0,1.527118147E-3,1.374406274E-3,-1.527118147E-4
3.176008300E0,-9.162708884E-4,1.527118147E-4,-1.527118147E-4
3.178452883E0,3.054236295E-4,1.527118147E-4,1.068982761E-3
3.180896633E0,3.054236295E-4,-1.068982761E-3,2.290677279E-3
3.183341269E0,1.527118147E-3,-1.068982761E-3,2.290677279E-3
3.185786633E0,-9.162708884E-4,1.527118147E-4,2.290677279E-3
3.188231217E0,1.527118147E-3,-1.068982761E-3,2.290677279E-3
3.190674915E0,3.054236295E-4,-2.290677279E-3,1.068982761E-3
3.193119550E0,3.054236295E-4,1.527118147E-4,1.068982761E-3
3.195564915E0,1.527118147E-3,1.527118147E-4,1.068982761E-3
3.198009498E0,1.527118147E-3,1.374406274E-3,-1.527118147E-4
3.200453248E0,3.054236295E-4,1.527118147E-4,-1.527118147E-4
3.202897883E0,-9.162708884E-4,1.527118147E-4,-1.527118147E-4
3.205343248E0,1.527118147E-3,-2.290677279E-3,1.068982761E-3
3.207787831E0,3.054236295E-4,1.527118147E-4,1.068982761E-3
3.210231529E0,1.527118147E-3,1.527118147E-4,1.068982761E-3
3.212676165E0,3.054236295E-4,1.527118147E-4,-1.374406274E-3
3.215121529E0,1.527118147E-3,1.527118147E-4,-1.374406274E-3
3.217566112E0,3.054236295E-4,1.374406274E-3,1.068982761E-3
3.220009862E0,1.527118147E-3,1.527118147E-4,-1.527118147E-4
3.222454498E0,1.527118147E-3,1.527118147E-4,-1.527118147E-4
3.224899862E0,1.527118147E-3,-1.068982761E-3,-1.527118147E-4
3.227344342E0,3.054236295E-4,-1.068982761E-3,1.068982761E-3
3.229788144E0,1.527118147E-3,1.527118147E-4,1.068982761E-3
3.232232779E0,3.054236295E-4,1.527118147E-4,-1.527118147E-4
3.234678144E0,3.054236295E-4,-1.068982761E-3,1.068982761E-3
3.237122727E0,1.527118147E-3,-1.068982761E-3,-2.596100792E-3
3.239566425E0,3.054236295E-4,1.527118147E-4,-1.374406274E-3
3.242011060E0,1.527118147E-3,-2.290677279E-3,-1.527118147E-4
3.244456477E0,3.054236295E-4,-1.068982761E-3,-1.527118147E-4
3.246900956E0,-9.162708884E-4,-1.068982761E-3,-1.527118147E-4
3.249344758E0,3.054236295E-4,1.374406274E-3,-1.527118147E-4
3.251789394E0,2.748812549E-3,-1.068982761E-3,-1.527118147E-4
3.254234758E0,1.527118147E-3,-1.068982761E-3,-1.527118147E-4
3.256679342E0,3.054236295E-4,1.527118147E-4,-1.527118147E-4
3.259123040E0,-9.162708884E-4,-1.068982761E-3,-2.596100792E-3
3.261567675E0,3.054236295E-4,1.527118147E-4,-1.374406274E-3
3.264013040E0,-9.162708884E-4,1.374406274E-3,2.290677279E-3
3.266457623E0,1.527118147E-3,-1.068982761E-3,-1.527118147E-4
3.268901373E0,3.054236295E-4,-1.068982761E-3,1.068982761E-3
3.271346008E0,3.054236295E-4,-1.068982761E-3,-1.527118147E-4
3.273791373E0,2.748812549E-3,-2.290677279E-3,-1.527118147E-4
3.276235956E0,3.054236295E-4,-1.068982761E-3,-1.374406274E-3
3.278679654E0,1.527118147E-3,-2.290677279E-3,-1.374406274E-3
3.281124290E0,2.748812549E-3,-4.734066315E-3,-1.527118147E-4
3.283569654E0,3.054236295E-4,-2.290677279E-3,-2.596100792E-3
3.286014237E0,3.054236295E-4,1.527118147E-4,-1.374406274E-3
3.288457987E0,3.054236295E-4,-1.068982761E-3,-1.374406274E-3
3.290902623E0,-9.162708884E-4,1.527118147E-4,-1.374406274E-3
3.293347987E0,3.054236295E-4,-1.068982761E-3,-1.527118147E-4
3.295792467E0,3.054236295E-4,1.527118147E-4,-1.374406274E-3
3.298236269E0,3.054236295E-4,-1.068982761E-3,1.068982761E-3
3.300680904E0,3.054236295E-4,-2.290677279E-3,-1.374406274E-3
3.303126269E0,3.054236295E-4,-1.068982761E-3,-1.374406274E-3
3.305570852E0,-9.162708884E-4,1.527118147E-4,1.068982761E-3
3.308014550E0,3.054236295E-4,1.527118147E-4,1.068982761E-3
3.310459185E0,3.054236295E-4,1.374406274E-3,1.068982761E-3
3.312904550E0,3.054236295E-4,-1.068982761E-3,-2.596100792E-3
3.315349133E0,1.527118147E-3,-1.068982761E-3,2.290677279E-3
3.317792883E0,3.054236295E-4,1.374406274E-3,-1.527118147E-4
3.320237519E0,-9.162708884E-4,1.527118147E-4,-3.817795310E-3
3.322682883E0,3.054236295E-4,1.374406274E-3,-1.527118147E-4
3.325127467E0,3.054236295E-4,-1.068982761E-3,1.068982761E-3
3.327571165E0,-2.137965523E-3,1.527118147E-4,-3.817795310E-3
3.330015800E0,-9.162708884E-4,1.527118147E-4,-3.817795310E-3
3.332461165E0,1.527118147E-3,1.527118147E-4,-1.374406274E-3
3.334905748E0,1.527118147E-3,1.527118147E-4,1.068982761E-3
3.337349498E0,1.527118147E-3,1.374406274E-3,-1.374406274E-3
3.339794133E0,1.527118147E-3,1.527118147E-4,-2.596100792E-3
3.342239498E0,1.527118147E-3,-1.068982761E-3,3.512371797E-3
3.344684081E0,3.054236295E-4,-2.290677279E-3,2.290677279E-3
3.347127779E0,3.054236295E-4,-1.068982761E-3,1.068982761E-3
3.349572415E0,3.054236295E-4,1.527118147E-4,1.068982761E-3
3.352017779E0,3.054236295E-4,-2.290677279E-3,-1.527118147E-4
3.354462362E0,-9.162708884E-4,-1.068982761E-3,1.068982761E-3
3.356906112E0,3.054236295E-4,1.374406274E-3,-1.527118147E-4
3.359350748E0,-9.162708884E-4,1.527118147E-4,-1.374406274E-3
3.361796112E0,-9.162708884E-4,-1.068982761E-3,-1.527118147E-4
3.364240696E0,1.527118147E-3,-1.068982761E-3,-1.527118147E-4
3.366684394E0,3.054236295E-4,-1.068982761E-3,-1.374406274E-3
3.369129029E0,1.527118147E-3,-1.068982761E-3,-1.527118147E-4
3.371574394E0,1.527118147E-3,-1.068982761E-3,-1.374406274E-3
3.374018977E0,3.054236295E-4,-1.068982761E-3,-1.527118147E-4
3.376462727E0,3.054236295E-4,-1.068982761E-3,1.068982761E-3
3.378907310E0,1.527118147E-3,-2.290677279E-3,-1.374406274E-3
3.381352727E0,-9.162708884E-4,-2.290677279E-3,-1.527118147E-4
3.383797206E0,3.054236295E-4,1.527118147E-4,-1.374406274E-3
3.386241008E0,3.054236295E-4,1.527118147E-4,1.068982761E-3
3.388685644E0,-9.162708884E-4,1.374406274E-3,-1.527118147E-4
3.391131008E0,1.527118147E-3,-1.068982761E-3,-1.374406274E-3
3.393575592E0,1.527118147E-3,-1.068982761E-3,-1.527118147E-4
3.396019290E0,3.054236295E-4,1.374406274E-3,1.068982761E-3
3.398463925E0,3.054236295E-4,1.527118147E-4,-1.527118147E-4
3.400909290E0,1.527118147E-3,-1.068982761E-3,-1.527118147E-4
3.403353873E0,3.054236295E-4,1.527118147E-4,-1.527118147E-4
3.405797623E0,1.527118147E-3,1.527118147E-4,-1.374406274E-3
3.408242258E0,-9.162708884E-4,-1.068982761E-3,-3.817795310E-3
3.410687623E0,1.527118147E-3,-1.068982761E-3,-1.527118147E-4
3.413132206E0,3.054236295E-4,-1.068982761E-3,-1.527118147E-4
3.415575904E0,3.054236295E-4,-1.068982761E-3,1.068982761E-3
3.418020540E0,1.527118147E-3,-1.068982761E-3,-1.374406274E-3
3.420465904E0,1.527118147E-3,1.527118147E-4,-1.527118147E-4
3.422910487E0,3.054236295E-4,1.527118147E-4,2.290677279E-3
3.425354237E0,1.527118147E-3,1.527118147E-4,1.068982761E-3
3.427798873E0,-9.162708884E-4,1.527118147E-4,1.068982761E-3
3.430244237E0,3.054236295E-4,-3.512371797E-3,-1.374406274E-3
3.432688821E0,3.054236295E-4,-1.068982761E-3,-1.374406274E-3
3.435132519E0,1.527118147E-3,-1.068982761E-3,-1.527118147E-4
3.437577154E0,1.527118147E-3,-2.290677279E-3,-1.374406274E-3
3.440022519E0,3.054236295E-4,-2.290677279E-3,-1.527118147E-4
3.442467102E0,3.054236295E-4,-1.068982761E-3,-1.374406274E-3
3.444910852E0,3.054236295E-4,-1.068982761E-3,-1.527118147E-4
3.447355487E0,1.527118147E-3,1.527118147E-4,-1.527118147E-4
3.449800852E0,3.054236295E-4,1.374406274E-3,-1.374406274E-3
3.452245331E0,1.527118147E-3,-3.512371797E-3,-1.527118147E-4
3.454689133E0,3.054236295E-4,-1.068982761E-3,1.068982761E-3
3.457133769E0,3.054236295E-4,-2.290677279E-3,-1.527118147E-4
3.459579133E0,3.054236295E-4,-1.068982761E-3,-2.596100792E-3
3.462023717E0,1.527118147E-3,-1.068982761E-3,-1.374406274E-3
3.464467467E0,1.527118147E-3,-2.290677279E-3,1.068982761E-3
3.466912050E0,-9.162708884E-4,1.527118147E-4,-1.527118147E-4
3.469357415E0,-9.162708884E-4,1.527118147E-4,-1.374406274E-3
3.471801998E0,3.054236295E-4,1.527118147E-4,-1.374406274E-3
3.474245748E0,1.527118147E-3,-2.290677279E-3,2.290677279E-3
3.476690383E0,-9.162708884E-4,1.374406274E-3,-1.527118147E-4
3.479135748E0,3.054236295E-4,1.374406274E-3,-1.374406274E-3
3.481580331E0,3.054236295E-4,-1.068982761E-3,-1.527118147E-4
3.484024029E0,3.054236295E-4,-2.290677279E-3,-1.527118147E-4
3.486468665E0,1.527118147E-3,-1.068982761E-3,-1.527118147E-4
3.488914029E0,1.527118147E-3,-1.068982761E-3,-1.374406274E-3
3.491358612E0,1.527118147E-3,-1.068982761E-3,-1.527118147E-4
3.493802362E0,1.527118147E-3,-1.068982761E-3,1.068982761E-3
3.496246998E0,3.054236295E-4,1.527118147E-4,-1.527118147E-4
3.498692362E0,3.054236295E-4,1.527118147E-4,-1.527118147E-4
3.501136946E0,1.527118147E-3,-1.068982761E-3,2.290677279E-3
3.503580644E0,3.054236295E-4,-2.290677279E-3,2.290677279E-3
3.506025279E0,3.054236295E-4,-2.290677279E-3,1.068982761E-3
3.508470644E0,1.527118147E-3,-1.068982761E-3,1.068982761E-3
3.510915227E0,3.054236295E-4,-1.068982761E-3,1.068982761E-3
3.513358977E0,3.054236295E-4,-1.068982761E-3,1.068982761E-3
3.515803560E0,3.054236295E-4,-2.290677279E-3,-1.527118147E-4
3.518248977E0,1.527118147E-3,1.527118147E-4,-1.527118147E-4
3.520693456E0,3.054236295E-4,1.374406274E-3,1.068982761E-3
3.523137258E0,3.054236295E-4,1.374406274E-3,-1.527118147E-4
3.525581894E0,3.054236295E-4,1.527118147E-4,-1.527118147E-4
3.528027258E0,3.054236295E-4,-1.068982761E-3,1.068982761E-3
3.530471842E0,3.054236295E-4,1.527118147E-4,-1.527118147E-4
3.532915592E0,3.054236295E-4,1.527118147E-4,-1.527118147E-4
3.535360175E0,3.054236295E-4,1.527118147E-4,1.068982761E-3
3.537805592E0,3.054236295E-4,-2.290677279E-3,-1.527118147E-4
3.540250071E0,3.054236295E-4,1.527118147E-4,-1.527118147E-4
3.542693873E0,3.054236295E-4,1.527118147E-4,-1.374406274E-3
3.545138508E0,3.054236295E-4,1.527118147E-4,-1.527118147E-4
3.547583873E0,3.054236295E-4,-2.290677279E-3,-1.374406274E-3
3.550028456E0,3.054236295E-4,1.527118147E-4,1.068982761E-3
3.552472154E0,1.527118147E-3,-1.068982761E-3,-1.527118147E-4
3.554916790E0,3.054236295E-4,-1.068982761E-3,-1.527118147E-4
3.557362154E0,1.527118147E-3,-2.290677279E-3,-1.527118147E-4
3.559806737E0,3.054236295E-4,-1.068982761E-3,-1.527118147E-4
3.562250487E0,-9.162708884E-4,1.374406274E-3,1.068982761E-3
3.564695123E0,3.054236295E-4,1.527118147E-4,1.068982761E-3
3.567140487E0,3.054236295E-4,1.527118147E-4,-1.527118147E-4
3.569585071E0,3.054236295E-4,1.527118147E-4,-1.527118147E-4
3.572028769E0,3.054236295E-4,1.527118147E-4,-1.527118147E-4
3.574473404E0,1.527118147E-3,1.527118147E-4,1.068982761E-3
3.576918769E0,-9.162708884E-4,1.527118147E-4,1.068982761E-3
3.579363352E0,-9.162708884E-4,-1.068982761E-3,-1.527118147E-4
3.581807102E0,1.527118147E-3,-1.068982761E-3,-1.527118147E-4
3.584251737E0,3.054236295E-4,1.374406274E-3,1.068982761E-3
3.586697102E0,3.054236295E-4,1.527118147E-4,-2.596100792E-3
3.589141685E0,-9.162708884E-4,-1.068982761E-3,-5.039489828E-3
3.591585383E0,3.054236295E-4,-1.068982761E-3,-1.527118147E-4
3.594030019E0,-9.162708884E-4,1.527118147E-4,-1.374406274E-3
3.596475383E0,1.527118147E-3,-1.068982761E-3,-1.527118147E-4
3.598919967E0,-9.162708884E-4,-1.068982761E-3,-1.374406274E-3
3.601363717E0,3.054236295E-4,1.527118147E-4,-1.527118147E-4
3.603808300E0,3.054236295E-4,-3.512371797E-3,-1.527118147E-4
3.606253665E0,3.054236295E-4,-1.068982761E-3,1.068982761E-3
3.608698248E0,1.527118147E-3,-2.290677279E-3,-1.527118147E-4
3.611141998E0,3.054236295E-4,-1.068982761E-3,1.068982761E-3
3.613586633E0,3.054236295E-4,-1.068982761E-3,-1.527118147E-4
3.616031998E0,3.054236295E-4,-2.290677279E-3,-1.374406274E-3
3.618476581E0,3.054236295E-4,-1.068982761E-3,-1.374406274E-3
3.620920279E0,1.527118147E-3,1.527118147E-4,-1.527118147E-4
3.623364915E0,-9.162708884E-4,1.374406274E-3,-1.374406274E-3
3.625810279E0,-9.162708884E-4,1.374406274E-3,-1.527118147E-4
3.628254862E0,3.054236295E-4,1.527118147E-4,-1.527118147E-4
3.630698612E0,3.054236295E-4,-1.068982761E-3,-1.527118147E-4
3.633143248E0,3.054236295E-4,-1.068982761E-3,1.068982761E-3
3.635588612E0,1.527118147E-3,-1.068982761E-3,1.068982761E-3
3.638033196E0,1.527118147E-3,1.374406274E-3,3.512371797E-3
3.640476894E0,3.054236295E-4,-1.068982761E-3,-1.527118147E-4
3.642921529E0,3.054236295E-4,2.596100792E-3,-1.374406274E-3
3.645366894E0,3.054236295E-4,-1.068982761E-3,-1.374406274E-3
3.647811477E0,3.054236295E-4,-1.068982761E-3,1.068982761E-3
3.650255227E0,-9.162708884E-4,-1.068982761E-3,1.068982761E-3
3.652699862E0,3.054236295E-4,-1.068982761E-3,-1.374406274E-3
3.655145227E0,3.054236295E-4,1.527118147E-4,-1.527118147E-4
3.657589810E0,1.527118147E-3,1.527118147E-4,-1.374406274E-3
3.660033508E0,-9.162708884E-4,1.527118147E-4,-1.527118147E-4
3.662478144E0,1.527118147E-3,-1.068982761E-3,-1.374406274E-3
3.664923508E0,3.054236295E-4,-1.068982761E-3,-1.527118147E-4
3.667368092E0,3.054236295E-4,-2.290677279E-3,-1.374406274E-3
3.669811842E0,3.054236295E-4,1.527118147E-4,-1.527118147E-4
3.672256425E0,1.527118147E-3,-1.068982761E-3,1.068982761E-3
3.674701842E0,3.054236295E-4,1.527118147E-4,-1.374406274E-3
3.677146321E0,-9.162708884E-4,1.527118147E-4,-2.596100792E-3
3.679590123E0,3.054236295E-4,1.527118147E-4,-1.374406274E-3
3.682034758E0,3.054236295E-4,1.374406274E-3,1.068982761E-3
3.684480123E0,3.054236295E-4,-1.068982761E-3,-1.527118147E-4
3.686924706E0,3.054236295E-4,-1.068982761E-3,-1.527118147E-4
3.689368404E0,2.748812549E-3,1.527118147E-4,2.290677279E-3
3.691813040E0,1.527118147E-3,1.527118147E-4,1.068982761E-3
3.694258404E0,-9.162708884E-4,1.527118147E-4,-1.527118147E-4
3.696702987E0,-9.162708884E-4,-1.068982761E-3,-1.527118147E-4
3.699146737E0,1.527118147E-3,-1.068982761E-3,1.068982761E-3
3.701591373E0,3.054236295E-4,1.527118147E-4,-1.527118147E-4
3.704036737E0,1.527118147E-3,1.527118147E-4,1.068982761E-3
3.706481321E0,1.527118147E-3,-2.290677279E-3,-1.527118147E-4
3.708925019E0,2.748812549E-3,-1.068982761E-3,2.290677279E-3
3.711369654E0,3.054236295E-4,1.527118147E-4,-1.374406274E-3
3.713815019E0,-9.162708884E-4,-1.068982761E-3,-1.374406274E-3
3.716259602E0,1.527118147E-3,-1.068982761E-3,2.290677279E-3
3.718703352E0,1.527118147E-3,1.527118147E-4,-1.527118147E-4
3.721147987E0,3.054236295E-4,1.527118147E-4,1.068982761E-3
3.723593352E0,-9.162708884E-4,-1.068982761E-3,1.068982761E-3
3.726037935E0,3.054236295E-4,-1.068982761E-3,2.290677279E-3
3.728481633E0,-9.162708884E-4,1.527118147E-4,-1.527118147E-4
3.730926269E0,3.054236295E-4,1.527118147E-4,-1.527118147E-4
3.733371633E0,3.054236295E-4,1.527118147E-4,-1.374406274E-3
3.735816217E0,1.527118147E-3,1.527118147E-4,1.068982761E-3
3.738259967E0,3.054236295E-4,-1.068982761E-3,-1.527118147E-4
3.740704602E0,-2.137965523E-3,1.527118147E-4,-2.596100792E-3
3.743149967E0,3.054236295E-4,-1.068982761E-3,-2.596100792E-3
3.745594446E0,1.527118147E-3,1.527118147E-4,1.068982761E-3
3.748038248E0,1.527118147E-3,-2.290677279E-3,1.068982761E-3
3.750482883E0,3.054236295E-4,-2.290677279E-3,-1.527118147E-4
3.752928248E0,1.527118147E-3,-2.290677279E-3,-2.596100792E-3
3.755372831E0,3.054236295E-4,1.374406274E-3,-1.527118147E-4
3.757816529E0,3.054236295E-4,1.527118147E-4,-1.527118147E-4
3.760261165E0,1.527118147E-3,-1.068982761E-3,1.068982761E-3
3.762706529E0,3.054236295E-4,-1.068982761E-3,1.068982761E-3
3.765151112E0,3.054236295E-4,-2.290677279E-3,-1.527118147E-4
3.767594862E0,3.054236295E-4,-1.068982761E-3,-1.527118147E-4
3.770039498E0,3.054236295E-4,1.527118147E-4,1.068982761E-3
3.772484862E0,3.054236295E-4,-1.068982761E-3,-1.527118147E-4
3.774929446E0,1.527118147E-3,1.527118147E-4,-1.527118147E-4
3.777373144E0,3.054236295E-4,-1.068982761E-3,-1.527118147E-4
3.779817779E0,-9.162708884E-4,1.527118147E-4,-1.527118147E-4
3.782263144E0,3.054236295E-4,-1.068982761E-3,-1.527118147E-4
3.784707727E0,1.527118147E-3,-1.068982761E-3,1.068982761E-3
3.787151477E0,1.527118147E-3,-1.068982761E-3,1.068982761E-3
3.789596112E0,-9.162708884E-4,1.374406274E-3,2.290677279E-3
3.792041477E0,-9.162708884E-4,1.527118147E-4,-1.527118147E-4
3.794486060E0,3.054236295E-4,1.527118147E-4,1.068982761E-3
3.796929758E0,3.054236295E-4,1.527118147E-4,1.068982761E-3
3.799374394E0,3.054236295E-4,-2.290677279E-3,-2.596100792E-3
3.801819758E0,3.054236295E-4,1.527118147E-4,-1.527118147E-4
3.804264342E0,3.054236295E-4,1.527118147E-4,-1.527118147E-4
3.806708092E0,1.527118147E-3,1.527118147E-4,-1.374406274E-3
3.809152675E0,3.054236295E-4,1.527118147E-4,-1.374406274E-3
3.811598092E0,3.054236295E-4,-1.068982761E-3,-1.527118147E-4
3.814042675E0,1.527118147E-3,-1.068982761E-3,2.290677279E-3
3.816486373E0,1.527118147E-3,-1.068982761E-3,-1.527118147E-4
3.818931008E0,3.054236295E-4,1.527118147E-4,-1.527118147E-4
3.821376373E0,-9.162708884E-4,-1.068982761E-3,-1.527118147E-4
3.823820956E0,-9.162708884E-4,-1.068982761E-3,2.290677279E-3
3.826264654E0,-9.162708884E-4,-1.068982761E-3,1.068982761E-3
3.828709290E0,1.527118147E-3,1.527118147E-4,-1.374406274E-3
3.831154654E0,3.054236295E-4,-1.068982761E-3,-3.817795310E-3
3.833599237E0,3.054236295E-4,1.527118147E-4,-1.527118147E-4
3.836042987E0,3.054236295E-4,1.527118147E-4,1.068982761E-3
3.838487623E0,-9.162708884E-4,1.527118147E-4,-1.527118147E-4
3.840932987E0,3.054236295E-4,-1.068982761E-3,-1.374406274E-3
3.843377571E0,1.527118147E-3,1.527118147E-4,-1.527118147E-4
3.845821269E0,3.054236295E-4,1.527118147E-4,2.290677279E-3
3.848265904E0,3.054236295E-4,-1.068982761E-3,-1.527118147E-4
3.850711269E0,3.054236295E-4,-1.068982761E-3,-1.374406274E-3
3.853155852E0,3.054236295E-4,-1.068982761E-3,-1.527118147E-4
3.855599602E0,3.054236295E-4,-1.068982761E-3,-1.527118147E-4
3.858044237E0,1.527118147E-3,1.527118147E-4,1.068982761E-3
3.860489602E0,3.054236295E-4,-1.068982761E-3,1.068982761E-3
3.862934185E0,3.054236295E-4,1.527118147E-4,-1.374406274E-3
3.865377883E0,-9.162708884E-4,1.527118147E-4,-1.527118147E-4
3.867822519E0,3.054236295E-4,1.527118147E-4,-1.527118147E-4
3.870267883E0,3.054236295E-4,1.527118147E-4,1.068982761E-3
3.872712467E0,-9.162708884E-4,1.527118147E-4,2.290677279E-3
3.875156217E0,3.054236295E-4,-1.068982761E-3,-1.374406274E-3
3.877600800E0,3.054236295E-4,-2.290677279E-3,-1.527118147E-4
3.880046217E0,-9.162708884E-4,-1.068982761E-3,1.068982761E-3
3.882490696E0,3.054236295E-4,1.374406274E-3,2.290677279E-3
3.884934498E0,-9.162708884E-4,1.374406274E-3,1.068982761E-3
3.887379133E0,-9.162708884E-4,1.527118147E-4,-1.527118147E-4
3.889824498E0,-9.162708884E-4,-1.068982761E-3,-1.527118147E-4
3.892269081E0,3.054236295E-4,-1.068982761E-3,-1.527118147E-4
3.894712779E0,3.054236295E-4,-1.068982761E-3,-1.527118147E-4
3.897157415E0,1.527118147E-3,-2.290677279E-3,-1.527118147E-4
3.899602779E0,-9.162708884E-4,1.527118147E-4,-1.374406274E-3
3.902047362E0,3.054236295E-4,1.527118147E-4,-1.527118147E-4
3.904491112E0,-9.162708884E-4,1.527118147E-4,-1.527118147E-4
3.906935748E0,3.054236295E-4,-1.068982761E-3,-1.527118147E-4
3.909381112E0,1.527118147E-3,1.527118147E-4,-1.527118147E-4
3.911825696E0,3.054236295E-4,-1.068982761E-3,-1.527118147E-4
3.914269394E0,3.054236295E-4,1.527118147E-4,-1.527118147E-4
3.916714029E0,-9.162708884E-4,1.374406274E-3,1.068982761E-3
3.919159394E0,1.527118147E-3,1.527118147E-4,-1.374406274E-3
3.921603977E0,3.054236295E-4,1.527118147E-4,-2.596100792E-3
3.924047727E0,3.054236295E-4,-1.068982761E-3,-1.374406274E-3
3.926492362E0,-9.162708884E-4,-2.290677279E-3,-1.374406274E-3
3.928937727E0,3.054236295E-4,1.527118147E-4,-1.374406274E-3
3.931382310E0,1.527118147E-3,-1.068982761E-3,-1.527118147E-4
3.933826008E0,2.748812549E-3,1.374406274E-3,-1.527118147E-4
3.936270644E0,3.054236295E-4,1.374406274E-3,1.068982761E-3
3.938716008E0,3.054236295E-4,-1.068982761E-3,1.068982761E-3
3.941160592E0,1.527118147E-3,-1.068982761E-3,1.068982761E-3
3.943604342E0,1.527118147E-3,1.374406274E-3,-1.527118147E-4
3.946048925E0,-9.162708884E-4,1.374406274E-3,-1.374406274E-3
3.948494342E0,-9.162708884E-4,1.527118147E-4,-2.596100792E-3
3.950938821E0,-9.162708884E-4,-1.068982761E-3,-1.374406274E-3
3.953382623E0,1.527118147E-3,-2.290677279E-3,1.068982761E-3
3.955827258E0,3.054236295E-4,-1.068982761E-3,-1.527118147E-4
3.958272623E0,3.054236295E-4,-1.068982761E-3,-1.527118147E-4
3.960717206E0,3.054236295E-4,-2.290677279E-3,1.068982761E-3
3.963160904E0,-9.162708884E-4,1.527118147E-4,-1.374406274E-3
3.965605540E0,-9.162708884E-4,1.374406274E-3,-1.527118147E-4
3.968050904E0,1.527118147E-3,1.527118147E-4,1.068982761E-3
3.970495487E0,-9.162708884E-4,1.374406274E-3,1.068982761E-3
3.972939237E0,-9.162708884E-4,1.527118147E-4,1.068982761E-3
3.975383873E0,3.054236295E-4,-1.068982761E-3,-1.374406274E-3
3.977829237E0,3.054236295E-4,1.527118147E-4,-1.527118147E-4
3.980273821E0,-9.162708884E-4,-2.290677279E-3,-1.374406274E-3
3.982717519E0,-2.137965523E-3,-2.290677279E-3,-1.527118147E-4
3.985162154E0,3.054236295E-4,-1.068982761E-3,-1.527118147E-4
3.987607519E0,-9.162708884E-4,1.527118147E-4,-1.374406274E-3
3.990052102E0,-9.162708884E-4,1.374406274E-3,-1.374406274E-3
3.992495852E0,-9.162708884E-4,1.527118147E-4,-1.374406274E-3
3.994940487E0,1.527118147E-3,-1.068982761E-3,1.068982761E-3
3.997385852E0,3.054236295E-4,1.527118147E-4,1.068982761E-3
3.999830435E0,1.527118147E-3,1.527118147E-4,-1.374406274E-3
4.002274133E0,-9.162708884E-4,1.527118147E-4,-2.596100792E-3
4.004718769E0,3.054236295E-4,-1.068982761E-3,-1.374406274E-3
4.007164133E0,1.527118147E-3,-1.068982761E-3,2.290677279E-3
4.009608717E0,-9.162708884E-4,1.374406274E-3,-1.374406274E-3
4.012052467E0,3.054236295E-4,-1.068982761E-3,-1.527118147E-4
4.014497050E0,3.054236295E-4,1.527118147E-4,-1.374406274E-3
4.016942467E0,1.527118147E-3,-1.068982761E-3,-1.527118147E-4
4.019386946E0,3.054236295E-4,-1.068982761E-3,-1.374406274E-3
4.021830748E0,-9.162708884E-4,-1.068982761E-3,-2.596100792E-3
4.024275383E0,3.054236295E-4,-1.068982761E-3,2.290677279E-3
4.026720748E0,-9.162708884E-4,-2.290677279E-3,-1.374406274E-3
4.029165331E0,1.527118147E-3,-2.290677279E-3,-1.527118147E-4
4.031609029E0,1.527118147E-3,-2.290677279E-3,-1.527118147E-4
4.034053665E0,3.054236295E-4,-1.068982761E-3,-1.374406274E-3
4.036499029E0,-9.162708884E-4,1.527118147E-4,-1.374406274E-3
4.038943612E0,1.527118147E-3,1.527118147E-4,-1.374406274E-3
4.041387362E0,1.527118147E-3,1.527118147E-4,-1.374406274E-3
4.043831998E0,3.054236295E-4,-1.068982761E-3,-1.527118147E-4
4.046277362E0,1.527118147E-3,1.527118147E-4,1.068982761E-3
4.048721946E0,1.527118147E-3,-1.068982761E-3,-1.527118147E-4
4.051165644E0,1.527118147E-3,-1.068982761E-3,1.068982761E-3
4.053610279E0,1.527118147E-3,-1.068982761E-3,2.290677279E-3
4.056055644E0,1.527118147E-3,-1.068982761E-3,-1.374406274E-3
4.058500227E0,-9.162708884E-4,1.527118147E-4,-1.527118147E-4
4.060943977E0,-2.137965523E-3,-2.290677279E-3,-1.374406274E-3
4.063388612E0,-2.137965523E-3,-2.290677279E-3,-1.374406274E-3
4.065833977E0,-9.162708884E-4,1.527118147E-4,-1.527118147E-4
4.068278560E0,3.054236295E-4,-2.290677279E-3,-1.374406274E-3
4.070722258E0,3.054236295E-4,-1.068982761E-3,-2.596100792E-3
4.073166894E0,3.054236295E-4,-1.068982761E-3,-1.527118147E-4
4.075612258E0,-9.162708884E-4,-2.290677279E-3,1.068982761E-3
4.078056842E0,-9.162708884E-4,-2.290677279E-3,-1.374406274E-3
4.080500592E0,3.054236295E-4,1.527118147E-4,2.290677279E-3
4.082945175E0,3.054236295E-4,-1.068982761E-3,-1.527118147E-4
4.085390592E0,3.054236295E-4,-1.068982761E-3,1.068982761E-3
4.087835071E0,3.054236295E-4,-2.290677279E-3,-1.527118147E-4
4.090278873E0,3.054236295E-4,1.527118147E-4,-1.527118147E-4
4.092723508E0,1.527118147E-3,-2.290677279E-3,-1.527118147E-4
4.095168873E0,1.527118147E-3,1.374406274E-3,-1.374406274E-3
4.097613456E0,3.054236295E-4,1.374406274E-3,-1.527118147E-4
4.100057154E0,-9.162708884E-4,2.596100792E-3,1.068982761E-3
4.102501790E0,1.527118147E-3,1.374406274E-3,-1.527118147E-4
4.104947206E0,-9.162708884E-4,-1.068982761E-3,1.068982761E-3
4.107391685E0,3.054236295E-4,-1.068982761E-3,1.068982761E-3
4.109835487E0,3.054236295E-4,-2.290677279E-3,1.068982761E-3
4.112280123E0,3.054236295E-4,-1.068982761E-3,-2.596100792E-3
4.114725487E0,3.054236295E-4,-1.068982761E-3,-1.527118147E-4
4.117170071E0,1.527118147E-3,1.527118147E-4,-1.374406274E-3
4.119613769E0,3.054236295E-4,-2.290677279E-3,-1.374406274E-3
4.122058404E0,3.054236295E-4,1.527118147E-4,-1.527118147E-4
4.124503769E0,-9.162708884E-4,1.527118147E-4,-2.596100792E-3
4.126948352E0,2.748812549E-3,1.527118147E-4,2.290677279E-3
4.129392102E0,3.054236295E-4,1.527118147E-4,-1.374406274E-3
4.131836737E0,1.527118147E-3,1.527118147E-4,-1.527118147E-4
4.134282102E0,3.054236295E-4,1.527118147E-4,-1.527118147E-4
4.136726685E0,-9.162708884E-4,-1.068982761E-3,1.068982761E-3
4.139170383E0,-9.162708884E-4,-1.068982761E-3,1.068982761E-3
4.141615019E0,1.527118147E-3,-2.290677279E-3,-1.527118147E-4
4.144060383E0,3.054236295E-4,-1.068982761E-3,-1.527118147E-4
4.146504967E0,3.054236295E-4,-1.068982761E-3,2.290677279E-3
4.148948717E0,3.054236295E-4,-1.068982761E-3,-1.527118147E-4
4.151393300E0,-9.162708884E-4,-1.068982761E-3,-1.527118147E-4
4.153838717E0,1.527118147E-3,-2.290677279E-3,-1.527118147E-4
4.156283196E0,3.054236295E-4,-1.068982761E-3,1.068982761E-3
4.158726998E0,1.527118147E-3,-2.290677279E-3,-1.374406274E-3
4.161171633E0,1.527118147E-3,-1.068982761E-3,-1.374406274E-3
4.163616998E0,3.054236295E-4,-1.068982761E-3,-1.527118147E-4
4.166061581E0,-9.162708884E-4,-2.290677279E-3,-1.527118147E-4
4.168505279E0,3.054236295E-4,1.527118147E-4,-1.527118147E-4
4.170949915E0,3.054236295E-4,1.527118147E-4,-1.527118147E-4
4.173395279E0,3.054236295E-4,-1.068982761E-3,-1.527118147E-4
4.175839862E0,-9.162708884E-4,-1.068982761E-3,1.068982761E-3
4.178283612E0,3.054236295E-4,-2.290677279E-3,1.068982761E-3
4.180728248E0,1.527118147E-3,1.527118147E-4,-1.527118147E-4
4.183173612E0,1.527118147E-3,-1.068982761E-3,-1.527118147E-4
4.185618196E0,3.054236295E-4,1.527118147E-4,1.068982761E-3
4.188061894E0,3.054236295E-4,-2.290677279E-3,1.068982761E-3
4.190506529E0,3.054236295E-4,1.527118147E-4,-1.527118147E-4
4.192951894E0,-9.162708884E-4,1.527118147E-4,-1.527118147E-4
4.195396477E0,3.054236295E-4,1.527118147E-4,-1.527118147E-4
4.197840227E0,1.527118147E-3,-1.068982761E-3,-1.527118147E-4
4.200284862E0,3.054236295E-4,-1.068982761E-3,-1.374406274E-3
4.202730227E0,3.054236295E-4,1.527118147E-4,-1.527118147E-4
4.205174810E0,-9.162708884E-4,-2.290677279E-3,-1.527118147E-4
4.207618508E0,-2.137965523E-3,1.527118147E-4,-1.527118147E-4
4.210063144E0,3.054236295E-4,1.527118147E-4,-2.596100792E-3
4.212508508E0,3.054236295E-4,-1.068982761E-3,1.068982761E-3
4.214953092E0,3.054236295E-4,-1.068982761E-3,1.068982761E-3
4.217396842E0,1.527118147E-3,-1.068982761E-3,1.068982761E-3
4.219841477E0,3.054236295E-4,-1.068982761E-3,1.068982761E-3
4.222286842E0,3.054236295E-4,-2.290677279E-3,-1.527118147E-4
4.224731321E0,3.054236295E-4,1.527118147E-4,1.068982761E-3
4.227175123E0,3.054236295E-4,1.527118147E-4,-1.374406274E-3
4.229619758E0,3.054236295E-4,1.374406274E-3,-2.596100792E-3
4.232065123E0,1.527118147E-3,-1.068982761E-3,-1.374406274E-3
4.234509706E0,3.054236295E-4,1.527118147E-4,-1.374406274E-3
4.236953404E0,-9.162708884E-4,1.527118147E-4,-1.527118147E-4
4.239398040E0,3.054236295E-4,-1.068982761E-3,-1.374406274E-3
4.241843404E0,3.054236295E-4,-1.068982761E-3,1.068982761E-3
4.244287987E0,-9.162708884E-4,-1.068982761E-3,-1.527118147E-4
4.246731737E0,3.054236295E-4,-1.068982761E-3,-1.374406274E-3
4.249176373E0,3.054236295E-4,-2.290677279E-3,1.068982761E-3
4.251621737E0,1.527118147E-3,-2.290677279E-3,1.068982761E-3
4.254066321E0,1.527118147E-3,-2.290677279E-3,-1.527118147E-4
4.256510019E0,3.054236295E-4,-1.068982761E-3,-1.374406274E-3
4.258954654E0,-9.162708884E-4,-1.068982761E-3,-1.527118147E-4
4.261400019E0,3.054236295E-4,1.527118147E-4,1.068982761E-3
4.263844602E0,-2.137965523E-3,1.374406274E-3,-1.374406274E-3
4.266288352E0,3.054236295E-4,-1.068982761E-3,-1.374406274E-3
4.268732987E0,-9.162708884E-4,1.527118147E-4,-2.596100792E-3
4.271178352E0,3.054236295E-4,-1.068982761E-3,-1.527118147E-4
4.273622935E0,1.527118147E-3,1.527118147E-4,1.068982761E-3
4.276066633E0,3.054236295E-4,-1.068982761E-3,-1.527118147E-4
4.278511269E0,-9.162708884E-4,1.527118147E-4,-2.596100792E-3
4.280956633E0,3.054236295E-4,1.527118147E-4,-1.527118147E-4
4.283401217E0,-9.162708884E-4,1.527118147E-4,-1.527118147E-4
4.285844967E0,3.054236295E-4,-1.068982761E-3,-1.527118147E-4
4.288289550E0,1.527118147E-3,1.527118147E-4,1.068982761E-3
4.290734967E0,-9.162708884E-4,-1.068982761E-3,-1.527118147E-4
4.293179446E0,3.054236295E-4,-1.068982761E-3,1.068982761E-3
4.295623248E0,-9.162708884E-4,1.527118147E-4,-1.527118147E-4
4.298067883E0,-2.137965523E-3,1.527118147E-4,1.068982761E-3
4.300513248E0,-9.162708884E-4,-1.068982761E-3,1.068982761E-3
4.302957831E0,-9.162708884E-4,-1.068982761E-3,-1.374406274E-3
4.305401529E0,-9.162708884E-4,1.527118147E-4,1.068982761E-3
4.307846165E0,-9.162708884E-4,-1.068982761E-3,-1.527118147E-4
4.310291529E0,-9.162708884E-4,1.527118147E-4,-2.596100792E-3
4.312736112E0,-9.162708884E-4,-1.068982761E-3,2.290677279E-3
4.315179862E0,1.527118147E-3,1.374406274E-3,1.068982761E-3
4.317624498E0,3.054236295E-4,1.527118147E-4,-1.527118147E-4
4.320069862E0,1.527118147E-3,-1.068982761E-3,1.068982761E-3
4.322514446E0,3.054236295E-4,-1.068982761E-3,-2.596100792E-3
4.324958144E0,3.054236295E-4,-1.068982761E-3,-2.596100792E-3
4.327402779E0,1.527118147E-3,-2.290677279E-3,1.068982761E-3
4.329848144E0,-9.162708884E-4,-1.068982761E-3,-1.527118147E-4
4.332292727E0,1.527118147E-3,-1.068982761E-3,-1.527118147E-4
4.334736477E0,3.054236295E-4,-2.290677279E-3,-1.527118147E-4
4.337181112E0,1.527118147E-3,1.527118147E-4,2.290677279E-3
4.339626477E0,-9.162708884E-4,2.596100792E-3,-1.374406274E-3
4.342070956E0,3.054236295E-4,1.527118147E-4,-2.596100792E-3
4.344514758E0,3.054236295E-4,-1.068982761E-3,-2.596100792E-3
4.346959394E0,3.054236295E-4,1.527118147E-4,-1.527118147E-4
4.349404758E0,3.054236295E-4,1.527118147E-4,-1.527118147E-4
4.351849342E0,3.054236295E-4,1.374406274E-3,-1.374406274E-3
4.354293092E0,3.054236295E-4,-1.068982761E-3,-1.374406274E-3
4.356737675E0,1.527118147E-3,-1.068982761E-3,-1.527118147E-4
4.359183040E0,-9.162708884E-4,-1.068982761E-3,-1.527118147E-4
4.361627623E0,-9.162708884E-4,1.527118147E-4,-1.527118147E-4
4.364071373E0,3.054236295E-4,-1.068982761E-3,-1.374406274E-3
4.366516008E0,3.054236295E-4,-1.068982761E-3,-2.596100792E-3
4.368961373E0,1.527118147E-3,1.527118147E-4,-1.527118147E-4
4.371405956E0,3.054236295E-4,-1.068982761E-3,-1.374406274E-3
4.373849706E0,3.054236295E-4,-1.068982761E-3,-1.374406274E-3
4.376294290E0,-9.162708884E-4,1.527118147E-4,-2.596100792E-3
4.378739654E0,3.054236295E-4,-1.068982761E-3,-1.527118147E-4
4.381184237E0,1.527118147E-3,-1.068982761E-3,4.734066315E-3
4.383627987E0,-9.162708884E-4,-1.068982761E-3,2.290677279E-3
4.386072623E0,3.054236295E-4,1.527118147E-4,1.068982761E-3
4.388517987E0,-9.162708884E-4,1.527118147E-4,1.068982761E-3
4.390962571E0,-9.162708884E-4,-1.068982761E-3,1.068982761E-3
4.393406269E0,3.054236295E-4,1.527118147E-4,3.512371797E-3
4.395850904E0,3.054236295E-4,1.527118147E-4,1.068982761E-3
4.398296269E0,3.054236295E-4,-2.290677279E-3,1.068982761E-3
4.400740852E0,2.748812549E-3,-3.512371797E-3,-1.527118147E-4
4.403184602E0,3.054236295E-4,-1.068982761E-3,1.068982761E-3
4.405629237E0,1.527118147E-3,-2.290677279E-3,-1.374406274E-3
4.408074602E0,1.527118147E-3,-2.290677279E-3,-1.374406274E-3
4.410519185E0,-9.162708884E-4,-1.068982761E-3,1.068982761E-3
4.412962883E0,-9.162708884E-4,-1.068982761E-3,-1.374406274E-3
4.415407519E0,3.054236295E-4,-1.068982761E-3,-1.527118147E-4
4.417852883E0,-9.162708884E-4,1.374406274E-3,-1.527118147E-4
4.420297467E0,1.527118147E-3,2.596100792E-3,-1.527118147E-4
4.422741217E0,3.054236295E-4,1.527118147E-4,1.068982761E-3
4.425185800E0,-9.162708884E-4,1.527118147E-4,1.068982761E-3
4.427631165E0,3.054236295E-4,1.527118147E-4,1.068982761E-3
4.430075748E0,3.054236295E-4,1.527118147E-4,-1.374406274E-3
4.432519498E0,3.054236295E-4,-1.068982761E-3,-2.596100792E-3
4.434964133E0,3.054236295E-4,1.527118147E-4,-1.374406274E-3
4.437409498E0,-9.162708884E-4,1.527118147E-4,-1.527118147E-4
4.439854081E0,3.054236295E-4,1.374406274E-3,-1.374406274E-3
4.442297779E0,-2.137965523E-3,1.527118147E-4,1.068982761E-3
4.444742415E0,-2.137965523E-3,1.527118147E-4,-1.527118147E-4
4.447187779E0,-9.162708884E-4,1.527118147E-4,1.068982761E-3
4.449632362E0,3.054236295E-4,1.527118147E-4,-1.527118147E-4
4.452076112E0,3.054236295E-4,-2.290677279E-3,-2.596100792E-3
4.454520748E0,1.527118147E-3,-2.290677279E-3,1.068982761E-3
4.456966112E0,3.054236295E-4,-1.068982761E-3,-1.527118147E-4
4.459410696E0,1.527118147E-3,-2.290677279E-3,-1.527118147E-4
4.461854394E0,1.527118147E-3,1.527118147E-4,1.068982761E-3
4.464298977E0,3.054236295E-4,-1.068982761E-3,1.068982761E-3
4.466744394E0,3.054236295E-4,1.374406274E-3,-1.374406274E-3
4.469188977E0,1.527118147E-3,1.374406274E-3,1.068982761E-3
4.471632727E0,3.054236295E-4,1.527118147E-4,1.068982761E-3
4.474077362E0,3.054236295E-4,1.527118147E-4,-1.527118147E-4
4.476522727E0,1.527118147E-3,1.527118147E-4,-1.527118147E-4
4.478967206E0,1.527118147E-3,-1.068982761E-3,1.068982761E-3
4.481411008E0,3.054236295E-4,1.527118147E-4,2.290677279E-3
4.483855644E0,3.054236295E-4,-3.512371797E-3,1.068982761E-3
4.486301008E0,-9.162708884E-4,-1.068982761E-3,-1.527118147E-4
4.488745592E0,1.527118147E-3,1.527118147E-4,-1.527118147E-4
4.491189342E0,-9.162708884E-4,1.527118147E-4,-1.527118147E-4
4.493633925E0,-9.162708884E-4,1.374406274E-3,1.068982761E-3
4.496079342E0,1.527118147E-3,-1.068982761E-3,-1.527118147E-4
4.498523821E0,-9.162708884E-4,1.374406274E-3,-2.596100792E-3
4.500967623E0,1.527118147E-3,1.374406274E-3,1.068982761E-3
4.503412258E0,-9.162708884E-4,1.527118147E-4,-1.527118147E-4
4.505857623E0,-9.162708884E-4,1.527118147E-4,-1.374406274E-3
4.508302206E0,3.054236295E-4,-2.290677279E-3,-1.527118147E-4
4.510745904E0,3.054236295E-4,-3.512371797E-3,1.068982761E-3
4.513190540E0,3.054236295E-4,-2.290677279E-3,2.290677279E-3
4.515635904E0,1.527118147E-3,-1.068982761E-3,-1.374406274E-3
4.518080487E0,-9.162708884E-4,1.527118147E-4,-1.527118147E-4
4.520524237E0,3.054236295E-4,-2.290677279E-3,-1.374406274E-3
4.522968873E0,3.054236295E-4,1.527118147E-4,-1.527118147E-4
4.525414237E0,1.527118147E-3,-1.068982761E-3,-1.527118147E-4
4.527858821E0,1.527118147E-3,-2.290677279E-3,2.290677279E-3
4.530302519E0,3.054236295E-4,-1.068982761E-3,1.068982761E-3
4.532747154E0,3.054236295E-4,1.527118147E-4,1.068982761E-3
4.535192519E0,-9.162708884E-4,-1.068982761E-3,-1.527118147E-4
4.537637102E0,-9.162708884E-4,1.374406274E-3,-1.374406274E-3
4.540080852E0,3.054236295E-4,-1.068982761E-3,-1.374406274E-3
4.542525435E0,3.054236295E-4,-2.290677279E-3,1.068982761E-3
4.544970852E0,1.527118147E-3,-1.068982761E-3,-1.527118147E-4
4.547415331E0,3.054236295E-4,1.527118147E-4,-1.527118147E-4
4.549859133E0,1.527118147E-3,-1.068982761E-3,2.290677279E-3
4.552303769E0,-9.162708884E-4,-2.290677279E-3,2.290677279E-3
4.554749133E0,-9.162708884E-4,-1.068982761E-3,1.068982761E-3
4.557193717E0,-9.162708884E-4,1.527118147E-4,-1.527118147E-4
4.559637467E0,3.054236295E-4,1.527118147E-4,1.068982761E-3
4.562082050E0,3.054236295E-4,1.374406274E-3,-1.527118147E-4
4.564527415E0,-9.162708884E-4,1.374406274E-3,1.068982761E-3
4.566971998E0,3.054236295E-4,1.374406274E-3,-1.527118147E-4
4.569415748E0,3.054236295E-4,-2.290677279E-3,-1.374406274E-3
4.571860383E0,3.054236295E-4,-4.734066315E-3,1.068982761E-3
4.574305748E0,-2.137965523E-3,-1.068982761E-3,-1.374406274E-3
4.576750331E0,3.054236295E-4,-2.290677279E-3,-1.374406274E-3
4.579194029E0,3.054236295E-4,1.527118147E-4,-1.374406274E-3
4.581638665E0,-9.162708884E-4,1.374406274E-3,-3.817795310E-3
4.584084029E0,1.527118147E-3,-1.068982761E-3,-1.527118147E-4
4.586528612E0,1.527118147E-3,-1.068982761E-3,1.068982761E-3
4.588972362E0,3.054236295E-4,-1.068982761E-3,2.290677279E-3
4.591416998E0,3.054236295E-4,1.527118147E-4,-1.527118147E-4
4.593862362E0,3.054236295E-4,1.527118147E-4,2.290677279E-3
4.596306946E0,-9.162708884E-4,-1.068982761E-3,-1.527118147E-4
4.598750644E0,3.054236295E-4,-1.068982761E-3,-2.596100792E-3
4.601195279E0,3.054236295E-4,-1.068982761E-3,-1.374406274E-3
4.603640644E0,-2.137965523E-3,1.527118147E-4,-1.527118147E-4
4.606085227E0,3.054236295E-4,1.527118147E-4,-1.527118147E-4
4.608528977E0,-9.162708884E-4,-1.068982761E-3,-1.527118147E-4
4.610973612E0,3.054236295E-4,-2.290677279E-3,-1.527118147E-4
4.613418977E0,-9.162708884E-4,-1.068982761E-3,1.068982761E-3
4.615863560E0,3.054236295E-4,1.374406274E-3,1.068982761E-3
4.618307258E0,-9.162708884E-4,1.527118147E-4,1.068982761E-3
4.620751894E0,3.054236295E-4,-1.068982761E-3,-1.374406274E-3
4.623197258E0,-9.162708884E-4,1.527118147E-4,-1.527118147E-4
4.625641842E0,3.054236295E-4,1.527118147E-4,2.290677279E-3
4.628085540E0,1.527118147E-3,1.527118147E-4,2.290677279E-3
4.630530175E0,3.054236295E-4,1.527118147E-4,2.290677279E-3
4.632975540E0,3.054236295E-4,-1.068982761E-3,-1.527118147E-4
4.635420123E0,1.527118147E-3,1.527118147E-4,1.068982761E-3
4.637863873E0,3.054236295E-4,-1.068982761E-3,1.068982761E-3
4.640308508E0,1.527118147E-3,-2.290677279E-3,1.068982761E-3
4.642753873E0,3.054236295E-4,-2.290677279E-3,-1.527118147E-4
4.645198456E0,1.527118147E-3,-1.068982761E-3,-1.527118147E-4
4.647642154E0,1.527118147E-3,-1.068982761E-3,-1.527118147E-4
4.650086790E0,3.054236295E-4,-1.068982761E-3,-1.527118147E-4
4.652532154E0,3.054236295E-4,1.527118147E-4,1.068982761E-3
4.654976737E0,3.054236295E-4,1.527118147E-4,1.068982761E-3
4.657420487E0,3.054236295E-4,-1.068982761E-3,2.290677279E-3
4.659865123E0,3.054236295E-4,-2.290677279E-3,1.068982761E-3
4.662310487E0,3.054236295E-4,-2.290677279E-3,2.290677279E-3
4.664755071E0,3.054236295E-4,-1.068982761E-3,-1.527118147E-4
4.667198769E0,3.054236295E-4,-1.068982761E-3,2.290677279E-3
4.669643404E0,1.527118147E-3,-1.068982761E-3,1.068982761E-3
4.672088769E0,-2.137965523E-3,1.527118147E-4,-2.596100792E-3
4.674533352E0,3.054236295E-4,1.527118147E-4,-1.374406274E-3
4.676977102E0,1.527118147E-3,-1.068982761E-3,2.290677279E-3
4.679421737E0,1.527118147E-3,1.374406274E-3,-1.527118147E-4
4.681867102E0,3.054236295E-4,1.527118147E-4,1.068982761E-3
4.684311685E0,-9.162708884E-4,-2.290677279E-3,-1.527118147E-4
4.686755383E0,3.054236295E-4,-1.068982761E-3,1.068982761E-3
4.689200019E0,-9.162708884E-4,-2.290677279E-3,-1.527118147E-4
4.691645383E0,3.054236295E-4,-1.068982761E-3,1.068982761E-3
4.694089967E0,3.054236295E-4,-1.068982761E-3,-1.527118147E-4
4.696533717E0,-9.162708884E-4,-1.068982761E-3,1.068982761E-3
4.698978300E0,3.054236295E-4,-1.068982761E-3,-1.374406274E-3
4.701423665E0,3.054236295E-4,-1.068982761E-3,-1.527118147E-4
4.703868248E0,-9.162708884E-4,-2.290677279E-3,-1.527118147E-4
4.706311998E0,-9.162708884E-4,-1.068982761E-3,-1.527118147E-4
4.708756633E0,-9.162708884E-4,-2.290677279E-3,-1.374406274E-3
4.711201998E0,3.054236295E-4,1.527118147E-4,-2.596100792E-3
4.713646581E0,-9.162708884E-4,1.527118147E-4,-1.527118147E-4
4.716090279E0,3.054236295E-4,1.527118147E-4,1.068982761E-3
4.718534915E0,3.054236295E-4,-1.068982761E-3,-1.527118147E-4
4.720980279E0,3.054236295E-4,1.527118147E-4,-1.527118147E-4
4.723424862E0,3.054236295E-4,1.527118147E-4,-1.527118147E-4
4.725868612E0,3.054236295E-4,-1.068982761E-3,1.068982761E-3
4.728313248E0,1.527118147E-3,-1.068982761E-3,1.068982761E-3
4.730758612E0,2.748812549E-3,1.527118147E-4,2.290677279E-3
4.733203196E0,2.748812549E-3,1.527118147E-4,3.512371797E-3
4.735646894E0,2.748812549E-3,-1.068982761E-3,1.068982761E-3
4.738091529E0,3.054236295E-4,-1.068982761E-3,-1.374406274E-3
4.740536894E0,-9.162708884E-4,1.527118147E-4,-1.527118147E-4
4.742981477E0,3.054236295E-4,1.374406274E-3,-1.527118147E-4
4.745425227E0,1.527118147E-3,-1.068982761E-3,1.068982761E-3
4.747869810E0,3.054236295E-4,-1.068982761E-3,-1.527118147E-4
4.750315227E0,-9.162708884E-4,1.374406274E-3,-1.374406274E-3
4.752759706E0,3.054236295E-4,1.374406274E-3,1.068982761E-3
4.755203508E0,1.527118147E-3,-1.068982761E-3,-1.527118147E-4
4.757648144E0,3.054236295E-4,-1.068982761E-3,-1.374406274E-3
4.760093508E0,1.527118147E-3,-1.068982761E-3,1.068982761E-3
4.762538092E0,1.527118147E-3,-1.068982761E-3,-1.527118147E-4
4.764981842E0,3.054236295E-4,1.527118147E-4,-1.374406274E-3
4.767426425E0,1.527118147E-3,-1.068982761E-3,-1.527118147E-4
4.769871842E0,-9.162708884E-4,-2.290677279E-3,1.068982761E-3
4.772316321E0,-9.162708884E-4,1.527118147E-4,1.068982761E-3
4.774760123E0,3.054236295E-4,-2.290677279E-3,1.068982761E-3
4.777204758E0,-9.162708884E-4,1.527118147E-4,-1.527118147E-4
4.779650123E0,1.527118147E-3,1.527118147E-4,1.068982761E-3
4.782094706E0,3.054236295E-4,1.527118147E-4,-1.374406274E-3
4.784538404E0,1.527118147E-3,-1.068982761E-3,2.290677279E-3
4.786983040E0,-9.162708884E-4,-1.068982761E-3,-1.374406274E-3
4.789428404E0,-9.162708884E-4,1.527118147E-4,-2.596100792E-3
4.791872987E0,3.054236295E-4,-1.068982761E-3,1.068982761E-3
4.794316737E0,-9.162708884E-4,1.527118147E-4,1.068982761E-3
4.796761373E0,1.527118147E-3,1.374406274E-3,-1.527118147E-4
4.799206737E0,1.527118147E-3,-1.068982761E-3,-1.527118147E-4
4.801651321E0,-9.162708884E-4,1.374406274E-3,1.068982761E-3
4.804095019E0,3.054236295E-4,1.527118147E-4,1.068982761E-3
4.806539654E0,-9.162708884E-4,-1.068982761E-3,-1.527118147E-4
4.808985019E0,3.054236295E-4,-1.068982761E-3,-1.527118147E-4
4.811429602E0,-9.162708884E-4,1.527118147E-4,-1.527118147E-4
4.813873352E0,3.054236295E-4,-2.290677279E-3,1.068982761E-3
4.816317987E0,3.054236295E-4,-2.290677279E-3,-1.374406274E-3
4.818763352E0,3.054236295E-4,-1.068982761E-3,-1.527118147E-4
4.821207831E0,3.054236295E-4,1.374406274E-3,-1.527118147E-4
4.823651633E0,1.527118147E-3,-1.068982761E-3,1.068982761E-3
4.826096269E0,3.054236295E-4,1.374406274E-3,1.068982761E-3
4.828541633E0,-2.137965523E-3,1.527118147E-4,-1.374406274E-3
4.830986217E0,-2.137965523E-3,1.374406274E-3,-5.039489828E-3
4.833429915E0,3.054236295E-4,1.374406274E-3,-1.374406274E-3
4.835874550E0,1.527118147E-3,1.527118147E-4,-1.527118147E-4
4.838319915E0,3.054236295E-4,-2.290677279E-3,-1.527118147E-4
4.840764498E0,-9.162708884E-4,-2.290677279E-3,-1.527118147E-4
4.843208248E0,1.527118147E-3,-1.068982761E-3,-1.374406274E-3
4.845652883E0,1.527118147E-3,1.527118147E-4,1.068982761E-3
4.848098248E0,1.527118147E-3,-2.290677279E-3,1.068982761E-3
4.850542831E0,3.054236295E-4,1.527118147E-4,1.068982761E-3
4.852986529E0,3.054236295E-4,1.527118147E-4,1.068982761E-3
4.855431165E0,-9.162708884E-4,1.527118147E-4,1.068982761E-3
4.857876529E0,3.054236295E-4,-1.068982761E-3,1.068982761E-3
4.860321112E0,-9.162708884E-4,-3.512371797E-3,1.068982761E-3
4.862764862E0,-9.162708884E-4,1.527118147E-4,-1.527118147E-4
4.865209498E0,3.054236295E-4,1.527118147E-4,-1.527118147E-4
4.867654862E0,-9.162708884E-4,1.374406274E-3,-1.527118147E-4
4.870099446E0,-9.162708884E-4,1.527118147E-4,-1.527118147E-4
4.872543144E0,-9.162708884E-4,-2.290677279E-3,-1.527118147E-4
4.874987779E0,-9.162708884E-4,1.374406274E-3,-1.374406274E-3
4.877433144E0,3.054236295E-4,1.527118147E-4,-1.374406274E-3
4.879877727E0,1.527118147E-3,1.527118147E-4,-1.527118147E-4
4.882321477E0,1.527118147E-3,-1.068982761E-3,-1.527118147E-4
4.884766112E0,2.748812549E-3,1.527118147E-4,-1.527118147E-4
4.887211477E0,-9.162708884E-4,-2.290677279E-3,-1.527118147E-4
4.889655956E0,3.054236295E-4,1.527118147E-4,1.068982761E-3
4.892099758E0,1.527118147E-3,-1.068982761E-3,-1.374406274E-3
4.894544394E0,-9.162708884E-4,-1.068982761E-3,-2.596100792E-3
4.896989758E0,3.054236295E-4,-1.068982761E-3,1.068982761E-3
4.899434342E0,-9.162708884E-4,1.527118147E-4,-1.527118147E-4
4.901878092E0,3.054236295E-4,1.527118147E-4,-1.527118147E-4
4.904322675E0,3.054236295E-4,1.527118147E-4,-1.374406274E-3
4.906768040E0,3.054236295E-4,-1.068982761E-3,2.290677279E-3
4.909212623E0,-9.162708884E-4,-1.068982761E-3,-1.527118147E-4
4.911656373E0,3.054236295E-4,1.527118147E-4,-1.527118147E-4
4.914101008E0,-9.162708884E-4,-2.290677279E-3,-1.374406274E-3
4.916546373E0,1.527118147E-3,1.527118147E-4,-1.527118147E-4
4.918990956E0,3.054236295E-4,-1.068982761E-3,-1.527118147E-4
4.921434654E0,1.527118147E-3,-1.068982761E-3,-1.374406274E-3
4.923879290E0,3.054236295E-4,1.374406274E-3,-1.374406274E-3
4.926324654E0,3.054236295E-4,-1.068982761E-3,-1.527118147E-4
4.928769237E0,3.054236295E-4,-1.068982761E-3,1.068982761E-3
4.931212987E0,3.054236295E-4,-1.068982761E-3,-1.527118147E-4
4.933657623E0,3.054236295E-4,1.527118147E-4,-3.817795310E-3
4.936102987E0,-9.162708884E-4,1.527118147E-4,-1.527118147E-4
4.938547571E0,3.054236295E-4,1.527118147E-4,1.068982761E-3
4.940991269E0,3.054236295E-4,1.374406274E-3,-1.374406274E-3
4.943435904E0,-9.162708884E-4,1.527118147E-4,-1.374406274E-3
4.945881269E0,1.527118147E-3,-1.068982761E-3,-1.527118147E-4
4.948325852E0,3.054236295E-4,-1.068982761E-3,-1.527118147E-4
4.950769602E0,3.054236295E-4,1.374406274E-3,-1.527118147E-4
4.953214185E0,-9.162708884E-4,-1.068982761E-3,-3.817795310E-3
4.955659602E0,-9.162708884E-4,-1.068982761E-3,-1.527118147E-4
4.958104081E0,1.527118147E-3,-1.068982761E-3,3.512371797E-3
4.960547883E0,1.527118147E-3,1.374406274E-3,1.068982761E-3
4.962992519E0,1.527118147E-3,1.527118147E-4,-2.596100792E-3
4.965437883E0,1.527118147E-3,1.527118147E-4,-1.527118147E-4
4.967882467E0,-9.162708884E-4,1.527118147E-4,1.068982761E-3
4.970326165E0,-9.162708884E-4,-1.068982761E-3,-1.527118147E-4
4.972770800E0,1.527118147E-3,-1.068982761E-3,-2.596100792E-3
4.975216217E0,-9.162708884E-4,-1.068982761E-3,-1.374406274E-3
