"Time (s)","Acceleration x (m/s^2)","Acceleration y (m/s^2)","Acceleration z (m/s^2)","Absolute acceleration (m/s^2)"
1.807084400E-2,-9.750752151E-2,-9.897313118E0,-2.150549293E-1,9.900129458E0
2.049667800E-2,-7.357929647E-2,-9.909276962E0,-2.078764737E-1,9.911730245E0
2.292261500E-2,-9.750752151E-2,-9.909276962E0,-1.983051747E-1,9.911740643E0
2.534850100E-2,-1.094716340E-1,-9.918848038E0,-2.102692872E-1,9.921680483E0
2.777438600E-2,-1.046859920E-1,-9.933204651E0,-2.006980032E-1,9.935783486E0
3.020027100E-2,-9.750752151E-2,-9.911669731E0,-1.767697781E-1,9.913725442E0
3.262615700E-2,-1.022931710E-1,-9.899705887E0,-1.911267042E-1,9.902079072E0
3.505204200E-2,-1.142572835E-1,-9.911669731E0,-1.959123611E-1,9.914264130E0
3.747792800E-2,-1.142572835E-1,-9.923633575E0,-1.815554202E-1,9.925951866E0
3.990381300E-2,-8.075776696E-2,-9.916455269E0,-1.935195327E-1,9.918672125E0
4.232969900E-2,-9.032905847E-2,-9.918848038E0,-1.863410622E-1,9.921009461E0
4.475558400E-2,-9.272187948E-2,-9.911669731E0,-1.815554202E-1,9.913766014E0
4.718146900E-2,-9.032905847E-2,-9.909276962E0,-2.198405862E-1,9.912126873E0
4.960735500E-2,-1.118644550E-1,-9.897313118E0,-2.174477577E-1,9.900333537E0
5.203324000E-2,-1.118644550E-1,-9.904491425E0,-2.126621157E-1,9.907405776E0
5.445912600E-2,-9.750752151E-2,-9.911669731E0,-1.935195327E-1,9.914038248E0
5.688501100E-2,-1.094716340E-1,-9.899705887E0,-1.719841212E-1,9.901804847E0
5.931089600E-2,-8.793623000E-2,-9.902098656E0,-1.887338907E-1,9.904287508E0
6.173678200E-2,-9.750752151E-2,-9.921240807E0,-2.078764737E-1,9.923897394E0
6.416266700E-2,-9.032905847E-2,-9.916455269E0,-1.959123611E-1,9.918801646E0
6.658855300E-2,-1.046859920E-1,-9.902098656E0,-2.054836452E-1,9.904783717E0
6.901443800E-2,-1.118644550E-1,-9.909276962E0,-2.006980032E-1,9.911940439E0
7.144032400E-2,-1.094716340E-1,-9.911669731E0,-1.791625917E-1,9.913893288E0
7.386620900E-2,-1.094716340E-1,-9.911669731E0,-1.911267042E-1,9.914116719E0
7.629209400E-2,-1.190429255E-1,-9.933204651E0,-1.815554202E-1,9.935576894E0
7.871798000E-2,-1.286142170E-1,-9.940383911E0,-1.815554202E-1,9.942873643E0
8.114386500E-2,-1.046859920E-1,-9.918848038E0,-1.911267042E-1,9.921241604E0
8.356975100E-2,-1.118644550E-1,-9.906884193E0,-1.791625917E-1,9.909135548E0
8.599563600E-2,-8.554340899E-2,-9.921240807E0,-1.935195327E-1,9.923496694E0
8.842152100E-2,-1.046859920E-1,-9.911669731E0,-2.318046987E-1,9.914932649E0
9.084740700E-2,-1.214357466E-1,-9.918848038E0,-1.959123611E-1,9.921525825E0
9.327329200E-2,-1.142572835E-1,-9.928419113E0,-1.815554202E-1,9.930736286E0
9.569917800E-2,-1.142572835E-1,-9.914062500E0,-1.839482337E-1,9.916427125E0
9.812506300E-2,-9.511470050E-2,-9.892526627E0,-2.102692872E-1,9.895218190E0
1.005509490E-1,-9.990034252E-2,-9.904491425E0,-1.911267042E-1,9.906839046E0
1.029768340E-1,-1.046859920E-1,-9.942776680E0,-1.791625917E-1,9.944941754E0
1.054027190E-1,-1.046859920E-1,-9.904491425E0,-1.839482337E-1,9.906752570E0
1.078286050E-1,-1.070788130E-1,-9.899705887E0,-1.887338907E-1,9.902083771E0
1.102544900E-1,-9.032905847E-2,-9.911669731E0,-1.600200087E-1,9.913372917E0
1.126803760E-1,-1.094716340E-1,-9.899705887E0,-1.767697781E-1,9.901889125E0
1.151062610E-1,-1.070788130E-1,-9.923633575E0,-1.935195327E-1,9.926097875E0
1.175321460E-1,-1.118644550E-1,-9.911669731E0,-1.815554202E-1,9.913963531E0
1.199580320E-1,-1.286142170E-1,-9.911669731E0,-1.911267042E-1,9.914346569E0
1.223839170E-1,-1.094716340E-1,-9.906884193E0,-2.150549293E-1,9.909822757E0
1.248098030E-1,-9.272187948E-2,-9.906884193E0,-1.911267042E-1,9.909161477E0
1.272356880E-1,-9.990034252E-2,-9.909276962E0,-1.863410622E-1,9.911532323E0
1.296615740E-1,-8.075776696E-2,-9.899705887E0,-2.030908167E-1,9.902118175E0
1.320874590E-1,-9.511470050E-2,-9.904491425E0,-1.959123611E-1,9.906885426E0
1.345133440E-1,-8.793623000E-2,-9.928419113E0,-2.078764737E-1,9.930984417E0
1.369392300E-1,-9.511470050E-2,-9.904491425E0,-2.030908167E-1,9.907029982E0
1.393651150E-1,-1.070788130E-1,-9.909276962E0,-2.030908167E-1,9.911936323E0
1.417910010E-1,-8.554340899E-2,-9.906884193E0,-1.911267042E-1,9.909096907E0
1.442168860E-1,-7.597211748E-2,-9.887741089E0,-1.959123611E-1,9.889973572E0
1.466427710E-1,-9.511470050E-2,-9.890133858E0,-1.839482337E-1,9.892301627E0
1.490686570E-1,-1.022931710E-1,-9.904491425E0,-2.030908167E-1,9.907101501E0
1.514945420E-1,-9.032905847E-2,-9.892526627E0,-1.983051747E-1,9.894926343E0
1.539204280E-1,-1.166501045E-1,-9.902098656E0,-1.959123611E-1,9.904723453E0
1.563463130E-1,-1.118644550E-1,-9.887741089E0,-2.030908167E-1,9.890459210E0
1.587721990E-1,-8.315058798E-2,-9.909276962E0,-2.006980032E-1,9.911657965E0
1.611980840E-1,-9.990034252E-2,-9.899705887E0,-2.054836452E-1,9.902342160E0
1.636239690E-1,-9.750752151E-2,-9.918848038E0,-2.126621157E-1,9.921606689E0
1.660498550E-1,-9.272187948E-2,-9.909276962E0,-2.150549293E-1,9.912043981E0
1.684757400E-1,-1.333998591E-1,-9.926026344E0,-1.767697781E-1,9.928496465E0
1.709016260E-1,-9.990034252E-2,-9.921240807E0,-1.935195327E-1,9.923630839E0
1.733275110E-1,-1.118644550E-1,-9.928419113E0,-2.054836452E-1,9.931175322E0
1.757533960E-1,-1.022931710E-1,-9.914062500E0,-1.887338907E-1,9.916386420E0
1.781792820E-1,-9.272187948E-2,-9.904491425E0,-2.006980032E-1,9.906958535E0
1.806051670E-1,-1.094716340E-1,-9.928419113E0,-1.887338907E-1,9.930816210E0
1.830310530E-1,-1.094716340E-1,-9.916455269E0,-1.791625917E-1,9.918677753E0
1.854569380E-1,-1.094716340E-1,-9.911669731E0,-1.959123611E-1,9.914210132E0
1.878828240E-1,-9.990034252E-2,-9.926026344E0,-2.150549293E-1,9.928858328E0
1.903087090E-1,-1.190429255E-1,-9.906884193E0,-2.198405862E-1,9.910038119E0
1.927345940E-1,-8.793623000E-2,-9.926026344E0,-1.887338907E-1,9.928209922E0
1.951604800E-1,-1.238285750E-1,-9.909276962E0,-1.863410622E-1,9.911802380E0
1.975863650E-1,-1.214357466E-1,-9.902098656E0,-1.983051747E-1,9.904828589E0
2.000122510E-1,-1.238285750E-1,-9.897313118E0,-2.054836452E-1,9.900220402E0
2.024381360E-1,-1.094716340E-1,-9.906884193E0,-2.006980032E-1,9.909521590E0
2.048640210E-1,-1.190429255E-1,-9.899705887E0,-2.006980032E-1,9.902455632E0
2.072899070E-1,-9.750752151E-2,-9.921240807E0,-2.078764737E-1,9.923897394E0
2.097157920E-1,-1.022931710E-1,-9.916455269E0,-2.030908167E-1,9.919062197E0
2.121416780E-1,-1.046859920E-1,-9.894919395E0,-2.078764737E-1,9.897656370E0
2.145675630E-1,-1.094716340E-1,-9.911669731E0,-1.911267042E-1,9.914116719E0
2.169934490E-1,-1.094716340E-1,-9.899705887E0,-2.102692872E-1,9.902543807E0
2.194193340E-1,-8.793623000E-2,-9.918848038E0,-1.983051747E-1,9.921219891E0
2.218452190E-1,-1.070788130E-1,-9.902098656E0,-1.911267042E-1,9.904521850E0
2.242711050E-1,-8.315058798E-2,-9.880562782E0,-1.911267042E-1,9.882760967E0
2.266969900E-1,-9.990034252E-2,-9.906884193E0,-2.054836452E-1,9.909518557E0
2.291228760E-1,-7.118647546E-2,-9.909276962E0,-1.863410622E-1,9.911284499E0
2.315487610E-1,-8.075776696E-2,-9.916455269E0,-1.959123611E-1,9.918719099E0
2.339746990E-1,-8.075776696E-2,-9.897313118E0,-2.006980032E-1,9.899677190E0
2.364005320E-1,-7.836493850E-2,-9.911669731E0,-1.959123611E-1,9.913915451E0
2.388264170E-1,-9.750752151E-2,-9.918848038E0,-2.054836452E-1,9.921455419E0
2.412523550E-1,-9.750752151E-2,-9.916455269E0,-2.246262282E-1,9.919478301E0
2.436782400E-1,-9.511470050E-2,-9.894919395E0,-2.078764737E-1,9.897559764E0
2.461041260E-1,-1.166501045E-1,-9.899705887E0,-2.054836452E-1,9.902525305E0
2.485299590E-1,-8.554340899E-2,-9.933204651E0,-1.911267042E-1,9.935411503E0
2.509558960E-1,-8.315058798E-2,-9.916455269E0,-1.743769497E-1,9.918336879E0
2.533817820E-1,-1.022931710E-1,-9.902098656E0,-2.054836452E-1,9.904758715E0
2.558076670E-1,-8.554340899E-2,-9.892526627E0,-1.983051747E-1,9.894883813E0
2.582335530E-1,-1.166501045E-1,-9.916455269E0,-2.174477577E-1,9.919524982E0
2.606594380E-1,-9.511470050E-2,-9.928419113E0,-2.054836452E-1,9.931000776E0
2.630853240E-1,-8.315058798E-2,-9.930811882E0,-1.815554202E-1,9.932819390E0
2.655112090E-1,-9.511470050E-2,-9.911669731E0,-1.935195327E-1,9.914015003E0
2.679370940E-1,-1.070788130E-1,-9.923633575E0,-1.959123611E-1,9.926144814E0
2.703629800E-1,-1.286142170E-1,-9.902098656E0,-1.839482337E-1,9.904642162E0
2.727888650E-1,-1.501496136E-1,-9.906884193E0,-1.935195327E-1,9.909911661E0
2.752147510E-1,-1.070788130E-1,-9.902098656E0,-2.030908167E-1,9.904759944E0
2.776406360E-1,-1.381855011E-1,-9.904491425E0,-1.935195327E-1,9.907345529E0
2.800665210E-1,-8.075776696E-2,-9.926026344E0,-1.911267042E-1,9.928194711E0
2.824924070E-1,-9.990034252E-2,-9.914062500E0,-1.887338907E-1,9.916362025E0
2.849182920E-1,-1.142572835E-1,-9.935597420E0,-1.767697781E-1,9.937826642E0
2.873441780E-1,-1.046859920E-1,-9.914062500E0,-1.743769497E-1,9.916148533E0
2.897700630E-1,-9.272187948E-2,-9.887741089E0,-1.839482337E-1,9.889886660E0
2.921959490E-1,-1.262213886E-1,-9.921240807E0,-1.791625917E-1,9.923661130E0
2.946218340E-1,-1.262213886E-1,-9.916455269E0,-1.959123611E-1,9.919193445E0
2.970477190E-1,-1.214357466E-1,-9.897313118E0,-1.959123611E-1,9.899996730E0
2.994736050E-1,-9.511470050E-2,-9.902098656E0,-1.935195327E-1,9.904446194E0
3.018994900E-1,-9.750752151E-2,-9.897313118E0,-1.863410622E-1,9.899547346E0
3.043253760E-1,-1.166501045E-1,-9.909276962E0,-1.743769497E-1,9.911497590E0
3.067512610E-1,-1.022931710E-1,-9.882955551E0,-1.911267042E-1,9.885332758E0
3.091771460E-1,-1.046859920E-1,-9.890133858E0,-1.839482337E-1,9.892398285E0
3.116030320E-1,-1.190429255E-1,-9.916455269E0,-1.767697781E-1,9.918745075E0
3.140289170E-1,-9.272187948E-2,-9.894919395E0,-1.815554202E-1,9.897019226E0
3.164548030E-1,-1.118644550E-1,-9.902098656E0,-2.078764737E-1,9.904912118E0
3.188806880E-1,-1.142572835E-1,-9.914062500E0,-1.767697781E-1,9.916296563E0
3.213065740E-1,-1.070788130E-1,-9.887741089E0,-1.815554202E-1,9.889987466E0
3.237324590E-1,-9.990034252E-2,-9.916455269E0,-1.839482337E-1,9.918664332E0
3.261583440E-1,-1.046859920E-1,-9.906884193E0,-1.935195327E-1,9.909327091E0
3.285842300E-1,-1.118644550E-1,-9.890133858E0,-1.887338907E-1,9.892567001E0
3.310101150E-1,-1.262213886E-1,-9.909276962E0,-2.102692872E-1,9.912311281E0
3.334360010E-1,-9.990034252E-2,-9.899705887E0,-1.983051747E-1,9.902195800E0
3.358618860E-1,-1.118644550E-1,-9.897313118E0,-1.911267042E-1,9.899790403E0
3.382877710E-1,-1.142572835E-1,-9.916455269E0,-2.102692872E-1,9.919342367E0
3.407136570E-1,-9.750752151E-2,-9.923633575E0,-2.054836452E-1,9.926239700E0
3.431395420E-1,-9.990034252E-2,-9.916455269E0,-1.983051747E-1,9.918940978E0
3.455654280E-1,-8.075776696E-2,-9.928419113E0,-2.126621157E-1,9.931024775E0
3.479913130E-1,-9.032905847E-2,-9.942776680E0,-2.006980032E-1,9.945212272E0
3.504171990E-1,-9.511470050E-2,-9.909276962E0,-1.863410622E-1,9.911485243E0
3.528430840E-1,-1.094716340E-1,-9.892526627E0,-1.983051747E-1,9.895119607E0
3.552689690E-1,-9.032905847E-2,-9.906884193E0,-1.887338907E-1,9.909093513E0
3.576948550E-1,-9.272187948E-2,-9.921240807E0,-1.791625917E-1,9.923291577E0
3.601207400E-1,-1.238285750E-1,-9.899705887E0,-1.911267042E-1,9.902324958E0
3.625466260E-1,-1.022931710E-1,-9.930811882E0,-2.030908167E-1,9.933415043E0
3.649725110E-1,-1.142572835E-1,-9.928419113E0,-1.911267042E-1,9.930915881E0
3.673983960E-1,-6.640082598E-2,-9.916455269E0,-2.006980032E-1,9.918708276E0
3.698242820E-1,-1.094716340E-1,-9.926026344E0,-1.935195327E-1,9.928516145E0
3.722501670E-1,-1.310070455E-1,-9.909276962E0,-2.006980032E-1,9.912174961E0
3.746760530E-1,-1.094716340E-1,-9.890133858E0,-1.815554202E-1,9.892405882E0
3.771019380E-1,-9.032905847E-2,-9.904491425E0,-1.863410622E-1,9.906655980E0
3.795278240E-1,-8.793623000E-2,-9.894919395E0,-2.006980032E-1,9.897345215E0
3.819537090E-1,-1.118644550E-1,-9.902098656E0,-1.815554202E-1,9.904394672E0
3.843795940E-1,-7.836493850E-2,-9.933204651E0,-1.911267042E-1,9.935352290E0
3.868054800E-1,-9.511470050E-2,-9.894919395E0,-1.815554202E-1,9.897041933E0
3.892313650E-1,-9.990034252E-2,-9.887741089E0,-1.983051747E-1,9.890234014E0
3.916572510E-1,-1.070788130E-1,-9.892526627E0,-1.887338907E-1,9.894906236E0
3.940831360E-1,-1.022931710E-1,-9.916455269E0,-1.983051747E-1,9.918965366E0
3.965090210E-1,-1.022931710E-1,-9.933204651E0,-1.887338907E-1,9.935524093E0
3.989349070E-1,-1.118644550E-1,-9.911669731E0,-1.791625917E-1,9.913919999E0
4.013607920E-1,-9.990034252E-2,-9.923633575E0,-1.839482337E-1,9.925841041E0
4.037866780E-1,-1.070788130E-1,-9.902098656E0,-1.983051747E-1,9.904662973E0
4.062125630E-1,-1.214357466E-1,-9.894919395E0,-2.078764737E-1,9.897847701E0
4.086384490E-1,-9.511470050E-2,-9.918848038E0,-2.006980032E-1,9.921334229E0
4.110643340E-1,-1.262213886E-1,-9.914062500E0,-1.887338907E-1,9.916662119E0
4.134902190E-1,-1.286142170E-1,-9.916455269E0,-1.911267042E-1,9.919130815E0
4.159161050E-1,-1.070788130E-1,-9.916455269E0,-1.911267042E-1,9.918874956E0
4.183419900E-1,-9.990034252E-2,-9.902098656E0,-1.911267042E-1,9.904446844E0
4.207678760E-1,-9.032905847E-2,-9.921240807E0,-1.791625917E-1,9.923269507E0
4.231937610E-1,-6.400800496E-2,-9.909276962E0,-1.839482337E-1,9.911190841E0
4.256196460E-1,-7.836493850E-2,-9.940383911E0,-1.791625917E-1,9.942307207E0
4.280455320E-1,-1.094716340E-1,-9.899705887E0,-1.767697781E-1,9.901889125E0
4.304714170E-1,-9.990034252E-2,-9.923633575E0,-1.839482337E-1,9.925841041E0
4.328973030E-1,-8.793623000E-2,-9.906884193E0,-1.887338907E-1,9.909071989E0
4.353231880E-1,-9.750752151E-2,-9.897313118E0,-1.887338907E-1,9.899592676E0
4.377490740E-1,-9.511470050E-2,-9.906884193E0,-1.863410622E-1,9.909093007E0
4.401749590E-1,-9.272187948E-2,-9.914062500E0,-2.126621157E-1,9.916776582E0
4.426008440E-1,-1.214357466E-1,-9.904491425E0,-1.935195327E-1,9.907126063E0
4.450267300E-1,-9.511470050E-2,-9.918848038E0,-1.863410622E-1,9.921054188E0
4.474526150E-1,-9.750752151E-2,-9.923633575E0,-2.006980032E-1,9.926141785E0
4.498785010E-1,-7.836493850E-2,-9.937990189E0,-2.030908167E-1,9.940374034E0
4.523043860E-1,-7.597211748E-2,-9.914062500E0,-1.887338907E-1,9.916149832E0
4.547302710E-1,-1.070788130E-1,-9.899705887E0,-1.983051747E-1,9.902270823E0
4.571561570E-1,-1.094716340E-1,-9.890133858E0,-1.935195327E-1,9.892632692E0
4.595820420E-1,-1.142572835E-1,-9.885348320E0,-1.911267042E-1,9.887855963E0
4.620079280E-1,-9.750752151E-2,-9.930811882E0,-1.935195327E-1,9.933175835E0
4.644338130E-1,-9.272187948E-2,-9.899705887E0,-2.198405862E-1,9.902580667E0
4.668596990E-1,-8.793623000E-2,-9.935597420E0,-1.983051747E-1,9.937965275E0
4.692855840E-1,-1.046859920E-1,-9.904491425E0,-1.935195327E-1,9.906934912E0
4.717114690E-1,-1.238285750E-1,-9.921240807E0,-2.030908167E-1,9.924091824E0
4.741373550E-1,-1.070788130E-1,-9.904491425E0,-1.839482337E-1,9.906778144E0
4.765632400E-1,-1.094716340E-1,-9.899705887E0,-1.983051747E-1,9.902296987E0
4.789891260E-1,-1.262213886E-1,-9.902098656E0,-1.911267042E-1,9.904747298E0
4.814150110E-1,-1.046859920E-1,-9.909276962E0,-1.983051747E-1,9.911813861E0
4.838408960E-1,-1.094716340E-1,-9.914062500E0,-1.767697781E-1,9.916242577E0
4.862667820E-1,-9.272187948E-2,-9.921240807E0,-1.791625917E-1,9.923291577E0
4.886926670E-1,-9.750752151E-2,-9.906884193E0,-1.983051747E-1,9.909348469E0
4.911185530E-1,-1.166501045E-1,-9.875777245E0,-1.695913076E-1,9.877922081E0
4.935444380E-1,-1.022931710E-1,-9.921240807E0,-2.078764737E-1,9.923945569E0
4.959703240E-1,-1.022931710E-1,-9.892526627E0,-1.911267042E-1,9.894901534E0
4.983962090E-1,-1.214357466E-1,-9.911669731E0,-1.911267042E-1,9.914256045E0
5.008220940E-1,-1.070788130E-1,-9.909276962E0,-1.767697781E-1,9.911431952E0
5.032479800E-1,-1.190429255E-1,-9.904491425E0,-2.102692872E-1,9.907438356E0
5.056738650E-1,-9.032905847E-2,-9.926026344E0,-1.791625917E-1,9.928054067E0
5.080997510E-1,-1.022931710E-1,-9.911669731E0,-1.624128371E-1,9.913528064E0
5.105256360E-1,-1.238285750E-1,-9.914062500E0,-1.935195327E-1,9.916724186E0
5.129515210E-1,-1.022931710E-1,-9.911669731E0,-1.983051747E-1,9.914181040E0
5.153774070E-1,-9.750752151E-2,-9.918848038E0,-1.839482337E-1,9.921032762E0
5.178032920E-1,-1.070788130E-1,-9.923633575E0,-1.911267042E-1,9.926051513E0
5.202291780E-1,-1.070788130E-1,-9.897313118E0,-1.959123611E-1,9.899831033E0
5.226550630E-1,-1.286142170E-1,-9.911669731E0,-1.839482337E-1,9.914210782E0
5.250809490E-1,-9.990034252E-2,-9.902098656E0,-1.863410622E-1,9.904355651E0
5.275068340E-1,-9.032905847E-2,-9.918848038E0,-1.983051747E-1,9.921241388E0
5.299327190E-1,-1.142572835E-1,-9.916455269E0,-1.839482337E-1,9.918819324E0
5.323586570E-1,-9.272187948E-2,-9.909276962E0,-1.863410622E-1,9.911462569E0
5.347845420E-1,-1.094716340E-1,-9.921240807E0,-1.911267042E-1,9.923685434E0
5.372104280E-1,-1.190429255E-1,-9.918848038E0,-1.935195327E-1,9.921449865E0
5.396362610E-1,-1.022931710E-1,-9.916455269E0,-1.839482337E-1,9.918688721E0
5.420621990E-1,-9.990034252E-2,-9.911669731E0,-1.935195327E-1,9.914062071E0
5.444880840E-1,-1.166501045E-1,-9.902098656E0,-1.935195327E-1,9.904676413E0
5.469139690E-1,-1.118644550E-1,-9.914062500E0,-2.030908167E-1,9.916773406E0
5.493398550E-1,-1.046859920E-1,-9.904491425E0,-1.983051747E-1,9.907029549E0
5.517657400E-1,-8.075776696E-2,-9.894919395E0,-1.863410622E-1,9.897003317E0
5.541916260E-1,-9.032905847E-2,-9.894919395E0,-1.887338907E-1,9.897131386E0
5.566175110E-1,-1.142572835E-1,-9.887741089E0,-1.767697781E-1,9.889981098E0
5.590433960E-1,-9.990034252E-2,-9.899705887E0,-1.911267042E-1,9.902054642E0
5.614692820E-1,-1.022931710E-1,-9.899705887E0,-1.791625917E-1,9.901855370E0
5.638951670E-1,-1.214357466E-1,-9.897313118E0,-2.006980032E-1,9.900092590E0
5.663210530E-1,-1.022931710E-1,-9.899705887E0,-1.959123611E-1,9.902172600E0
5.687469380E-1,-9.511470050E-2,-9.918848038E0,-2.006980032E-1,9.921334229E0
5.711728240E-1,-7.597211748E-2,-9.878170013E0,-1.839482337E-1,9.880174671E0
5.735987090E-1,-1.046859920E-1,-9.897313118E0,-1.791625917E-1,9.899488136E0
5.760245940E-1,-9.511470050E-2,-9.911669731E0,-1.983051747E-1,9.914109572E0
5.784504800E-1,-9.511470050E-2,-9.921240807E0,-1.911267042E-1,9.923537442E0
5.808763650E-1,-1.070788130E-1,-9.926026344E0,-1.815554202E-1,9.928264059E0
5.833022510E-1,-1.046859920E-1,-9.926026344E0,-1.839482337E-1,9.928282585E0
5.857281360E-1,-1.094716340E-1,-9.916455269E0,-2.030908167E-1,9.919138824E0
5.881540210E-1,-8.554340899E-2,-9.904491425E0,-1.983051747E-1,9.906845764E0
5.905799070E-1,-1.094716340E-1,-9.909276962E0,-1.959123611E-1,9.911817977E0
5.930057920E-1,-9.272187948E-2,-9.894919395E0,-1.839482337E-1,9.897063410E0
5.954316780E-1,-9.272187948E-2,-9.897313118E0,-1.887338907E-1,9.899546696E0
5.978575630E-1,-1.046859920E-1,-9.904491425E0,-2.006980032E-1,9.907077734E0
6.002834490E-1,-1.094716340E-1,-9.904491425E0,-1.863410622E-1,9.906849015E0
6.027093340E-1,-1.118644550E-1,-9.899705887E0,-1.863410622E-1,9.902091360E0
6.051352190E-1,-8.793623000E-2,-9.897313118E0,-1.791625917E-1,9.899325178E0
6.075611050E-1,-8.075776696E-2,-9.902098656E0,-1.911267042E-1,9.904272261E0
6.099869900E-1,-8.315058798E-2,-9.914062500E0,-1.815554202E-1,9.916073399E0
6.124128760E-1,-1.022931710E-1,-9.904491425E0,-2.054836452E-1,9.907150842E0
6.148387610E-1,-1.238285750E-1,-9.902098656E0,-2.030908167E-1,9.904955183E0
6.172646460E-1,-9.511470050E-2,-9.885348320E0,-2.006980032E-1,9.887842935E0
6.196905320E-1,-1.022931710E-1,-9.906884193E0,-1.887338907E-1,9.909209797E0
6.221164170E-1,-1.166501045E-1,-9.878170013E0,-1.959123611E-1,9.880801168E0
6.245423030E-1,-1.070788130E-1,-9.916455269E0,-1.959123611E-1,9.918968325E0
6.269681880E-1,-1.333998591E-1,-9.906884193E0,-1.959123611E-1,9.909719047E0
6.293940740E-1,-9.990034252E-2,-9.945169449E0,-1.887338907E-1,9.947461783E0
6.318199590E-1,-9.750752151E-2,-9.918848038E0,-1.887338907E-1,9.921122648E0
6.342458440E-1,-9.990034252E-2,-9.909276962E0,-1.887338907E-1,9.911577598E0
6.366717300E-1,-1.070788130E-1,-9.904491425E0,-2.030908167E-1,9.907152070E0
6.390976150E-1,-1.166501045E-1,-9.916455269E0,-1.839482337E-1,9.918847176E0
6.415235010E-1,-9.032905847E-2,-9.933204651E0,-1.911267042E-1,9.935453859E0
6.439493860E-1,-1.238285750E-1,-9.921240807E0,-1.959123611E-1,9.923947517E0
6.463752710E-1,-1.070788130E-1,-9.902098656E0,-1.983051747E-1,9.904662973E0
6.488011570E-1,-1.022931710E-1,-9.902098656E0,-2.078764737E-1,9.904808646E0
6.512270420E-1,-8.315058798E-2,-9.918848038E0,-1.959123611E-1,9.921131088E0
6.536529280E-1,-1.118644550E-1,-9.909276962E0,-1.767697781E-1,9.911484809E0
6.560788130E-1,-7.118647546E-2,-9.914062500E0,-1.767697781E-1,9.915893824E0
6.585046990E-1,-9.990034252E-2,-9.897313118E0,-2.150549293E-1,9.900153315E0
6.609305840E-1,-8.075776696E-2,-9.923633575E0,-1.911267042E-1,9.925802465E0
6.633564690E-1,-1.094716340E-1,-9.909276962E0,-1.983051747E-1,9.911865561E0
6.657823550E-1,-9.272187948E-2,-9.906884193E0,-1.887338907E-1,9.909115614E0
6.682082400E-1,-9.272187948E-2,-9.916455269E0,-1.791625917E-1,9.918507029E0
6.706341260E-1,-8.554340899E-2,-9.904491425E0,-1.839482337E-1,9.906568781E0
6.730600110E-1,-8.075776696E-2,-9.899705887E0,-1.767697781E-1,9.901613304E0
6.754858960E-1,-9.511470050E-2,-9.906884193E0,-1.863410622E-1,9.909093007E0
6.779117820E-1,-1.118644550E-1,-9.906884193E0,-1.935195327E-1,9.909405526E0
6.803376670E-1,-1.022931710E-1,-9.926026344E0,-1.791625917E-1,9.928170129E0
6.827635530E-1,-8.315058798E-2,-9.916455269E0,-1.791625917E-1,9.918422171E0
6.851894380E-1,-8.793623000E-2,-9.916455269E0,-1.767697781E-1,9.918420511E0
6.876153240E-1,-7.118647546E-2,-9.914062500E0,-1.911267042E-1,9.916160153E0
6.900412090E-1,-1.094716340E-1,-9.918848038E0,-1.983051747E-1,9.921434139E0
6.924670940E-1,-1.094716340E-1,-9.914062500E0,-1.935195327E-1,9.916555304E0
6.948929800E-1,-1.094716340E-1,-9.909276962E0,-1.935195327E-1,9.911770970E0
6.973188650E-1,-9.272187948E-2,-9.909276962E0,-1.935195327E-1,9.911600127E0
6.997447510E-1,-1.238285750E-1,-9.897313118E0,-2.054836452E-1,9.900220402E0
7.021706360E-1,-9.750752151E-2,-9.892526627E0,-2.030908167E-1,9.895091544E0
7.045965210E-1,-1.262213886E-1,-9.906884193E0,-1.791625917E-1,9.909308023E0
7.070224070E-1,-1.166501045E-1,-9.926026344E0,-1.983051747E-1,9.928692320E0
7.094482920E-1,-1.238285750E-1,-9.935597420E0,-1.743769497E-1,9.937899020E0
7.118741780E-1,-1.070788130E-1,-9.918848038E0,-1.839482337E-1,9.921131449E0
7.143000630E-1,-1.046859920E-1,-9.928419113E0,-1.911267042E-1,9.930810373E0
7.167259490E-1,-1.118644550E-1,-9.935597420E0,-1.815554202E-1,9.937885696E0
7.191518340E-1,-9.750752151E-2,-9.897313118E0,-1.935195327E-1,9.899685070E0
7.215777190E-1,-7.357929647E-2,-9.921240807E0,-1.863410622E-1,9.923263377E0
7.240036050E-1,-9.511470050E-2,-9.899705887E0,-1.839482337E-1,9.901871561E0
7.264294900E-1,-9.990034252E-2,-9.914062500E0,-1.887338907E-1,9.916362025E0
7.288553760E-1,-1.118644550E-1,-9.923633575E0,-1.791625917E-1,9.925881131E0
7.312812610E-1,-1.022931710E-1,-9.904491425E0,-1.863410622E-1,9.906772293E0
7.337071460E-1,-1.070788130E-1,-9.916455269E0,-1.887338907E-1,9.918829137E0
7.361330320E-1,-1.262213886E-1,-9.897313118E0,-1.839482337E-1,9.899827056E0
7.385589170E-1,-1.022931710E-1,-9.923633575E0,-1.911267042E-1,9.926001040E0
7.409848030E-1,-9.272187948E-2,-9.909276962E0,-1.983051747E-1,9.911694719E0
7.434106880E-1,-9.750752151E-2,-9.911669731E0,-2.150549293E-1,9.914481993E0
7.458365740E-1,-9.272187948E-2,-9.926026344E0,-1.695913076E-1,9.927908015E0
7.482624590E-1,-8.793623000E-2,-9.933204651E0,-1.911267042E-1,9.935432393E0
7.506883440E-1,-7.836493850E-2,-9.926026344E0,-2.006980032E-1,9.928364404E0
7.531142300E-1,-1.094716340E-1,-9.892526627E0,-2.078764737E-1,9.895316050E0
7.555401150E-1,-9.750752151E-2,-9.911669731E0,-1.911267042E-1,9.913991829E0
7.579660010E-1,-1.118644550E-1,-9.904491425E0,-1.935195327E-1,9.907013367E0
7.603918860E-1,-8.793623000E-2,-9.890133858E0,-1.911267042E-1,9.892371299E0
7.628177710E-1,-1.166501045E-1,-9.899705887E0,-2.054836452E-1,9.902525305E0
7.652436570E-1,-9.511470050E-2,-9.899705887E0,-2.006980032E-1,9.902196885E0
7.676695420E-1,-9.511470050E-2,-9.916455269E0,-1.863410622E-1,9.918661951E0
7.700954280E-1,-9.272187948E-2,-9.916455269E0,-1.911267042E-1,9.918730355E0
7.725213130E-1,-1.046859920E-1,-9.921240807E0,-1.815554202E-1,9.923454070E0
7.749471990E-1,-8.075776696E-2,-9.890133858E0,-1.959123611E-1,9.892403712E0
7.773730840E-1,-9.272187948E-2,-9.892526627E0,-1.839482337E-1,9.894671160E0
7.797989690E-1,-1.022931710E-1,-9.902098656E0,-1.815554202E-1,9.904291194E0
7.822248550E-1,-1.190429255E-1,-9.882955551E0,-1.767697781E-1,9.885253118E0
7.846507400E-1,-1.142572835E-1,-9.904491425E0,-1.887338907E-1,9.906948349E0
7.870766260E-1,-1.046859920E-1,-9.904491425E0,-1.719841212E-1,9.906537643E0
7.895025110E-1,-8.315058798E-2,-9.914062500E0,-2.054836452E-1,9.916540365E0
7.919283960E-1,-1.118644550E-1,-9.914062500E0,-2.078764737E-1,9.916872568E0
7.943542820E-1,-1.022931710E-1,-9.909276962E0,-1.719841212E-1,9.911297208E0
7.967801670E-1,-9.750752151E-2,-9.892526627E0,-1.648056656E-1,9.894379803E0
7.992060530E-1,-9.750752151E-2,-9.914062500E0,-1.863410622E-1,9.916292955E0
8.016319380E-1,-1.118644550E-1,-9.892526627E0,-1.959123611E-1,9.895098704E0
8.040578240E-1,-1.214357466E-1,-9.909276962E0,-1.911267042E-1,9.911863900E0
8.064837090E-1,-9.990034252E-2,-9.899705887E0,-1.935195327E-1,9.902101117E0
8.089095940E-1,-9.990034252E-2,-9.933204651E0,-2.030908167E-1,9.935782838E0
8.113354800E-1,-9.750752151E-2,-9.904491425E0,-1.863410622E-1,9.906724034E0
8.137613650E-1,-1.142572835E-1,-9.897313118E0,-2.030908167E-1,9.900055937E0
8.161872510E-1,-1.190429255E-1,-9.916455269E0,-1.959123611E-1,9.919104696E0
8.186131360E-1,-1.381855011E-1,-9.892526627E0,-2.054836452E-1,9.895625388E0
8.210390210E-1,-1.310070455E-1,-9.906884193E0,-1.935195327E-1,9.909640108E0
8.234649070E-1,-1.118644550E-1,-9.914062500E0,-1.719841212E-1,9.916185126E0
8.258907920E-1,-1.238285750E-1,-9.902098656E0,-1.887338907E-1,9.904671210E0
8.283166780E-1,-1.094716340E-1,-9.902098656E0,-1.911267042E-1,9.904548008E0
8.307425630E-1,-1.094716340E-1,-9.902098656E0,-1.863410622E-1,9.904456816E0
8.331684490E-1,-1.142572835E-1,-9.890133858E0,-1.695913076E-1,9.892247655E0
8.355943340E-1,-9.032905847E-2,-9.894919395E0,-1.911267042E-1,9.897177305E0
8.380202710E-1,-8.554340899E-2,-9.906884193E0,-1.959123611E-1,9.909190368E0
8.404461570E-1,-1.046859920E-1,-9.911669731E0,-1.815554202E-1,9.913885131E0
8.428719900E-1,-9.750752151E-2,-9.904491425E0,-1.695913076E-1,9.906423134E0
8.452979280E-1,-8.793623000E-2,-9.887741089E0,-2.054836452E-1,9.890266940E0
8.477238130E-1,-7.836493850E-2,-9.897313118E0,-1.839482337E-1,9.899332552E0
8.501496990E-1,-1.022931710E-1,-9.926026344E0,-1.815554202E-1,9.928213598E0
8.525755320E-1,-8.554340899E-2,-9.928419113E0,-2.030908167E-1,9.930864496E0
8.550014690E-1,-9.750752151E-2,-9.916455269E0,-1.935195327E-1,9.918822643E0
8.574273030E-1,-9.511470050E-2,-9.890133858E0,-1.959123611E-1,9.892531333E0
8.598531880E-1,-9.990034252E-2,-9.914062500E0,-1.839482337E-1,9.916272096E0
8.622791260E-1,-9.272187948E-2,-9.928419113E0,-1.791625917E-1,9.930468401E0
8.647050110E-1,-8.554340899E-2,-9.921240807E0,-1.911267042E-1,9.923450319E0
8.671308960E-1,-8.315058798E-2,-9.904491425E0,-1.863410622E-1,9.906593127E0
8.695567820E-1,-1.022931710E-1,-9.897313118E0,-1.863410622E-1,9.899595640E0
8.719826670E-1,-1.022931710E-1,-9.909276962E0,-1.839482337E-1,9.911512032E0
8.744085530E-1,-9.272187948E-2,-9.897313118E0,-1.791625917E-1,9.899368845E0
8.768344380E-1,-9.511470050E-2,-9.892526627E0,-1.887338907E-1,9.894783997E0
8.792603240E-1,-9.511470050E-2,-9.897313118E0,-1.911267042E-1,9.899615305E0
8.816862090E-1,-1.070788130E-1,-9.909276962E0,-1.600200087E-1,9.911147370E0
8.841120940E-1,-1.190429255E-1,-9.911669731E0,-1.887338907E-1,9.914181184E0
8.865379800E-1,-1.046859920E-1,-9.897313118E0,-1.935195327E-1,9.899758377E0
8.889638650E-1,-9.272187948E-2,-9.904491425E0,-1.719841212E-1,9.906418438E0
8.913897510E-1,-1.118644550E-1,-9.911669731E0,-1.983051747E-1,9.914284415E0
8.938156360E-1,-9.511470050E-2,-9.916455269E0,-1.959123611E-1,9.918846382E0
8.962415210E-1,-1.190429255E-1,-9.904491425E0,-1.911267042E-1,9.907050571E0
8.986674070E-1,-1.166501045E-1,-9.914062500E0,-1.815554202E-1,9.916410887E0
9.010932920E-1,-9.511470050E-2,-9.897313118E0,-1.863410622E-1,9.899524067E0
9.035191780E-1,-1.022931710E-1,-9.909276962E0,-1.863410622E-1,9.911556729E0
9.059450630E-1,-1.142572835E-1,-9.911669731E0,-1.815554202E-1,9.913990819E0
9.083709490E-1,-1.166501045E-1,-9.916455269E0,-1.887338907E-1,9.918937082E0
9.107968340E-1,-9.272187948E-2,-9.897313118E0,-1.719841212E-1,9.899241529E0
9.132227190E-1,-9.272187948E-2,-9.899705887E0,-1.767697781E-1,9.901718111E0
9.156486050E-1,-1.166501045E-1,-9.906884193E0,-1.767697781E-1,9.909147755E0
9.180744900E-1,-1.190429255E-1,-9.911669731E0,-2.102692872E-1,9.914614529E0
9.205003760E-1,-8.075776696E-2,-9.897313118E0,-1.983051747E-1,9.899628969E0
9.229262610E-1,-9.032905847E-2,-9.918848038E0,-1.959123611E-1,9.921193849E0
9.253521460E-1,-9.272187948E-2,-9.890133858E0,-1.863410622E-1,9.892323694E0
9.277780320E-1,-9.272187948E-2,-9.914062500E0,-1.911267042E-1,9.916338136E0
9.302039170E-1,-9.750752151E-2,-9.897313118E0,-1.552343667E-1,9.899010677E0
9.326298030E-1,-1.046859920E-1,-9.930811882E0,-1.911267042E-1,9.933202566E0
9.350556880E-1,-7.836493850E-2,-9.885348320E0,-2.006980032E-1,9.887695999E0
9.374815740E-1,-1.118644550E-1,-9.892526627E0,-2.102692872E-1,9.895393367E0
9.399074590E-1,-1.142572835E-1,-9.887741089E0,-1.839482337E-1,9.890112007E0
9.423333440E-1,-1.357926875E-1,-9.897313118E0,-1.935195327E-1,9.900136182E0
9.447592300E-1,-1.046859920E-1,-9.902098656E0,-1.911267042E-1,9.904496270E0
9.471851150E-1,-8.793623000E-2,-9.911669731E0,-2.030908167E-1,9.914140181E0
9.496110010E-1,-1.022931710E-1,-9.894919395E0,-1.983051747E-1,9.897434954E0
9.520368860E-1,-1.046859920E-1,-9.890133858E0,-1.767697781E-1,9.892267406E0
9.544627710E-1,-8.554340899E-2,-9.899705887E0,-1.911267042E-1,9.901920205E0
9.568886570E-1,-9.272187948E-2,-9.894919395E0,-1.959123611E-1,9.897293006E0
9.593145420E-1,-9.032905847E-2,-9.911669731E0,-1.887338907E-1,9.913877984E0
9.617404280E-1,-9.272187948E-2,-9.890133858E0,-1.863410622E-1,9.892323694E0
9.641663130E-1,-9.511470050E-2,-9.914062500E0,-1.743769497E-1,9.916052107E0
9.665921990E-1,-9.272187948E-2,-9.897313118E0,-1.743769497E-1,9.899283389E0
9.690180840E-1,-1.142572835E-1,-9.904491425E0,-1.863410622E-1,9.906903053E0
9.714439690E-1,-1.070788130E-1,-9.914062500E0,-1.887338907E-1,9.916436941E0
9.738698550E-1,-9.990034252E-2,-9.921240807E0,-1.983051747E-1,9.923725317E0
9.762957400E-1,-1.238285750E-1,-9.933204651E0,-1.887338907E-1,9.935769152E0
9.787216260E-1,-7.597211748E-2,-9.916455269E0,-1.863410622E-1,9.918496855E0
9.811475110E-1,-1.094716340E-1,-9.928419113E0,-1.791625917E-1,9.930638920E0
9.835733960E-1,-9.032905847E-2,-9.909276962E0,-1.839482337E-1,9.911395775E0
9.859992820E-1,-9.750752151E-2,-9.916455269E0,-1.983051747E-1,9.918917167E0
9.884251670E-1,-1.046859920E-1,-9.909276962E0,-1.863410622E-1,9.911581714E0
9.908510530E-1,-1.238285750E-1,-9.916455269E0,-1.935195327E-1,9.919116313E0
9.932769380E-1,-1.046859920E-1,-9.904491425E0,-1.767697781E-1,9.906621881E0
9.957028240E-1,-7.836493850E-2,-9.894919395E0,-1.839482337E-1,9.896939318E0
9.981287090E-1,-9.272187948E-2,-9.911669731E0,-1.983051747E-1,9.914086904E0
1.000554594E0,-1.166501045E-1,-9.906884193E0,-1.767697781E-1,9.909147755E0
1.002980480E0,-1.118644550E-1,-9.899705887E0,-1.887338907E-1,9.902136678E0
1.005406365E0,-8.315058798E-2,-9.892526627E0,-2.078764737E-1,9.895059864E0
1.007832251E0,-1.142572835E-1,-9.914062500E0,-1.887338907E-1,9.916517053E0
1.010258136E0,-9.511470050E-2,-9.892526627E0,-1.624128371E-1,9.894316944E0
1.012684021E0,-1.166501045E-1,-9.911669731E0,-1.911267042E-1,9.914198582E0
1.015109907E0,-1.142572835E-1,-9.923633575E0,-2.078764737E-1,9.926468188E0
1.017535792E0,-9.272187948E-2,-9.897313118E0,-2.030908167E-1,9.899830816E0
1.019961678E0,-1.022931710E-1,-9.906884193E0,-1.767697781E-1,9.908989145E0
1.022387563E0,-1.022931710E-1,-9.894919395E0,-1.743769497E-1,9.896984443E0
1.024813449E0,-1.070788130E-1,-9.923633575E0,-1.887338907E-1,9.926005727E0
1.027239334E0,-1.070788130E-1,-9.914062500E0,-1.719841212E-1,9.916132294E0
1.029665219E0,-1.070788130E-1,-9.921240807E0,-1.959123611E-1,9.923752650E0
1.032091105E0,-9.990034252E-2,-9.906884193E0,-2.078764737E-1,9.909568463E0
1.034516990E0,-1.046859920E-1,-9.921240807E0,-1.983051747E-1,9.923774647E0
1.036942876E0,-9.032905847E-2,-9.914062500E0,-1.695913076E-1,9.915924355E0
1.039368761E0,-8.793623000E-2,-9.933204651E0,-1.935195327E-1,9.935478711E0
1.041794646E0,-1.094716340E-1,-9.897313118E0,-2.030908167E-1,9.900001862E0
1.044220532E0,-1.046859920E-1,-9.892526627E0,-1.911267042E-1,9.894926560E0
1.046646417E0,-9.511470050E-2,-9.914062500E0,-1.767697781E-1,9.916094474E0
1.049072303E0,-1.166501045E-1,-9.885348320E0,-2.054836452E-1,9.888171832E0
1.051498188E0,-9.032905847E-2,-9.899705887E0,-2.030908167E-1,9.902200860E0
1.053924074E0,-9.511470050E-2,-9.904491425E0,-1.935195327E-1,9.906838396E0
1.056349959E0,-1.166501045E-1,-9.904491425E0,-2.030908167E-1,9.907260141E0
1.058775844E0,-9.272187948E-2,-9.904491425E0,-1.863410622E-1,9.906678087E0
1.061201730E0,-9.750752151E-2,-9.902098656E0,-1.983051747E-1,9.904564122E0
1.063627615E0,-1.022931710E-1,-9.899705887E0,-1.983051747E-1,9.902220230E0
1.066053501E0,-8.554340899E-2,-9.897313118E0,-2.030908167E-1,9.899766185E0
1.068479386E0,-9.990034252E-2,-9.914062500E0,-1.935195327E-1,9.916454263E0
1.070905271E0,-1.166501045E-1,-9.909276962E0,-2.006980032E-1,9.911995604E0
1.073331157E0,-1.046859920E-1,-9.899705887E0,-1.983051747E-1,9.902245238E0
1.075757042E0,-9.990034252E-2,-9.911669731E0,-1.815554202E-1,9.913835752E0
1.078182928E0,-1.142572835E-1,-9.897313118E0,-1.983051747E-1,9.899958920E0
1.080608813E0,-1.022931710E-1,-9.894919395E0,-2.030908167E-1,9.897531996E0
1.083034699E0,-8.554340899E-2,-9.906884193E0,-1.935195327E-1,9.909143349E0
1.085460584E0,-9.990034252E-2,-9.918848038E0,-1.959123611E-1,9.921285609E0
1.087886469E0,-9.990034252E-2,-9.904491425E0,-1.791625917E-1,9.906615451E0
1.090312355E0,-9.750752151E-2,-9.902098656E0,-1.935195327E-1,9.904469461E0
1.092738240E0,-1.046859920E-1,-9.911669731E0,-1.983051747E-1,9.914206018E0
1.095164126E0,-1.022931710E-1,-9.928419113E0,-1.911267042E-1,9.930785437E0
1.097590011E0,-9.750752151E-2,-9.894919395E0,-1.791625917E-1,9.897021612E0
1.100015896E0,-9.272187948E-2,-9.904491425E0,-1.959123611E-1,9.906862742E0
1.102441782E0,-8.315058798E-2,-9.904491425E0,-1.743769497E-1,9.906375307E0
1.104867667E0,-9.511470050E-2,-9.914062500E0,-1.911267042E-1,9.916360798E0
1.107293553E0,-1.142572835E-1,-9.914062500E0,-1.911267042E-1,9.916562882E0
1.109719438E0,-1.094716340E-1,-9.916455269E0,-1.911267042E-1,9.918901076E0
1.112145324E0,-9.272187948E-2,-9.935597420E0,-1.887338907E-1,9.937822393E0
1.114571209E0,-1.070788130E-1,-9.909276962E0,-2.006980032E-1,9.911887584E0
1.116997094E0,-1.094716340E-1,-9.875777245E0,-1.887338907E-1,9.878187116E0
1.119422980E0,-1.166501045E-1,-9.918848038E0,-1.863410622E-1,9.921284021E0
1.121848865E0,-1.094716340E-1,-9.911669731E0,-2.078764737E-1,9.914453768E0
1.124274751E0,-1.070788130E-1,-9.914062500E0,-1.719841212E-1,9.916132294E0
1.126700636E0,-9.511470050E-2,-9.921240807E0,-1.791625917E-1,9.923314224E0
1.129126521E0,-1.094716340E-1,-9.902098656E0,-1.791625917E-1,9.904324362E0
1.131552407E0,-1.166501045E-1,-9.914062500E0,-1.839482337E-1,9.916454984E0
1.133978292E0,-8.554340899E-2,-9.882955551E0,-1.935195327E-1,9.885220175E0
1.136404178E0,-8.793623000E-2,-9.897313118E0,-2.078764737E-1,9.899886482E0
1.138830063E0,-1.070788130E-1,-9.904491425E0,-1.983051747E-1,9.907055122E0
1.141255949E0,-1.094716340E-1,-9.904491425E0,-1.935195327E-1,9.906986637E0
1.143681834E0,-1.046859920E-1,-9.899705887E0,-1.839482337E-1,9.901968125E0
1.146107719E0,-1.070788130E-1,-9.923633575E0,-1.887338907E-1,9.926005727E0
1.148533605E0,-8.793623000E-2,-9.918848038E0,-2.078764737E-1,9.921415817E0
1.150959490E0,-9.990034252E-2,-9.899705887E0,-1.791625917E-1,9.901830940E0
1.153385376E0,-1.022931710E-1,-9.921240807E0,-1.911267042E-1,9.923608842E0
1.155811261E0,-1.022931710E-1,-9.909276962E0,-1.767697781E-1,9.911381405E0
1.158237146E0,-9.750752151E-2,-9.899705887E0,-1.767697781E-1,9.901764081E0
1.160663032E0,-1.190429255E-1,-9.890133858E0,-1.743769497E-1,9.892387288E0
1.163088917E0,-9.750752151E-2,-9.899705887E0,-1.791625917E-1,9.901807087E0
1.165514803E0,-1.118644550E-1,-9.928419113E0,-1.863410622E-1,9.930797689E0
1.167940688E0,-8.793623000E-2,-9.918848038E0,-1.839482337E-1,9.920943308E0
1.170366574E0,-1.094716340E-1,-9.904491425E0,-1.839482337E-1,9.906804297E0
1.172792459E0,-9.750752151E-2,-9.914062500E0,-1.863410622E-1,9.916292955E0
1.175218344E0,-1.022931710E-1,-9.911669731E0,-2.006980032E-1,9.914229190E0
1.177644230E0,-9.272187948E-2,-9.921240807E0,-1.959123611E-1,9.923608121E0
1.180070115E0,-1.166501045E-1,-9.916455269E0,-1.791625917E-1,9.918759579E0
1.182496001E0,-9.511470050E-2,-9.906884193E0,-1.671984792E-1,9.908751514E0
1.184921886E0,-1.022931710E-1,-9.909276962E0,-1.959123611E-1,9.911741293E0
1.187347771E0,-1.022931710E-1,-9.906884193E0,-2.030908167E-1,9.909493640E0
1.189773657E0,-1.357926875E-1,-9.906884193E0,-2.126621157E-1,9.910096834E0
1.192199542E0,-1.190429255E-1,-9.911669731E0,-1.911267042E-1,9.914227025E0
1.194625428E0,-8.315058798E-2,-9.914062500E0,-2.030908167E-1,9.916491071E0
1.197051313E0,-7.597211748E-2,-9.928419113E0,-1.767697781E-1,9.930283249E0
1.199477199E0,-8.793623000E-2,-9.935597420E0,-1.863410622E-1,9.937733739E0
1.201903084E0,-1.094716340E-1,-9.933204651E0,-2.150549293E-1,9.936135431E0
1.204328969E0,-1.094716340E-1,-9.887741089E0,-1.959123611E-1,9.890287636E0
1.206754855E0,-9.032905847E-2,-9.906884193E0,-1.935195327E-1,9.909185818E0
1.209180740E0,-1.046859920E-1,-9.926026344E0,-1.935195327E-1,9.928464532E0
1.211606626E0,-1.070788130E-1,-9.902098656E0,-1.863410622E-1,9.904430658E0
1.214032511E0,-1.046859920E-1,-9.911669731E0,-1.815554202E-1,9.913885131E0
1.216458396E0,-1.022931710E-1,-9.918848038E0,-1.719841212E-1,9.920866334E0
1.218884282E0,-9.990034252E-2,-9.894919395E0,-1.887338907E-1,9.897223368E0
1.221310167E0,-1.238285750E-1,-9.909276962E0,-1.839482337E-1,9.911757684E0
1.223736053E0,-1.046859920E-1,-9.906884193E0,-1.839482337E-1,9.909144793E0
1.226161990E0,-9.990034252E-2,-9.904491425E0,-1.791625917E-1,9.906615451E0
1.228587824E0,-1.166501045E-1,-9.902098656E0,-1.863410622E-1,9.904538759E0
1.231013709E0,-9.272187948E-2,-9.909276962E0,-1.911267042E-1,9.911553697E0
1.233439594E0,-5.922235921E-2,-9.902098656E0,-2.006980032E-1,9.904309404E0
1.235865480E0,-1.070788130E-1,-9.918848038E0,-1.815554202E-1,9.921087372E0
1.238291417E0,-9.750752151E-2,-9.906884193E0,-1.695913076E-1,9.908815436E0
1.240717251E0,-8.793623000E-2,-9.911669731E0,-1.863410622E-1,9.913811206E0
1.243143136E0,-9.272187948E-2,-9.906884193E0,-1.839482337E-1,9.909025619E0
1.245569021E0,-9.272187948E-2,-9.914062500E0,-2.054836452E-1,9.916625239E0
1.247994907E0,-9.511470050E-2,-9.887741089E0,-1.887338907E-1,9.889999551E0
1.250420844E0,-1.046859920E-1,-9.911669731E0,-1.863410622E-1,9.913973926E0
1.252846678E0,-1.166501045E-1,-9.906884193E0,-1.911267042E-1,9.909414266E0
1.255272615E0,-9.990034252E-2,-9.899705887E0,-1.863410622E-1,9.901963427E0
1.257698501E0,-9.750752151E-2,-9.899705887E0,-1.935195327E-1,9.902077266E0
1.260124334E0,-9.032905847E-2,-9.918848038E0,-1.887338907E-1,9.921054693E0
1.262550271E0,-1.070788130E-1,-9.928419113E0,-1.767697781E-1,9.930569949E0
1.264976157E0,-1.094716340E-1,-9.909276962E0,-1.576271951E-1,9.911135166E0
1.267401990E0,-9.032905847E-2,-9.914062500E0,-1.911267042E-1,9.916316050E0
1.269827876E0,-9.272187948E-2,-9.909276962E0,-1.959123611E-1,9.911647134E0
1.272253813E0,-1.214357466E-1,-9.897313118E0,-1.911267042E-1,9.899903182E0
1.274679699E0,-8.315058798E-2,-9.887741089E0,-1.983051747E-1,9.890079009E0
1.277105584E0,-9.990034252E-2,-9.928419113E0,-1.791625917E-1,9.930538022E0
1.279531469E0,-1.022931710E-1,-9.904491425E0,-1.887338907E-1,9.906817590E0
1.281957355E0,-9.511470050E-2,-9.909276962E0,-1.839482337E-1,9.911440545E0
1.284383240E0,-1.070788130E-1,-9.921240807E0,-1.743769497E-1,9.923350862E0
1.286809074E0,-9.511470050E-2,-9.914062500E0,-1.911267042E-1,9.916360798E0
1.289235011E0,-9.032905847E-2,-9.897313118E0,-1.791625917E-1,9.899346722E0
1.291660896E0,-9.511470050E-2,-9.914062500E0,-1.767697781E-1,9.916094474E0
1.294086782E0,-1.070788130E-1,-9.902098656E0,-1.935195327E-1,9.904568313E0
1.296512667E0,-8.554340899E-2,-9.899705887E0,-1.935195327E-1,9.901966680E0
1.298938553E0,-9.272187948E-2,-9.897313118E0,-1.767697781E-1,9.899325828E0
1.301364438E0,-1.022931710E-1,-9.887741089E0,-1.887338907E-1,9.890071194E0
1.303790324E0,-1.262213886E-1,-9.916455269E0,-1.911267042E-1,9.919100078E0
1.306216209E0,-1.118644550E-1,-9.902098656E0,-1.863410622E-1,9.904483552E0
1.308642094E0,-9.990034252E-2,-9.909276962E0,-1.791625917E-1,9.911399963E0
1.311067980E0,-1.070788130E-1,-9.918848038E0,-1.719841212E-1,9.920916833E0
1.313493865E0,-9.990034252E-2,-9.897313118E0,-1.863410622E-1,9.899571204E0
1.315919751E0,-9.511470050E-2,-9.916455269E0,-1.935195327E-1,9.918799409E0
1.318345636E0,-8.793623000E-2,-9.914062500E0,-1.935195327E-1,9.916340950E0
1.320771521E0,-1.046859920E-1,-9.914062500E0,-1.791625917E-1,9.916233844E0
1.323197407E0,-1.286142170E-1,-9.906884193E0,-1.767697781E-1,9.909295817E0
1.325623292E0,-1.142572835E-1,-9.914062500E0,-1.576271951E-1,9.915973796E0
1.328049178E0,-7.597211748E-2,-9.909276962E0,-1.839482337E-1,9.911275328E0
1.330475063E0,-1.022931710E-1,-9.909276962E0,-1.983051747E-1,9.911788877E0
1.332900949E0,-1.070788130E-1,-9.894919395E0,-1.959123611E-1,9.897437919E0
1.335326834E0,-9.990034252E-2,-9.906884193E0,-1.983051747E-1,9.909372303E0
1.337752719E0,-1.046859920E-1,-9.926026344E0,-1.719841212E-1,9.928068124E0
1.340178605E0,-9.990034252E-2,-9.921240807E0,-1.863410622E-1,9.923493448E0
1.342604490E0,-1.166501045E-1,-9.914062500E0,-1.959123611E-1,9.916684131E0
1.345030376E0,-1.094716340E-1,-9.921240807E0,-1.959123611E-1,9.923778758E0
1.347456261E0,-1.070788130E-1,-9.909276962E0,-1.791625917E-1,9.911474917E0
1.349882146E0,-8.793623000E-2,-9.914062500E0,-1.695913076E-1,9.915902846E0
1.352308032E0,-1.022931710E-1,-9.923633575E0,-1.743769497E-1,9.925692649E0
1.354733917E0,-9.032905847E-2,-9.897313118E0,-2.054836452E-1,9.899858071E0
1.357159803E0,-1.118644550E-1,-9.902098656E0,-1.839482337E-1,9.904438823E0
1.359585688E0,-9.750752151E-2,-9.916455269E0,-1.791625917E-1,9.918552921E0
1.362011574E0,-8.075776696E-2,-9.916455269E0,-2.006980032E-1,9.918814778E0
1.364437459E0,-1.094716340E-1,-9.906884193E0,-1.959123611E-1,9.909425822E0
1.366863344E0,-1.022931710E-1,-9.918848038E0,-1.887338907E-1,9.921170837E0
1.369289230E0,-8.315058798E-2,-9.914062500E0,-1.767697781E-1,9.915986932E0
1.371715115E0,-1.046859920E-1,-9.906884193E0,-1.839482337E-1,9.909144793E0
1.374141001E0,-8.315058798E-2,-9.904491425E0,-1.863410622E-1,9.906593127E0
1.376566886E0,-9.750752151E-2,-9.904491425E0,-2.174477577E-1,9.907357954E0
1.378992771E0,-1.070788130E-1,-9.918848038E0,-2.006980032E-1,9.921456141E0
1.381418657E0,-1.142572835E-1,-9.892526627E0,-1.815554202E-1,9.894852205E0
1.383844542E0,-1.142572835E-1,-9.904491425E0,-1.959123611E-1,9.907087703E0
1.386270428E0,-1.070788130E-1,-9.894919395E0,-1.839482337E-1,9.897208327E0
1.388696313E0,-9.032905847E-2,-9.926026344E0,-1.887338907E-1,9.928231404E0
1.391122199E0,-1.022931710E-1,-9.892526627E0,-2.054836452E-1,9.895189259E0
1.393548084E0,-8.793623000E-2,-9.880562782E0,-2.054836452E-1,9.883090468E0
1.395973969E0,-9.511470050E-2,-9.887741089E0,-1.935195327E-1,9.890092035E0
1.398399855E0,-1.118644550E-1,-9.899705887E0,-2.054836452E-1,9.902470087E0
1.400825740E0,-1.094716340E-1,-9.923633575E0,-1.911267042E-1,9.926077614E0
1.403251626E0,-1.046859920E-1,-9.899705887E0,-2.054836452E-1,9.902391597E0
1.405677511E0,-8.554340899E-2,-9.935597420E0,-1.767697781E-1,9.937537991E0
1.408103396E0,-9.272187948E-2,-9.911669731E0,-1.767697781E-1,9.913679527E0
1.410529282E0,-9.750752151E-2,-9.899705887E0,-1.767697781E-1,9.901764081E0
1.412955167E0,-1.022931710E-1,-9.899705887E0,-1.695913076E-1,9.901686813E0
1.415381053E0,-8.554340899E-2,-9.916455269E0,-1.935195327E-1,9.918712244E0
1.417806938E0,-9.032905847E-2,-9.890133858E0,-1.911267042E-1,9.892392859E0
1.420232824E0,-9.272187948E-2,-9.892526627E0,-1.743769497E-1,9.894497851E0
1.422658709E0,-1.166501045E-1,-9.921240807E0,-2.078764737E-1,9.924103940E0
1.425084594E0,-1.286142170E-1,-9.911669731E0,-1.791625917E-1,9.914123144E0
1.427510480E0,-1.022931710E-1,-9.909276962E0,-1.983051747E-1,9.911788877E0
1.429936365E0,-9.990034252E-2,-9.887741089E0,-1.863410622E-1,9.890001360E0
1.432362251E0,-1.190429255E-1,-9.899705887E0,-1.863410622E-1,9.902175057E0
1.434788136E0,-9.511470050E-2,-9.911669731E0,-2.054836452E-1,9.914255756E0
1.437214021E0,-9.272187948E-2,-9.916455269E0,-1.983051747E-1,9.918871276E0
1.439639907E0,-9.511470050E-2,-9.923633575E0,-1.959123611E-1,9.926022960E0
1.442065792E0,-9.511470050E-2,-9.937990189E0,-2.006980032E-1,9.940471593E0
1.444491678E0,-1.022931710E-1,-9.909276962E0,-1.911267042E-1,9.911647856E0
1.446917563E0,-8.075776696E-2,-9.906884193E0,-1.887338907E-1,9.909010885E0
1.449343449E0,-9.511470050E-2,-9.914062500E0,-1.743769497E-1,9.916052107E0
1.451769334E0,-1.166501045E-1,-9.897313118E0,-1.959123611E-1,9.899939184E0
1.454195219E0,-1.094716340E-1,-9.918848038E0,-1.863410622E-1,9.921202217E0
1.456621105E0,-1.214357466E-1,-9.906884193E0,-1.911267042E-1,9.909471756E0
1.459046990E0,-1.214357466E-1,-9.914062500E0,-1.743769497E-1,9.916339507E0
1.461472876E0,-9.272187948E-2,-9.916455269E0,-1.959123611E-1,9.918823726E0
1.463898761E0,-9.511470050E-2,-9.904491425E0,-1.959123611E-1,9.906885426E0
1.466324646E0,-1.022931710E-1,-9.921240807E0,-1.791625917E-1,9.923385625E0
1.468750532E0,-1.214357466E-1,-9.909276962E0,-2.030908167E-1,9.912101817E0
1.471176417E0,-1.094716340E-1,-9.914062500E0,-1.839482337E-1,9.916373140E0
1.473602303E0,-8.793623000E-2,-9.911669731E0,-1.839482337E-1,9.913766519E0
1.476028188E0,-9.990034252E-2,-9.880562782E0,-1.791625917E-1,9.882691951E0
1.478454074E0,-8.315058798E-2,-9.899705887E0,-1.648056656E-1,9.901426744E0
1.480879959E0,-6.161518395E-2,-9.926026344E0,-1.863410622E-1,9.927966479E0
1.483305844E0,-1.022931710E-1,-9.899705887E0,-1.911267042E-1,9.902079072E0
1.485731730E0,-1.166501045E-1,-9.916455269E0,-2.078764737E-1,9.919319784E0
1.488157615E0,-1.094716340E-1,-9.911669731E0,-1.767697781E-1,9.913850334E0
1.490583501E0,-1.118644550E-1,-9.914062500E0,-1.815554202E-1,9.916355746E0
1.493009386E0,-1.046859920E-1,-9.909276962E0,-1.791625917E-1,9.911449354E0
1.495435271E0,-1.022931710E-1,-9.899705887E0,-1.815554202E-1,9.901898955E0
1.497861157E0,-9.750752151E-2,-9.892526627E0,-1.863410622E-1,9.894761936E0
1.500287042E0,-1.142572835E-1,-9.902098656E0,-1.911267042E-1,9.904602058E0
1.502712928E0,-1.022931710E-1,-9.926026344E0,-2.006980032E-1,9.928582103E0
1.505138813E0,-1.094716340E-1,-9.916455269E0,-1.791625917E-1,9.918677753E0
1.507564699E0,-8.075776696E-2,-9.909276962E0,-1.959123611E-1,9.911542432E0
1.509990584E0,-9.032905847E-2,-9.914062500E0,-1.887338907E-1,9.916270220E0
1.512416469E0,-1.310070455E-1,-9.914062500E0,-1.839482337E-1,9.916634260E0
1.514842355E0,-9.750752151E-2,-9.914062500E0,-1.743769497E-1,9.916075347E0
1.517268240E0,-1.070788130E-1,-9.928419113E0,-1.671984792E-1,9.930404186E0
1.519694126E0,-1.142572835E-1,-9.902098656E0,-1.839482337E-1,9.904466137E0
1.522120011E0,-1.094716340E-1,-9.899705887E0,-1.983051747E-1,9.902296987E0
1.524545896E0,-1.166501045E-1,-9.914062500E0,-1.935195327E-1,9.916637147E0
1.526971782E0,-1.118644550E-1,-9.899705887E0,-2.006980032E-1,9.902371938E0
1.529397667E0,-9.272187948E-2,-9.916455269E0,-1.863410622E-1,9.918639294E0
1.531823553E0,-1.070788130E-1,-9.914062500E0,-1.815554202E-1,9.916302915E0
1.534249438E0,-1.022931710E-1,-9.887741089E0,-1.959123611E-1,9.890210786E0
1.536675324E0,-1.046859920E-1,-9.899705887E0,-1.983051747E-1,9.902245238E0
1.539101209E0,-1.262213886E-1,-9.935597420E0,-2.006980032E-1,9.938425812E0
1.541527094E0,-1.166501045E-1,-9.906884193E0,-1.791625917E-1,9.909190729E0
1.543952980E0,-1.070788130E-1,-9.940383911E0,-1.935195327E-1,9.942844059E0
1.546378865E0,-1.046859920E-1,-9.921240807E0,-1.815554202E-1,9.923454070E0
1.548804751E0,-1.286142170E-1,-9.904491425E0,-1.839482337E-1,9.907034317E0
1.551230636E0,-1.142572835E-1,-9.914062500E0,-1.863410622E-1,9.916471801E0
1.553656521E0,-1.070788130E-1,-9.923633575E0,-1.719841212E-1,9.925701373E0
1.556082407E0,-1.190429255E-1,-9.902098656E0,-2.054836452E-1,9.904945862E0
1.558508292E0,-9.990034252E-2,-9.902098656E0,-2.126621157E-1,9.904885817E0
1.560934178E0,-1.190429255E-1,-9.904491425E0,-2.054836452E-1,9.907337943E0
1.563360063E0,-1.070788130E-1,-9.921240807E0,-2.030908167E-1,9.923896961E0
1.565785949E0,-1.070788130E-1,-9.906884193E0,-1.983051747E-1,9.909447272E0
1.568211834E0,-1.046859920E-1,-9.899705887E0,-1.791625917E-1,9.901880379E0
1.570637719E0,-9.990034252E-2,-9.911669731E0,-1.815554202E-1,9.913835752E0
1.573063605E0,-9.990034252E-2,-9.887741089E0,-2.126621157E-1,9.890532296E0
1.575489490E0,-9.990034252E-2,-9.928419113E0,-1.815554202E-1,9.930581480E0
1.577915376E0,-1.022931710E-1,-9.916455269E0,-1.815554202E-1,9.918644633E0
1.580341261E0,-9.750752151E-2,-9.902098656E0,-1.935195327E-1,9.904469461E0
1.582767146E0,-9.272187948E-2,-9.914062500E0,-1.839482337E-1,9.916202376E0
1.585193032E0,-1.142572835E-1,-9.892526627E0,-1.887338907E-1,9.894986522E0
1.587618917E0,-9.272187948E-2,-9.904491425E0,-1.983051747E-1,9.906910349E0
1.590044803E0,-9.990034252E-2,-9.914062500E0,-1.983051747E-1,9.916548809E0
1.592470688E0,-8.075776696E-2,-9.899705887E0,-1.791625917E-1,9.901656311E0
1.594896574E0,-6.879365444E-2,-9.911669731E0,-2.030908167E-1,9.913988870E0
1.597322459E0,-8.315058798E-2,-9.897313118E0,-1.863410622E-1,9.899416345E0
1.599748344E0,-9.750752151E-2,-9.916455269E0,-1.935195327E-1,9.918822643E0
1.602174230E0,-1.070788130E-1,-9.890133858E0,-1.719841212E-1,9.892208658E0
1.604600115E0,-9.272187948E-2,-9.909276962E0,-1.791625917E-1,9.911330208E0
1.607026001E0,-1.070788130E-1,-9.940383911E0,-1.743769497E-1,9.942489904E0
1.609451886E0,-9.990034252E-2,-9.928419113E0,-1.935195327E-1,9.930807418E0
1.611877771E0,-1.070788130E-1,-9.928419113E0,-1.911267042E-1,9.930835885E0
1.614303657E0,-1.142572835E-1,-9.890133858E0,-2.006980032E-1,9.892829835E0
1.616729542E0,-9.990034252E-2,-9.899705887E0,-1.887338907E-1,9.902008746E0
1.619155428E0,-1.094716340E-1,-9.890133858E0,-1.695913076E-1,9.892193537E0
1.621581313E0,-9.990034252E-2,-9.887741089E0,-1.767697781E-1,9.889825654E0
1.624007199E0,-9.750752151E-2,-9.897313118E0,-1.695913076E-1,9.899246228E0
1.626433084E0,-9.990034252E-2,-9.892526627E0,-1.911267042E-1,9.894877086E0
1.628858969E0,-9.990034252E-2,-9.897313118E0,-1.887338907E-1,9.899616534E0
1.631284855E0,-1.357926875E-1,-9.923633575E0,-1.911267042E-1,9.926402793E0
1.633710740E0,-1.118644550E-1,-9.899705887E0,-1.887338907E-1,9.902136678E0
1.636136626E0,-1.046859920E-1,-9.904491425E0,-1.839482337E-1,9.906752570E0
1.638562511E0,-1.022931710E-1,-9.923633575E0,-1.863410622E-1,9.925910045E0
1.640988396E0,-9.750752151E-2,-9.916455269E0,-1.887338907E-1,9.918730428E0
1.643414282E0,-1.070788130E-1,-9.911669731E0,-1.911267042E-1,9.914090586E0
1.645840167E0,-1.142572835E-1,-9.928419113E0,-1.911267042E-1,9.930915881E0
1.648266053E0,-9.032905847E-2,-9.918848038E0,-1.648056656E-1,9.920628339E0
1.650691938E0,-1.070788130E-1,-9.914062500E0,-1.887338907E-1,9.916436941E0
1.653117824E0,-9.272187948E-2,-9.899705887E0,-1.935195327E-1,9.902031297E0
1.655543709E0,-1.262213886E-1,-9.892526627E0,-1.911267042E-1,9.895177831E0
1.657969594E0,-1.022931710E-1,-9.897313118E0,-1.791625917E-1,9.899463121E0
1.660395480E0,-1.262213886E-1,-9.911669731E0,-1.767697781E-1,9.914049438E0
1.662821365E0,-9.511470050E-2,-9.892526627E0,-1.983051747E-1,9.894971188E0
1.665247251E0,-1.070788130E-1,-9.911669731E0,-1.791625917E-1,9.913867155E0
1.667673136E0,-1.046859920E-1,-9.923633575E0,-1.743769497E-1,9.925717597E0
1.670099021E0,-1.118644550E-1,-9.911669731E0,-2.006980032E-1,9.914332565E0
1.672524907E0,-8.554340899E-2,-9.923633575E0,-2.054836452E-1,9.926129384E0
1.674950792E0,-8.554340899E-2,-9.930811882E0,-1.863410622E-1,9.932928335E0
1.677376678E0,-1.094716340E-1,-9.918848038E0,-1.863410622E-1,9.921202217E0
1.679802563E0,-1.166501045E-1,-9.909276962E0,-1.791625917E-1,9.911582941E0
1.682228449E0,-9.272187948E-2,-9.906884193E0,-1.887338907E-1,9.909115614E0
1.684654334E0,-1.022931710E-1,-9.911669731E0,-1.815554202E-1,9.913860152E0
1.687080219E0,-1.118644550E-1,-9.916455269E0,-2.054836452E-1,9.919214802E0
1.689506105E0,-8.315058798E-2,-9.909276962E0,-1.839482337E-1,9.911332952E0
1.691931990E0,-8.793623000E-2,-9.918848038E0,-1.719841212E-1,9.920728689E0
1.694357876E0,-1.070788130E-1,-9.909276962E0,-1.743769497E-1,9.911389565E0
1.696783761E0,-9.511470050E-2,-9.897313118E0,-1.911267042E-1,9.899615305E0
1.699209646E0,-9.990034252E-2,-9.914062500E0,-1.935195327E-1,9.916454263E0
1.701635532E0,-9.032905847E-2,-9.928419113E0,-1.911267042E-1,9.930669406E0
1.704061417E0,-9.511470050E-2,-9.909276962E0,-1.983051747E-1,9.911717392E0
1.706487303E0,-8.793623000E-2,-9.904491425E0,-1.935195327E-1,9.906772076E0
1.708913188E0,-1.190429255E-1,-9.921240807E0,-1.839482337E-1,9.923659976E0
1.711339074E0,-9.032905847E-2,-9.897313118E0,-1.839482337E-1,9.899434491E0
1.713764959E0,-8.315058798E-2,-9.902098656E0,-1.791625917E-1,9.904068409E0
1.716190844E0,-1.070788130E-1,-9.904491425E0,-1.719841212E-1,9.906563218E0
1.718616730E0,-1.022931710E-1,-9.899705887E0,-1.935195327E-1,9.902125547E0
1.721042615E0,-1.118644550E-1,-9.899705887E0,-1.839482337E-1,9.902046620E0
1.723468501E0,-1.070788130E-1,-9.887741089E0,-2.006980032E-1,9.890357395E0
1.725894386E0,-1.166501045E-1,-9.918848038E0,-2.030908167E-1,9.921612748E0
1.728320271E0,-1.190429255E-1,-9.921240807E0,-1.839482337E-1,9.923659976E0
1.730746157E0,-9.750752151E-2,-9.909276962E0,-1.815554202E-1,9.911419676E0
1.733172042E0,-1.046859920E-1,-9.902098656E0,-1.719841212E-1,9.904145369E0
1.735597928E0,-9.272187948E-2,-9.885348320E0,-1.648056656E-1,9.887156804E0
1.738023813E0,-1.070788130E-1,-9.887741089E0,-1.767697781E-1,9.889900771E0
1.740449699E0,-1.022931710E-1,-9.899705887E0,-1.815554202E-1,9.901898955E0
1.742875584E0,-7.836493850E-2,-9.911669731E0,-1.839482337E-1,9.913686241E0
1.745301469E0,-1.142572835E-1,-9.904491425E0,-1.935195327E-1,9.907040674E0
1.747727355E0,-1.046859920E-1,-9.899705887E0,-1.911267042E-1,9.902104080E0
1.750153240E0,-9.511470050E-2,-9.904491425E0,-1.863410622E-1,9.906700772E0
1.752579126E0,-1.357926875E-1,-9.894919395E0,-1.863410622E-1,9.897605392E0
1.755005011E0,-9.990034252E-2,-9.887741089E0,-1.815554202E-1,9.889912350E0
1.757430896E0,-1.070788130E-1,-9.906884193E0,-1.959123611E-1,9.909399676E0
1.759856782E0,-9.032905847E-2,-9.894919395E0,-1.863410622E-1,9.897086045E0
1.762282667E0,-1.046859920E-1,-9.885348320E0,-1.815554202E-1,9.887569617E0
1.764708553E0,-9.511470050E-2,-9.899705887E0,-1.935195327E-1,9.902053992E0
1.767134438E0,-1.046859920E-1,-9.914062500E0,-1.935195327E-1,9.916503629E0
1.769560324E0,-1.046859920E-1,-9.909276962E0,-2.054836452E-1,9.911960079E0
1.771986209E0,-9.272187948E-2,-9.928419113E0,-1.911267042E-1,9.930691459E0
1.774412094E0,-1.046859920E-1,-9.918848038E0,-1.791625917E-1,9.921018334E0
1.776837980E0,-8.315058798E-2,-9.918848038E0,-1.624128371E-1,9.920526112E0
1.779263865E0,-1.094716340E-1,-9.899705887E0,-1.815554202E-1,9.901975715E0
1.781689751E0,-1.070788130E-1,-9.902098656E0,-1.863410622E-1,9.904430658E0
1.784115636E0,-9.032905847E-2,-9.887741089E0,-1.815554202E-1,9.889820299E0
1.786541521E0,-9.990034252E-2,-9.894919395E0,-2.006980032E-1,9.897458745E0
1.788967407E0,-9.032905847E-2,-9.906884193E0,-1.911267042E-1,9.909139376E0
1.791393292E0,-1.214357466E-1,-9.918848038E0,-2.030908167E-1,9.921670168E0
1.793819178E0,-1.094716340E-1,-9.906884193E0,-1.839482337E-1,9.909196507E0
1.796245063E0,-9.750752151E-2,-9.914062500E0,-1.839482337E-1,9.916248279E0
1.798670949E0,-1.142572835E-1,-9.899705887E0,-1.911267042E-1,9.902209894E0
1.801096834E0,-1.333998591E-1,-9.921240807E0,-1.959123611E-1,9.924071559E0
1.803522719E0,-1.022931710E-1,-9.916455269E0,-1.839482337E-1,9.918688721E0
1.805948605E0,-8.315058798E-2,-9.918848038E0,-1.983051747E-1,9.921178627E0
1.808374490E0,-8.075776696E-2,-9.904491425E0,-1.983051747E-1,9.906805597E0
1.810800376E0,-9.511470050E-2,-9.933204651E0,-1.983051747E-1,9.935639204E0
1.813226261E0,-9.750752151E-2,-9.923633575E0,-1.767697781E-1,9.925686808E0
1.815652146E0,-1.142572835E-1,-9.906884193E0,-1.815554202E-1,9.909206402E0
1.818078032E0,-1.118644550E-1,-9.906884193E0,-1.935195327E-1,9.909405526E0
1.820503917E0,-1.142572835E-1,-9.911669731E0,-1.839482337E-1,9.914034927E0
1.822929803E0,-1.190429255E-1,-9.928419113E0,-2.006980032E-1,9.931160909E0
1.825355688E0,-1.262213886E-1,-9.930811882E0,-1.983051747E-1,9.933593580E0
1.827781574E0,-8.793623000E-2,-9.887741089E0,-1.935195327E-1,9.890025603E0
1.830207459E0,-9.032905847E-2,-9.904491425E0,-2.054836452E-1,9.907034533E0
1.832633344E0,-1.118644550E-1,-9.899705887E0,-2.030908167E-1,9.902420723E0
1.835059230E0,-1.046859920E-1,-9.918848038E0,-1.983051747E-1,9.921382489E0
1.837485115E0,-1.070788130E-1,-9.902098656E0,-1.911267042E-1,9.904521850E0
1.839911001E0,-9.272187948E-2,-9.918848038E0,-1.863410622E-1,9.921031536E0
1.842336886E0,-1.046859920E-1,-9.937990189E0,-2.126621157E-1,9.940816532E0
1.844762771E0,-9.511470050E-2,-9.916455269E0,-1.959123611E-1,9.918846382E0
1.847188657E0,-1.142572835E-1,-9.909276962E0,-2.006980032E-1,9.911967733E0
1.849614542E0,-9.990034252E-2,-9.911669731E0,-1.983051747E-1,9.914156640E0
1.852040428E0,-1.094716340E-1,-9.897313118E0,-1.887338907E-1,9.899717747E0
1.854466313E0,-7.836493850E-2,-9.916455269E0,-1.743769497E-1,9.918297913E0
1.856892199E0,-1.094716340E-1,-9.894919395E0,-1.863410622E-1,9.897279266E0
1.859318084E0,-9.990034252E-2,-9.899705887E0,-1.959123611E-1,9.902148170E0
1.861743969E0,-1.070788130E-1,-9.887741089E0,-1.791625917E-1,9.889943829E0
1.864169855E0,-8.075776696E-2,-9.906884193E0,-1.815554202E-1,9.908876758E0
1.866595740E0,-1.094716340E-1,-9.909276962E0,-1.983051747E-1,9.911865561E0
1.869021626E0,-1.094716340E-1,-9.914062500E0,-1.983051747E-1,9.916649849E0
1.871447511E0,-1.022931710E-1,-9.906884193E0,-2.030908167E-1,9.909493640E0
1.873873396E0,-8.793623000E-2,-9.918848038E0,-1.983051747E-1,9.921219891E0
1.876299282E0,-1.046859920E-1,-9.887741089E0,-1.863410622E-1,9.890050859E0
1.878725167E0,-8.793623000E-2,-9.904491425E0,-1.815554202E-1,9.906545590E0
1.881151053E0,-8.554340899E-2,-9.930811882E0,-1.887338907E-1,9.932973512E0
1.883576938E0,-9.272187948E-2,-9.918848038E0,-1.839482337E-1,9.920986881E0
1.886002824E0,-8.793623000E-2,-9.916455269E0,-1.767697781E-1,9.918420511E0
1.888428709E0,-1.094716340E-1,-9.911669731E0,-1.863410622E-1,9.914025615E0
1.890854594E0,-1.094716340E-1,-9.914062500E0,-1.911267042E-1,9.916508897E0
1.893280480E0,-1.094716340E-1,-9.904491425E0,-1.935195327E-1,9.906986637E0
1.895706365E0,-9.511470050E-2,-9.909276962E0,-1.935195327E-1,9.911622800E0
1.898132251E0,-1.166501045E-1,-9.892526627E0,-1.719841212E-1,9.894709134E0
1.900558136E0,-1.046859920E-1,-9.894919395E0,-1.815554202E-1,9.897138545E0
1.902984021E0,-9.990034252E-2,-9.899705887E0,-1.983051747E-1,9.902195800E0
1.905409907E0,-7.118647546E-2,-9.878170013E0,-1.983051747E-1,9.880416756E0
1.907835792E0,-9.750752151E-2,-9.909276962E0,-1.863410622E-1,9.911508494E0
1.910261678E0,-1.166501045E-1,-9.906884193E0,-1.815554202E-1,9.909234281E0
1.912687563E0,-9.511470050E-2,-9.894919395E0,-1.743769497E-1,9.896912850E0
1.915113449E0,-1.022931710E-1,-9.909276962E0,-1.935195327E-1,9.911694286E0
1.917539334E0,-1.022931710E-1,-9.906884193E0,-1.671984792E-1,9.908823020E0
1.919965219E0,-8.075776696E-2,-9.916455269E0,-1.887338907E-1,9.918579908E0
1.922391105E0,-8.793623000E-2,-9.909276962E0,-2.030908167E-1,9.911748008E0
1.924816990E0,-6.879365444E-2,-9.904491425E0,-1.959123611E-1,9.906667684E0
1.927242876E0,-1.022931710E-1,-9.892526627E0,-1.887338907E-1,9.894855604E0
1.929668813E0,-1.118644550E-1,-9.911669731E0,-1.983051747E-1,9.914284415E0
1.932094646E0,-1.046859920E-1,-9.904491425E0,-1.935195327E-1,9.906934912E0
1.934520532E0,-5.922235921E-2,-9.921240807E0,-1.983051747E-1,9.923399184E0
1.936946417E0,-8.075776696E-2,-9.911669731E0,-1.839482337E-1,9.913705444E0
1.939372303E0,-1.022931710E-1,-9.911669731E0,-2.030908167E-1,9.914277918E0
1.941798188E0,-1.022931710E-1,-9.906884193E0,-1.911267042E-1,9.909255660E0
1.944224074E0,-1.118644550E-1,-9.904491425E0,-1.695913076E-1,9.906574849E0
1.946649959E0,-1.142572835E-1,-9.890133858E0,-2.006980032E-1,9.892829835E0
1.949075844E0,-1.022931710E-1,-9.916455269E0,-1.839482337E-1,9.918688721E0
1.951501730E0,-9.272187948E-2,-9.911669731E0,-2.006980032E-1,9.914135055E0
1.953927615E0,-1.022931710E-1,-9.916455269E0,-1.935195327E-1,9.918870843E0
1.956353501E0,-8.315058798E-2,-9.897313118E0,-1.815554202E-1,9.899327419E0
1.958779386E0,-1.190429255E-1,-9.899705887E0,-1.767697781E-1,9.901999567E0
1.961205271E0,-1.118644550E-1,-9.892526627E0,-1.911267042E-1,9.895005110E0
1.963631209E0,-1.118644550E-1,-9.897313118E0,-1.767697781E-1,9.899523633E0
1.966057042E0,-1.022931710E-1,-9.937990189E0,-1.695913076E-1,9.939963486E0
1.968482980E0,-9.990034252E-2,-9.921240807E0,-1.648056656E-1,9.923112421E0
1.970908813E0,-1.238285750E-1,-9.902098656E0,-1.791625917E-1,9.904493452E0
1.973334699E0,-9.032905847E-2,-9.914062500E0,-1.648056656E-1,9.915843661E0
1.975760584E0,-1.190429255E-1,-9.921240807E0,-1.743769497E-1,9.923487173E0
1.978186469E0,-9.990034252E-2,-9.952347755E0,-1.743769497E-1,9.954376587E0
1.980612355E0,-1.022931710E-1,-9.911669731E0,-1.791625917E-1,9.913816621E0
1.983038240E0,-7.597211748E-2,-9.914062500E0,-1.863410622E-1,9.916104578E0
1.985464178E0,-9.272187948E-2,-9.892526627E0,-1.863410622E-1,9.894715933E0
1.987890063E0,-1.118644550E-1,-9.890133858E0,-1.911267042E-1,9.892612941E0
1.990315896E0,-8.793623000E-2,-9.916455269E0,-2.150549293E-1,9.919176705E0
1.992741782E0,-1.094716340E-1,-9.928419113E0,-1.911267042E-1,9.930861974E0
1.995167719E0,-1.070788130E-1,-9.897313118E0,-1.887338907E-1,9.899691576E0
1.997593553E0,-6.879365444E-2,-9.918848038E0,-1.863410622E-1,9.920836757E0
2.000019490E0,-1.166501045E-1,-9.887741089E0,-2.102692872E-1,9.890664500E0
2.002445376E0,-1.118644550E-1,-9.914062500E0,-1.815554202E-1,9.916355746E0
2.004871261E0,-9.990034252E-2,-9.904491425E0,-1.791625917E-1,9.906615451E0
2.007297094E0,-1.118644550E-1,-9.918848038E0,-1.983051747E-1,9.921460830E0
2.009723032E0,-1.214357466E-1,-9.904491425E0,-1.815554202E-1,9.906899585E0
2.012148865E0,-8.315058798E-2,-9.921240807E0,-1.695913076E-1,9.923038566E0
2.014574803E0,-9.511470050E-2,-9.909276962E0,-1.791625917E-1,9.911352882E0
2.017000636E0,-9.990034252E-2,-9.902098656E0,-1.719841212E-1,9.904095941E0
2.019426574E0,-8.075776696E-2,-9.894919395E0,-1.743769497E-1,9.896785285E0
2.021852459E0,-9.511470050E-2,-9.897313118E0,-1.887338907E-1,9.899569397E0
2.024278344E0,-1.166501045E-1,-9.897313118E0,-1.959123611E-1,9.899939184E0
2.026704230E0,-1.118644550E-1,-9.897313118E0,-2.102692872E-1,9.900178472E0
2.029130115E0,-1.118644550E-1,-9.923633575E0,-1.911267042E-1,9.926104292E0
2.031556001E0,-9.990034252E-2,-9.916455269E0,-1.815554202E-1,9.918620244E0
2.033981886E0,-9.990034252E-2,-9.902098656E0,-2.102692872E-1,9.904834731E0
2.036407771E0,-9.990034252E-2,-9.909276962E0,-1.815554202E-1,9.911443506E0
2.038833657E0,-9.750752151E-2,-9.902098656E0,-1.767697781E-1,9.904156353E0
2.041259490E0,-9.511470050E-2,-9.906884193E0,-2.054836452E-1,9.909471467E0
2.043685428E0,-1.022931710E-1,-9.902098656E0,-1.935195327E-1,9.904517731E0
2.046111261E0,-7.118647546E-2,-9.897313118E0,-1.863410622E-1,9.899323081E0
2.048537199E0,-9.750752151E-2,-9.902098656E0,-1.767697781E-1,9.904156353E0
2.050963084E0,-1.022931710E-1,-9.918848038E0,-1.767697781E-1,9.920950451E0
2.053388917E0,-1.190429255E-1,-9.926026344E0,-1.959123611E-1,9.928673217E0
2.055814803E0,-9.990034252E-2,-9.916455269E0,-1.839482337E-1,9.918664332E0
2.058240688E0,-8.793623000E-2,-9.911669731E0,-1.911267042E-1,9.913902312E0
2.060666626E0,-9.990034252E-2,-9.909276962E0,-1.767697781E-1,9.911356998E0
2.063092511E0,-9.990034252E-2,-9.911669731E0,-2.102692872E-1,9.914403165E0
2.065518344E0,-1.190429255E-1,-9.897313118E0,-1.983051747E-1,9.900015309E0
2.067944282E0,-7.597211748E-2,-9.894919395E0,-1.815554202E-1,9.896876476E0
2.070370167E0,-8.793623000E-2,-9.916455269E0,-1.863410622E-1,9.918595711E0
2.072796053E0,-1.118644550E-1,-9.911669731E0,-1.839482337E-1,9.914007639E0
2.075221938E0,-9.032905847E-2,-9.923633575E0,-1.671984792E-1,9.925453038E0
2.077647824E0,-9.032905847E-2,-9.902098656E0,-1.815554202E-1,9.904174852E0
2.080073709E0,-8.554340899E-2,-9.916455269E0,-1.767697781E-1,9.918399585E0
2.082499594E0,-9.750752151E-2,-9.902098656E0,-1.767697781E-1,9.904156353E0
2.084925480E0,-1.070788130E-1,-9.906884193E0,-1.767697781E-1,9.909039704E0
2.087351365E0,-9.511470050E-2,-9.902098656E0,-1.815554202E-1,9.904219654E0
2.089777251E0,-8.554340899E-2,-9.914062500E0,-1.767697781E-1,9.916007285E0
2.092203136E0,-1.022931710E-1,-9.902098656E0,-1.839482337E-1,9.904335345E0
2.094629021E0,-9.990034252E-2,-9.902098656E0,-1.815554202E-1,9.904266769E0
2.097054907E0,-9.511470050E-2,-9.914062500E0,-1.671984792E-1,9.915928468E0
2.099480792E0,-9.750752151E-2,-9.928419113E0,-1.767697781E-1,9.930471356E0
2.101906678E0,-1.022931710E-1,-9.949954987E0,-1.719841212E-1,9.951966975E0
2.104332511E0,-1.118644550E-1,-9.904491425E0,-1.767697781E-1,9.906700338E0
2.106758449E0,-9.990034252E-2,-9.914062500E0,-1.839482337E-1,9.916272096E0
2.109184334E0,-1.333998591E-1,-9.916455269E0,-1.935195327E-1,9.919240416E0
2.111610219E0,-1.190429255E-1,-9.916455269E0,-2.006980032E-1,9.919200371E0
2.114036053E0,-6.640082598E-2,-9.914062500E0,-1.911267042E-1,9.916126953E0
2.116461990E0,-1.094716340E-1,-9.916455269E0,-2.054836452E-1,9.919188105E0
2.118887876E0,-9.272187948E-2,-9.897313118E0,-1.983051747E-1,9.899733797E0
2.121313761E0,-9.990034252E-2,-9.909276962E0,-1.815554202E-1,9.911443506E0
2.123739646E0,-1.070788130E-1,-9.904491425E0,-1.839482337E-1,9.906778144E0
2.126165532E0,-9.272187948E-2,-9.923633575E0,-2.054836452E-1,9.926193843E0
2.128591365E0,-6.640082598E-2,-9.916455269E0,-1.887338907E-1,9.918473403E0
2.131017303E0,-8.793623000E-2,-9.897313118E0,-2.006980032E-1,9.899738351E0
2.133443136E0,-9.990034252E-2,-9.914062500E0,-1.863410622E-1,9.916316772E0
2.135869074E0,-8.554340899E-2,-9.930811882E0,-2.054836452E-1,9.933305887E0
2.138294959E0,-9.750752151E-2,-9.926026344E0,-1.887338907E-1,9.928299310E0
2.140720844E0,-9.990034252E-2,-9.909276962E0,-1.743769497E-1,9.911314611E0
2.143146730E0,-1.046859920E-1,-9.923633575E0,-1.839482337E-1,9.925890361E0
2.145572615E0,-9.750752151E-2,-9.914062500E0,-1.887338907E-1,9.916338208E0
2.147998501E0,-1.190429255E-1,-9.928419113E0,-1.767697781E-1,9.930706161E0
2.150424386E0,-9.990034252E-2,-9.909276962E0,-1.695913076E-1,9.911231569E0
2.152850271E0,-1.022931710E-1,-9.933204651E0,-1.839482337E-1,9.935434338E0
2.155276157E0,-9.750752151E-2,-9.911669731E0,-1.767697781E-1,9.913725442E0
2.157702042E0,-8.554340899E-2,-9.909276962E0,-1.743769497E-1,9.911180299E0
2.160127876E0,-1.046859920E-1,-9.911669731E0,-1.863410622E-1,9.913973926E0
2.162553813E0,-1.190429255E-1,-9.904491425E0,-1.887338907E-1,9.907004698E0
2.164979699E0,-9.272187948E-2,-9.904491425E0,-1.911267042E-1,9.906769259E0
2.167405584E0,-9.750752151E-2,-9.899705887E0,-1.767697781E-1,9.901764081E0
2.169831469E0,-9.750752151E-2,-9.911669731E0,-1.983051747E-1,9.914132817E0
2.172257355E0,-1.094716340E-1,-9.914062500E0,-2.054836452E-1,9.916795996E0
2.174683240E0,-1.142572835E-1,-9.897313118E0,-1.935195327E-1,9.899864216E0
2.177109126E0,-1.094716340E-1,-9.899705887E0,-1.911267042E-1,9.902155831E0
2.179535011E0,-1.070788130E-1,-9.899705887E0,-1.863410622E-1,9.902038452E0
2.181960896E0,-9.032905847E-2,-9.909276962E0,-2.006980032E-1,9.911720786E0
2.184386782E0,-7.118647546E-2,-9.904491425E0,-1.791625917E-1,9.906367504E0
2.186812667E0,-9.990034252E-2,-9.897313118E0,-2.078764737E-1,9.899999983E0
2.189238553E0,-9.750752151E-2,-9.906884193E0,-2.102692872E-1,9.909595113E0
2.191664438E0,-1.214357466E-1,-9.890133858E0,-1.959123611E-1,9.892819417E0
2.194090324E0,-1.262213886E-1,-9.911669731E0,-1.887338907E-1,9.914269977E0
2.196516209E0,-1.166501045E-1,-9.909276962E0,-1.815554202E-1,9.911626483E0
2.198942094E0,-1.094716340E-1,-9.914062500E0,-1.911267042E-1,9.916508897E0
2.201367980E0,-9.032905847E-2,-9.909276962E0,-1.935195327E-1,9.911578031E0
2.203793865E0,-9.032905847E-2,-9.916455269E0,-1.911267042E-1,9.918708276E0
2.206219751E0,-1.094716340E-1,-9.882955551E0,-1.791625917E-1,9.885185567E0
2.208645584E0,-1.357926875E-1,-9.902098656E0,-1.791625917E-1,9.904650255E0
2.211071521E0,-9.032905847E-2,-9.899705887E0,-1.863410622E-1,9.901871489E0
2.213497407E0,-1.022931710E-1,-9.902098656E0,-2.102692872E-1,9.904859154E0
2.215923292E0,-8.554340899E-2,-9.892526627E0,-1.863410622E-1,9.894651268E0
2.218349178E0,-9.032905847E-2,-9.902098656E0,-1.839482337E-1,9.904219004E0
2.220775063E0,-9.032905847E-2,-9.937990189E0,-1.791625917E-1,9.940015471E0
2.223200949E0,-1.310070455E-1,-9.911669731E0,-1.911267042E-1,9.914377899E0
2.225626834E0,-9.272187948E-2,-9.904491425E0,-1.863410622E-1,9.906678087E0
2.228052719E0,-1.070788130E-1,-9.928419113E0,-1.839482337E-1,9.930700323E0
2.230478553E0,-9.272187948E-2,-9.923633575E0,-1.863410622E-1,9.925816021E0
2.232904490E0,-9.750752151E-2,-9.899705887E0,-1.839482337E-1,9.901894835E0
2.235330376E0,-1.214357466E-1,-9.906884193E0,-1.791625917E-1,9.909248221E0
2.237756261E0,-9.990034252E-2,-9.902098656E0,-1.863410622E-1,9.904355651E0
2.240182146E0,-9.032905847E-2,-9.918848038E0,-1.911267042E-1,9.921100501E0
2.242607980E0,-8.075776696E-2,-9.923633575E0,-1.695913076E-1,9.925411144E0
2.245033865E0,-9.750752151E-2,-9.899705887E0,-1.791625917E-1,9.901807087E0
2.247459803E0,-1.166501045E-1,-9.928419113E0,-1.959123611E-1,9.931036954E0
2.249885688E0,-9.990034252E-2,-9.923633575E0,-1.887338907E-1,9.925930883E0
2.252311574E0,-1.046859920E-1,-9.923633575E0,-1.959123611E-1,9.926119290E0
2.254737459E0,-8.315058798E-2,-9.911669731E0,-1.959123611E-1,9.913954435E0
2.257163344E0,-1.094716340E-1,-9.911669731E0,-1.911267042E-1,9.914116719E0
2.259589230E0,-1.046859920E-1,-9.890133858E0,-1.815554202E-1,9.892354080E0
2.262015115E0,-9.032905847E-2,-9.916455269E0,-1.743769497E-1,9.918399657E0
2.264441001E0,-1.022931710E-1,-9.904491425E0,-1.815554202E-1,9.906683433E0
2.266866886E0,-8.554340899E-2,-9.880562782E0,-1.815554202E-1,9.882600920E0
2.269292719E0,-7.597211748E-2,-9.909276962E0,-1.863410622E-1,9.911320027E0
2.271718657E0,-9.990034252E-2,-9.914062500E0,-1.743769497E-1,9.916099165E0
2.274144542E0,-8.075776696E-2,-9.894919395E0,-1.911267042E-1,9.897094578E0
2.276570428E0,-1.070788130E-1,-9.923633575E0,-1.935195327E-1,9.926097875E0
2.278996313E0,-1.238285750E-1,-9.899705887E0,-1.863410622E-1,9.902233746E0
2.281422199E0,-9.750752151E-2,-9.897313118E0,-1.839482337E-1,9.899502595E0
2.283848084E0,-1.142572835E-1,-9.885348320E0,-1.911267042E-1,9.887855963E0
2.286273969E0,-9.990034252E-2,-9.911669731E0,-1.863410622E-1,9.913924547E0
2.288699855E0,-9.750752151E-2,-9.914062500E0,-1.887338907E-1,9.916338208E0
2.291125740E0,-7.836493850E-2,-9.909276962E0,-1.839482337E-1,9.911293958E0
2.293551626E0,-1.022931710E-1,-9.890133858E0,-1.983051747E-1,9.892650634E0
2.295977511E0,-1.190429255E-1,-9.904491425E0,-1.863410622E-1,9.906959402E0
2.298403396E0,-1.022931710E-1,-9.911669731E0,-1.959123611E-1,9.914133467E0
2.300829282E0,-1.022931710E-1,-9.909276962E0,-1.959123611E-1,9.911741293E0
2.303255167E0,-8.554340899E-2,-9.904491425E0,-1.815554202E-1,9.906524639E0
2.305681053E0,-9.511470050E-2,-9.897313118E0,-1.887338907E-1,9.899569397E0
2.308106938E0,-1.094716340E-1,-9.916455269E0,-1.983051747E-1,9.919041994E0
2.310532824E0,-8.075776696E-2,-9.914062500E0,-1.743769497E-1,9.915924788E0
2.312958709E0,-9.990034252E-2,-9.909276962E0,-1.887338907E-1,9.911577598E0
2.315384594E0,-1.214357466E-1,-9.918848038E0,-1.863410622E-1,9.921341443E0
2.317810480E0,-1.070788130E-1,-9.904491425E0,-1.767697781E-1,9.906647455E0
2.320236365E0,-1.022931710E-1,-9.906884193E0,-1.911267042E-1,9.909255660E0
2.322662251E0,-1.190429255E-1,-9.906884193E0,-1.887338907E-1,9.909396860E0
2.325088136E0,-7.836493850E-2,-9.926026344E0,-1.911267042E-1,9.928175536E0
2.327514021E0,-8.075776696E-2,-9.902098656E0,-1.911267042E-1,9.904272261E0
2.329939907E0,-9.750752151E-2,-9.914062500E0,-2.054836452E-1,9.916671140E0
2.332365792E0,-9.032905847E-2,-9.909276962E0,-1.887338907E-1,9.911485748E0
2.334791678E0,-1.046859920E-1,-9.918848038E0,-1.695913076E-1,9.920850103E0
2.337217563E0,-1.118644550E-1,-9.914062500E0,-1.791625917E-1,9.916312225E0
2.339643449E0,-1.046859920E-1,-9.911669731E0,-2.006980032E-1,9.914254168E0
2.342069334E0,-9.511470050E-2,-9.902098656E0,-1.887338907E-1,9.904353844E0
2.344495219E0,-1.046859920E-1,-9.921240807E0,-1.815554202E-1,9.923454070E0
2.346921105E0,-1.094716340E-1,-9.918848038E0,-1.815554202E-1,9.921113486E0
2.349346990E0,-1.070788130E-1,-9.899705887E0,-1.863410622E-1,9.902038452E0
2.351772876E0,-7.357929647E-2,-9.899705887E0,-1.887338907E-1,9.901778176E0
2.354198761E0,-8.793623000E-2,-9.902098656E0,-1.887338907E-1,9.904287508E0
2.356624646E0,-1.022931710E-1,-9.928419113E0,-2.126621157E-1,9.931223246E0
2.359050532E0,-9.272187948E-2,-9.930811882E0,-2.030908167E-1,9.933321089E0
2.361476417E0,-1.022931710E-1,-9.904491425E0,-1.743769497E-1,9.906554476E0
2.363902303E0,-9.990034252E-2,-9.894919395E0,-1.863410622E-1,9.897178028E0
2.366328188E0,-1.070788130E-1,-9.885348320E0,-1.767697781E-1,9.887508525E0
2.368754074E0,-1.094716340E-1,-9.911669731E0,-1.863410622E-1,9.914025615E0
2.371179959E0,-9.511470050E-2,-9.921240807E0,-1.767697781E-1,9.923271311E0
2.373605844E0,-1.166501045E-1,-9.909276962E0,-1.791625917E-1,9.911582941E0
2.376031678E0,-1.142572835E-1,-9.926026344E0,-1.911267042E-1,9.928523714E0
2.378457615E0,-1.286142170E-1,-9.909276962E0,-1.983051747E-1,9.912095463E0
2.380883501E0,-1.022931710E-1,-9.923633575E0,-1.743769497E-1,9.925692649E0
2.383309386E0,-1.094716340E-1,-9.911669731E0,-1.959123611E-1,9.914210132E0
2.385735271E0,-9.511470050E-2,-9.906884193E0,-1.863410622E-1,9.909093007E0
2.388161157E0,-9.272187948E-2,-9.916455269E0,-1.911267042E-1,9.918730355E0
2.390587042E0,-1.022931710E-1,-9.921240807E0,-1.911267042E-1,9.923608842E0
2.393012928E0,-9.750752151E-2,-9.906884193E0,-1.815554202E-1,9.909027425E0
2.395438813E0,-1.070788130E-1,-9.940383911E0,-1.743769497E-1,9.942489904E0
2.397864699E0,-1.046859920E-1,-9.911669731E0,-2.006980032E-1,9.914254168E0
2.400290584E0,-9.272187948E-2,-9.897313118E0,-1.983051747E-1,9.899733797E0
2.402716469E0,-1.094716340E-1,-9.899705887E0,-1.839482337E-1,9.902019877E0
2.405142355E0,-9.272187948E-2,-9.906884193E0,-1.791625917E-1,9.908937935E0
2.407568240E0,-1.190429255E-1,-9.904491425E0,-1.887338907E-1,9.907004698E0
2.409994126E0,-8.315058798E-2,-9.911669731E0,-1.983051747E-1,9.914002008E0
2.412420011E0,-8.554340899E-2,-9.899705887E0,-1.839482337E-1,9.901784247E0
2.414845896E0,-9.990034252E-2,-9.909276962E0,-1.767697781E-1,9.911356998E0
2.417271782E0,-1.214357466E-1,-9.909276962E0,-1.767697781E-1,9.911597455E0
2.419697667E0,-1.046859920E-1,-9.923633575E0,-1.863410622E-1,9.925934993E0
2.422123553E0,-9.511470050E-2,-9.906884193E0,-1.959123611E-1,9.909277617E0
2.424549438E0,-1.022931710E-1,-9.911669731E0,-1.911267042E-1,9.914040053E0
2.426975324E0,-1.022931710E-1,-9.930811882E0,-1.839482337E-1,9.933042106E0
2.429401209E0,-8.793623000E-2,-9.892526627E0,-1.863410622E-1,9.894672245E0
2.431827042E0,-1.070788130E-1,-9.894919395E0,-2.006980032E-1,9.897533804E0
2.434252980E0,-1.022931710E-1,-9.897313118E0,-1.791625917E-1,9.899463121E0
2.436678813E0,-9.511470050E-2,-9.914062500E0,-1.815554202E-1,9.916180940E0
2.439104751E0,-9.272187948E-2,-9.918848038E0,-2.054836452E-1,9.921409541E0
2.441530636E0,-1.046859920E-1,-9.902098656E0,-1.911267042E-1,9.904496270E0
2.443956521E0,-9.990034252E-2,-9.911669731E0,-1.935195327E-1,9.914062071E0
2.446382407E0,-9.990034252E-2,-9.887741089E0,-1.767697781E-1,9.889825654E0
2.448808292E0,-1.046859920E-1,-9.904491425E0,-1.767697781E-1,9.906621881E0
2.451234178E0,-9.750752151E-2,-9.911669731E0,-1.839482337E-1,9.913856037E0
2.453660063E0,-1.166501045E-1,-9.918848038E0,-1.911267042E-1,9.921375059E0
2.456085949E0,-1.046859920E-1,-9.904491425E0,-1.839482337E-1,9.906752570E0
2.458511834E0,-1.238285750E-1,-9.904491425E0,-1.983051747E-1,9.907250317E0
2.460937719E0,-1.286142170E-1,-9.914062500E0,-1.815554202E-1,9.916558841E0
2.463363605E0,-9.511470050E-2,-9.914062500E0,-1.791625917E-1,9.916137418E0
2.465789490E0,-8.554340899E-2,-9.926026344E0,-1.743769497E-1,9.927926469E0
2.468215376E0,-8.315058798E-2,-9.918848038E0,-1.911267042E-1,9.921037740E0
2.470641261E0,-1.142572835E-1,-9.904491425E0,-1.935195327E-1,9.907040674E0
2.473067146E0,-1.046859920E-1,-9.906884193E0,-1.839482337E-1,9.909144793E0
2.475493032E0,-9.032905847E-2,-9.902098656E0,-1.911267042E-1,9.904354928E0
2.477918917E0,-7.836493850E-2,-9.906884193E0,-1.815554202E-1,9.908857545E0
2.480344803E0,-9.032905847E-2,-9.890133858E0,-1.767697781E-1,9.892125890E0
2.482770636E0,-9.750752151E-2,-9.899705887E0,-1.767697781E-1,9.901764081E0
2.485196574E0,-9.750752151E-2,-9.921240807E0,-1.791625917E-1,9.923337447E0
2.487622459E0,-9.750752151E-2,-9.923633575E0,-2.054836452E-1,9.926239700E0
2.490048344E0,-1.118644550E-1,-9.909276962E0,-1.839482337E-1,9.911615435E0
2.492474230E0,-1.046859920E-1,-9.906884193E0,-1.911267042E-1,9.909280650E0
2.494900115E0,-8.793623000E-2,-9.923633575E0,-1.887338907E-1,9.925817679E0
2.497326001E0,-8.075776696E-2,-9.911669731E0,-1.911267042E-1,9.913841238E0
2.499751886E0,-1.022931710E-1,-9.880562782E0,-2.054836452E-1,9.883228638E0
2.502177771E0,-9.511470050E-2,-9.916455269E0,-2.030908167E-1,9.918990764E0
2.504603657E0,-1.118644550E-1,-9.906884193E0,-1.911267042E-1,9.909359086E0
2.507029542E0,-8.554340899E-2,-9.892526627E0,-1.887338907E-1,9.894696621E0
2.509455428E0,-9.511470050E-2,-9.904491425E0,-1.839482337E-1,9.906656052E0
2.511881313E0,-9.990034252E-2,-9.906884193E0,-2.102692872E-1,9.909618947E0
2.514307199E0,-9.511470050E-2,-9.906884193E0,-1.863410622E-1,9.909093007E0
2.516733032E0,-1.022931710E-1,-9.899705887E0,-1.767697781E-1,9.901812364E0
2.519158969E0,-1.046859920E-1,-9.911669731E0,-1.983051747E-1,9.914206018E0
2.521584855E0,-8.315058798E-2,-9.906884193E0,-1.887338907E-1,9.909030675E0
2.524010740E0,-9.990034252E-2,-9.930811882E0,-1.887338907E-1,9.933107530E0
2.526436626E0,-9.032905847E-2,-9.921240807E0,-1.863410622E-1,9.923401709E0
2.528862511E0,-9.750752151E-2,-9.923633575E0,-1.743769497E-1,9.925644482E0
2.531288396E0,-1.142572835E-1,-9.921240807E0,-1.959123611E-1,9.923832703E0
2.533714282E0,-9.032905847E-2,-9.911669731E0,-1.983051747E-1,9.914064814E0
2.536140115E0,-8.554340899E-2,-9.899705887E0,-1.863410622E-1,9.901828988E0
2.538566053E0,-9.990034252E-2,-9.909276962E0,-1.863410622E-1,9.911532323E0
2.540991938E0,-1.046859920E-1,-9.902098656E0,-1.815554202E-1,9.904316196E0
2.543417824E0,-1.166501045E-1,-9.909276962E0,-1.983051747E-1,9.911947443E0
2.545843709E0,-9.511470050E-2,-9.918848038E0,-1.959123611E-1,9.921238575E0
2.548269594E0,-9.032905847E-2,-9.894919395E0,-1.648056656E-1,9.896704001E0
2.550695480E0,-9.750752151E-2,-9.899705887E0,-1.839482337E-1,9.901894835E0
2.553121365E0,-9.272187948E-2,-9.909276962E0,-2.054836452E-1,9.911840939E0
2.555547251E0,-1.022931710E-1,-9.887741089E0,-1.959123611E-1,9.890210786E0
2.557973136E0,-7.597211748E-2,-9.890133858E0,-1.935195327E-1,9.892318702E0
2.560398969E0,-9.272187948E-2,-9.918848038E0,-1.887338907E-1,9.921076767E0
2.562824907E0,-1.262213886E-1,-9.921240807E0,-1.815554202E-1,9.923704618E0
2.565250792E0,-9.750752151E-2,-9.918848038E0,-1.815554202E-1,9.920988685E0
2.567676678E0,-9.750752151E-2,-9.887741089E0,-1.863410622E-1,9.889977480E0
2.570102563E0,-9.990034252E-2,-9.911669731E0,-1.839482337E-1,9.913879861E0
2.572528449E0,-9.511470050E-2,-9.909276962E0,-1.767697781E-1,9.911309917E0
2.574954334E0,-1.070788130E-1,-9.894919395E0,-1.815554202E-1,9.897164144E0
2.577380219E0,-1.118644550E-1,-9.909276962E0,-1.791625917E-1,9.911527774E0
2.579806105E0,-9.272187948E-2,-9.902098656E0,-1.839482337E-1,9.904241116E0
2.582231990E0,-8.554340899E-2,-9.902098656E0,-1.959123611E-1,9.904405945E0
2.584657876E0,-9.032905847E-2,-9.890133858E0,-2.006980032E-1,9.892582411E0
2.587083761E0,-1.070788130E-1,-9.902098656E0,-1.959123611E-1,9.904615354E0
2.589509646E0,-9.750752151E-2,-9.892526627E0,-1.863410622E-1,9.894761936E0
2.591935480E0,-1.046859920E-1,-9.892526627E0,-2.054836452E-1,9.895214285E0
2.594361417E0,-1.094716340E-1,-9.899705887E0,-1.911267042E-1,9.902155831E0
2.596787303E0,-1.070788130E-1,-9.904491425E0,-1.863410622E-1,9.906822863E0
2.599213188E0,-9.990034252E-2,-9.909276962E0,-2.030908167E-1,9.911861373E0
2.601639074E0,-1.022931710E-1,-9.894919395E0,-1.911267042E-1,9.897293729E0
2.604064907E0,-1.166501045E-1,-9.904491425E0,-1.839482337E-1,9.906886220E0
2.606490844E0,-1.070788130E-1,-9.902098656E0,-1.887338907E-1,9.904475965E0
2.608916678E0,-9.032905847E-2,-9.902098656E0,-1.719841212E-1,9.904004022E0
2.611342615E0,-8.793623000E-2,-9.916455269E0,-1.815554202E-1,9.918506957E0
2.613768449E0,-9.511470050E-2,-9.916455269E0,-1.911267042E-1,9.918753012E0
2.616194386E0,-1.070788130E-1,-9.914062500E0,-2.006980032E-1,9.916671862E0
2.618620271E0,-1.142572835E-1,-9.911669731E0,-1.983051747E-1,9.914311702E0
2.621046105E0,-1.070788130E-1,-9.906884193E0,-1.791625917E-1,9.909082678E0
2.623472042E0,-1.262213886E-1,-9.906884193E0,-1.863410622E-1,9.909440411E0
2.625897928E0,-1.142572835E-1,-9.894919395E0,-1.791625917E-1,9.897200806E0
2.628323813E0,-8.793623000E-2,-9.887741089E0,-1.767697781E-1,9.889712037E0
2.630749646E0,-6.640082598E-2,-9.894919395E0,-1.911267042E-1,9.896987841E0
2.633175584E0,-9.511470050E-2,-9.916455269E0,-1.863410622E-1,9.918661951E0
2.635601469E0,-1.286142170E-1,-9.935597420E0,-1.959123611E-1,9.938361000E0
2.638027355E0,-9.272187948E-2,-9.894919395E0,-1.935195327E-1,9.897245930E0
2.640453240E0,-1.046859920E-1,-9.897313118E0,-1.839482337E-1,9.899575903E0
2.642879126E0,-1.166501045E-1,-9.902098656E0,-1.839482337E-1,9.904494030E0
2.645305011E0,-1.118644550E-1,-9.904491425E0,-1.887338907E-1,9.906921041E0
2.647730896E0,-9.990034252E-2,-9.930811882E0,-1.911267042E-1,9.933153282E0
2.650156782E0,-1.118644550E-1,-9.894919395E0,-1.959123611E-1,9.897490851E0
2.652582615E0,-9.750752151E-2,-9.911669731E0,-1.719841212E-1,9.913641264E0
2.655008553E0,-7.597211748E-2,-9.887741089E0,-1.959123611E-1,9.889973572E0
2.657434438E0,-7.597211748E-2,-9.890133858E0,-1.767697781E-1,9.892005208E0
2.659860324E0,-9.750752151E-2,-9.902098656E0,-1.839482337E-1,9.904287075E0
2.662286157E0,-1.262213886E-1,-9.892526627E0,-1.839482337E-1,9.895041781E0
2.664712094E0,-1.046859920E-1,-9.906884193E0,-1.911267042E-1,9.909280650E0
2.667137980E0,-1.166501045E-1,-9.914062500E0,-1.863410622E-1,9.916499659E0
2.669563865E0,-1.070788130E-1,-9.923633575E0,-1.815554202E-1,9.925871830E0
2.671989751E0,-8.315058798E-2,-9.926026344E0,-2.030908167E-1,9.928451988E0
2.674415636E0,-1.142572835E-1,-9.909276962E0,-1.815554202E-1,9.911598610E0
2.676841469E0,-9.272187948E-2,-9.899705887E0,-1.791625917E-1,9.901761117E0
2.679267407E0,-8.075776696E-2,-9.902098656E0,-2.030908167E-1,9.904510361E0
2.681693292E0,-7.357929647E-2,-9.904491425E0,-1.911267042E-1,9.906608588E0
2.684119178E0,-1.238285750E-1,-9.902098656E0,-1.671984792E-1,9.904284257E0
2.686545063E0,-1.286142170E-1,-9.916455269E0,-1.767697781E-1,9.918864566E0
2.688970896E0,-1.022931710E-1,-9.902098656E0,-2.054836452E-1,9.904758715E0
2.691396782E0,-9.032905847E-2,-9.899705887E0,-2.078764737E-1,9.902300168E0
2.693822719E0,-8.554340899E-2,-9.902098656E0,-1.863410622E-1,9.904221244E0
2.696248553E0,-9.272187948E-2,-9.918848038E0,-1.983051747E-1,9.921263462E0
2.698674490E0,-1.214357466E-1,-9.921240807E0,-1.719841212E-1,9.923474408E0
2.701100376E0,-9.272187948E-2,-9.933204651E0,-1.791625917E-1,9.935252952E0
2.703526261E0,-9.272187948E-2,-9.935597420E0,-2.078764737E-1,9.938204368E0
2.705952094E0,-9.990034252E-2,-9.914062500E0,-2.006980032E-1,9.916596948E0
2.708377980E0,-1.022931710E-1,-9.914062500E0,-1.743769497E-1,9.916123561E0
2.710803865E0,-1.094716340E-1,-9.926026344E0,-1.791625917E-1,9.928246686E0
2.713229803E0,-8.793623000E-2,-9.902098656E0,-1.911267042E-1,9.904333394E0
2.715655688E0,-9.990034252E-2,-9.916455269E0,-1.791625917E-1,9.918576733E0
2.718081521E0,-1.022931710E-1,-9.916455269E0,-1.767697781E-1,9.918558189E0
2.720507407E0,-9.272187948E-2,-9.902098656E0,-1.743769497E-1,9.904067975E0
2.722933344E0,-1.070788130E-1,-9.902098656E0,-1.959123611E-1,9.904615354E0
2.725359178E0,-1.046859920E-1,-9.902098656E0,-1.767697781E-1,9.904229627E0
2.727785115E0,-1.094716340E-1,-9.894919395E0,-1.887338907E-1,9.897324606E0
2.730210949E0,-9.990034252E-2,-9.926026344E0,-2.078764737E-1,9.928705439E0
2.732636834E0,-9.990034252E-2,-9.930811882E0,-1.983051747E-1,9.933293998E0
2.735062771E0,-9.750752151E-2,-9.894919395E0,-1.983051747E-1,9.897386650E0
2.737488657E0,-1.142572835E-1,-9.904491425E0,-1.767697781E-1,9.906727646E0
2.739914490E0,-1.118644550E-1,-9.904491425E0,-1.839482337E-1,9.906831027E0
2.742340376E0,-9.750752151E-2,-9.916455269E0,-1.671984792E-1,9.918344022E0
2.744766261E0,-1.070788130E-1,-9.899705887E0,-1.911267042E-1,9.902129667E0
2.747192146E0,-1.046859920E-1,-9.899705887E0,-1.839482337E-1,9.901968125E0
2.749618032E0,-8.793623000E-2,-9.887741089E0,-1.743769497E-1,9.889669557E0
2.752043917E0,-8.315058798E-2,-9.882955551E0,-1.743769497E-1,9.884843538E0
2.754469855E0,-1.166501045E-1,-9.902098656E0,-1.959123611E-1,9.904723453E0
2.756895688E0,-9.990034252E-2,-9.914062500E0,-1.983051747E-1,9.916548809E0
2.759321574E0,-9.750752151E-2,-9.928419113E0,-1.959123611E-1,9.930830552E0
2.761747459E0,-1.214357466E-1,-9.911669731E0,-1.791625917E-1,9.914032617E0
2.764173396E0,-8.793623000E-2,-9.914062500E0,-1.935195327E-1,9.916340950E0
2.766599230E0,-8.793623000E-2,-9.894919395E0,-1.839482337E-1,9.897019732E0
2.769025115E0,-8.554340899E-2,-9.906884193E0,-1.839482337E-1,9.908961048E0
2.771451001E0,-1.046859920E-1,-9.911669731E0,-1.839482337E-1,9.913929240E0
2.773876886E0,-1.070788130E-1,-9.928419113E0,-1.887338907E-1,9.930790122E0
2.776302824E0,-1.142572835E-1,-9.914062500E0,-1.935195327E-1,9.916609289E0
2.778728657E0,-1.022931710E-1,-9.911669731E0,-1.887338907E-1,9.913994212E0
2.781154542E0,-1.214357466E-1,-9.914062500E0,-2.006980032E-1,9.916837277E0
2.783580428E0,-1.046859920E-1,-9.921240807E0,-1.791625917E-1,9.923410580E0
2.786006313E0,-8.075776696E-2,-9.911669731E0,-1.935195327E-1,9.913887658E0
2.788432199E0,-7.597211748E-2,-9.906884193E0,-1.983051747E-1,9.909159961E0
2.790858084E0,-8.315058798E-2,-9.906884193E0,-1.863410622E-1,9.908985389E0
2.793283969E0,-9.511470050E-2,-9.909276962E0,-1.887338907E-1,9.911530518E0
2.795709855E0,-1.046859920E-1,-9.899705887E0,-1.839482337E-1,9.901968125E0
2.798135740E0,-1.070788130E-1,-9.902098656E0,-2.006980032E-1,9.904711169E0
2.800561626E0,-9.032905847E-2,-9.909276962E0,-1.959123611E-1,9.911625039E0
2.802987511E0,-9.750752151E-2,-9.923633575E0,-2.030908167E-1,9.926190454E0
2.805413449E0,-9.750752151E-2,-9.899705887E0,-1.719841212E-1,9.901679802E0
2.807839282E0,-8.554340899E-2,-9.916455269E0,-1.887338907E-1,9.918620028E0
2.810265167E0,-1.094716340E-1,-9.904491425E0,-1.887338907E-1,9.906894312E0
2.812691053E0,-9.990034252E-2,-9.909276962E0,-1.935195327E-1,9.911669880E0
2.815116938E0,-1.046859920E-1,-9.911669731E0,-1.815554202E-1,9.913885131E0
2.817542824E0,-7.597211748E-2,-9.894919395E0,-1.791625917E-1,9.896832869E0
2.819968709E0,-9.990034252E-2,-9.902098656E0,-2.102692872E-1,9.904834731E0
2.822394594E0,-1.190429255E-1,-9.890133858E0,-1.959123611E-1,9.892790334E0
2.824820532E0,-9.272187948E-2,-9.914062500E0,-1.791625917E-1,9.916114755E0
2.827246365E0,-1.286142170E-1,-9.902098656E0,-1.791625917E-1,9.904554439E0
2.829672251E0,-1.381855011E-1,-9.923633575E0,-1.911267042E-1,9.926435815E0
2.832098136E0,-1.070788130E-1,-9.930811882E0,-2.030908167E-1,9.933465477E0
2.834524021E0,-9.750752151E-2,-9.911669731E0,-1.887338907E-1,9.913945988E0
2.836949907E0,-9.511470050E-2,-9.902098656E0,-1.959123611E-1,9.904493235E0
2.839375792E0,-8.793623000E-2,-9.911669731E0,-1.863410622E-1,9.913811206E0
2.841801678E0,-8.554340899E-2,-9.914062500E0,-1.839482337E-1,9.916137851E0
2.844227563E0,-7.597211748E-2,-9.916455269E0,-1.935195327E-1,9.918634315E0
2.846653449E0,-9.032905847E-2,-9.937990189E0,-1.815554202E-1,9.940058888E0
2.849079334E0,-8.793623000E-2,-9.914062500E0,-1.959123611E-1,9.916387936E0
2.851505219E0,-1.118644550E-1,-9.911669731E0,-1.863410622E-1,9.914052325E0
2.853931105E0,-1.190429255E-1,-9.894919395E0,-1.935195327E-1,9.897527513E0
2.856356990E0,-9.272187948E-2,-9.899705887E0,-1.959123611E-1,9.902078350E0
2.858782876E0,-1.190429255E-1,-9.904491425E0,-1.959123611E-1,9.907144051E0
2.861208761E0,-9.032905847E-2,-9.899705887E0,-1.839482337E-1,9.901826747E0
2.863634646E0,-7.597211748E-2,-9.904491425E0,-1.767697781E-1,9.906360063E0
2.866060532E0,-1.094716340E-1,-9.909276962E0,-1.815554202E-1,9.911544598E0
2.868486417E0,-9.511470050E-2,-9.904491425E0,-1.767697781E-1,9.906525362E0
2.870912303E0,-1.214357466E-1,-9.909276962E0,-1.935195327E-1,9.911910329E0
2.873338188E0,-1.118644550E-1,-9.923633575E0,-1.983051747E-1,9.926245108E0
2.875764074E0,-1.094716340E-1,-9.909276962E0,-1.791625917E-1,9.911501056E0
2.878189959E0,-1.022931710E-1,-9.892526627E0,-1.815554202E-1,9.894721286E0
2.880615844E0,-1.166501045E-1,-9.909276962E0,-1.863410622E-1,9.911715298E0
2.883041730E0,-9.272187948E-2,-9.902098656E0,-1.600200087E-1,9.903825601E0
2.885467615E0,-9.511470050E-2,-9.902098656E0,-1.935195327E-1,9.904446194E0
2.887893501E0,-1.214357466E-1,-9.899705887E0,-2.006980032E-1,9.902484687E0
2.890319386E0,-1.022931710E-1,-9.897313118E0,-1.887338907E-1,9.899640970E0
2.892745271E0,-8.554340899E-2,-9.894919395E0,-1.935195327E-1,9.897181282E0
2.895171157E0,-9.511470050E-2,-9.904491425E0,-1.911267042E-1,9.906791943E0
2.897597042E0,-1.118644550E-1,-9.909276962E0,-1.863410622E-1,9.911660132E0
2.900022928E0,-9.750752151E-2,-9.894919395E0,-1.815554202E-1,9.897065218E0
2.902448813E0,-9.990034252E-2,-9.870991707E0,-1.743769497E-1,9.873037257E0
2.904874699E0,-1.022931710E-1,-9.899705887E0,-1.959123611E-1,9.902172600E0
2.907300584E0,-1.094716340E-1,-9.904491425E0,-1.911267042E-1,9.906940185E0
2.909726469E0,-1.070788130E-1,-9.909276962E0,-1.791625917E-1,9.911474917E0
2.912152355E0,-8.554340899E-2,-9.911669731E0,-1.959123611E-1,9.913974793E0
2.914578240E0,-8.554340899E-2,-9.902098656E0,-1.791625917E-1,9.904088787E0
2.917004126E0,-9.990034252E-2,-9.904491425E0,-1.815554202E-1,9.906659014E0
2.919430011E0,-1.142572835E-1,-9.906884193E0,-2.006980032E-1,9.909575613E0
2.921855896E0,-9.750752151E-2,-9.923633575E0,-1.863410622E-1,9.925861879E0
2.924281782E0,-1.022931710E-1,-9.890133858E0,-1.839482337E-1,9.892373253E0
2.926707667E0,-7.836493850E-2,-9.909276962E0,-1.695913076E-1,9.911037897E0
2.929133553E0,-1.094716340E-1,-9.892526627E0,-1.767697781E-1,9.894711449E0
2.931559438E0,-8.315058798E-2,-9.909276962E0,-1.791625917E-1,9.911245289E0
2.933985324E0,-1.022931710E-1,-9.906884193E0,-1.959123611E-1,9.909349119E0
2.936411209E0,-1.214357466E-1,-9.909276962E0,-1.887338907E-1,9.911818049E0
2.938837094E0,-1.118644550E-1,-9.892526627E0,-1.839482337E-1,9.894869058E0
2.941262980E0,-1.022931710E-1,-9.909276962E0,-1.959123611E-1,9.911741293E0
2.943688865E0,-1.094716340E-1,-9.909276962E0,-1.887338907E-1,9.911678689E0
2.946114751E0,-1.046859920E-1,-9.923633575E0,-1.576271951E-1,9.925437463E0
2.948540636E0,-1.166501045E-1,-9.897313118E0,-1.671984792E-1,9.899412585E0
2.950966521E0,-1.022931710E-1,-9.892526627E0,-1.767697781E-1,9.894634632E0
2.953392407E0,-1.142572835E-1,-9.894919395E0,-1.695913076E-1,9.897032170E0
2.955818292E0,-9.750752151E-2,-9.899705887E0,-1.600200087E-1,9.901479221E0
2.958244178E0,-1.166501045E-1,-9.887741089E0,-1.935195327E-1,9.890322588E0
2.960670063E0,-1.070788130E-1,-9.909276962E0,-1.791625917E-1,9.911474917E0
2.963095949E0,-1.214357466E-1,-9.887741089E0,-1.863410622E-1,9.890242336E0
2.965521834E0,-9.990034252E-2,-9.911669731E0,-1.600200087E-1,9.913464750E0
2.967947719E0,-1.238285750E-1,-9.902098656E0,-1.791625917E-1,9.904493452E0
2.970373605E0,-1.070788130E-1,-9.916455269E0,-1.959123611E-1,9.918968325E0
2.972799490E0,-9.272187948E-2,-9.911669731E0,-1.839482337E-1,9.913810123E0
2.975225376E0,-1.046859920E-1,-9.916455269E0,-1.863410622E-1,9.918758352E0
2.977651261E0,-9.511470050E-2,-9.887741089E0,-1.887338907E-1,9.889999551E0
2.980077146E0,-9.032905847E-2,-9.899705887E0,-1.815554202E-1,9.901782585E0
2.982503032E0,-1.022931710E-1,-9.906884193E0,-2.006980032E-1,9.909444889E0
2.984928917E0,-6.879365444E-2,-9.911669731E0,-1.671984792E-1,9.913318554E0
2.987354803E0,-9.990034252E-2,-9.904491425E0,-1.743769497E-1,9.906530057E0
2.989780688E0,-1.190429255E-1,-9.911669731E0,-2.030908167E-1,9.914464885E0
2.992206574E0,-9.750752151E-2,-9.911669731E0,-1.839482337E-1,9.913856037E0
2.994632459E0,-9.990034252E-2,-9.897313118E0,-1.839482337E-1,9.899526453E0
2.997058344E0,-9.272187948E-2,-9.921240807E0,-1.863410622E-1,9.923423778E0
2.999484230E0,-8.793623000E-2,-9.909276962E0,-1.935195327E-1,9.911556513E0
3.001910115E0,-1.022931710E-1,-9.906884193E0,-1.767697781E-1,9.908989145E0
3.004336001E0,-8.554340899E-2,-9.911669731E0,-1.815554202E-1,9.913701473E0
3.006761886E0,-9.990034252E-2,-9.923633575E0,-1.767697781E-1,9.925710603E0
3.009187771E0,-1.166501045E-1,-9.914062500E0,-1.839482337E-1,9.916454984E0
3.011613657E0,-1.262213886E-1,-9.890133858E0,-1.791625917E-1,9.892561791E0
3.014039542E0,-1.118644550E-1,-9.914062500E0,-1.767697781E-1,9.916269282E0
3.016465428E0,-1.022931710E-1,-9.902098656E0,-1.839482337E-1,9.904335345E0
3.018891313E0,-9.750752151E-2,-9.911669731E0,-1.863410622E-1,9.913900724E0
3.021317199E0,-9.272187948E-2,-9.899705887E0,-1.863410622E-1,9.901893606E0
3.023743084E0,-1.046859920E-1,-9.904491425E0,-1.983051747E-1,9.907029549E0
3.026168969E0,-1.310070455E-1,-9.926026344E0,-1.959123611E-1,9.928823872E0
3.028594855E0,-1.022931710E-1,-9.911669731E0,-1.815554202E-1,9.913860152E0
3.031020740E0,-1.118644550E-1,-9.918848038E0,-1.911267042E-1,9.921319946E0
3.033446626E0,-1.046859920E-1,-9.914062500E0,-1.600200087E-1,9.915906454E0
3.035872511E0,-8.554340899E-2,-9.899705887E0,-1.911267042E-1,9.901920205E0
3.038298396E0,-1.118644550E-1,-9.909276962E0,-2.006980032E-1,9.911940439E0
3.040724282E0,-1.046859920E-1,-9.921240807E0,-1.935195327E-1,9.923680170E0
3.043150167E0,-1.118644550E-1,-9.890133858E0,-1.863410622E-1,9.892521639E0
3.045576053E0,-9.511470050E-2,-9.899705887E0,-1.935195327E-1,9.902053992E0
3.048001938E0,-1.046859920E-1,-9.916455269E0,-1.839482337E-1,9.918713687E0
3.050427824E0,-1.070788130E-1,-9.906884193E0,-1.887338907E-1,9.909260355E0
3.052853709E0,-1.142572835E-1,-9.902098656E0,-1.839482337E-1,9.904466137E0
3.055279594E0,-9.032905847E-2,-9.906884193E0,-1.671984792E-1,9.908706732E0
3.057705480E0,-7.357929647E-2,-9.909276962E0,-2.126621157E-1,9.911831768E0
3.060131365E0,-1.022931710E-1,-9.921240807E0,-2.030908167E-1,9.923846478E0
3.062557251E0,-7.836493850E-2,-9.909276962E0,-1.719841212E-1,9.911079130E0
3.064983136E0,-9.272187948E-2,-9.899705887E0,-1.815554202E-1,9.901804702E0
3.067409021E0,-1.094716340E-1,-9.906884193E0,-2.054836452E-1,9.909619669E0
3.069834907E0,-1.214357466E-1,-9.916455269E0,-1.911267042E-1,9.919040334E0
3.072260792E0,-1.142572835E-1,-9.892526627E0,-1.959123611E-1,9.895126045E0
3.074686678E0,-9.750752151E-2,-9.899705887E0,-2.078764737E-1,9.902368252E0
3.077112563E0,-1.190429255E-1,-9.899705887E0,-2.030908167E-1,9.902504418E0
3.079538449E0,-9.750752151E-2,-9.902098656E0,-1.863410622E-1,9.904331805E0
3.081964334E0,-9.272187948E-2,-9.914062500E0,-2.078764737E-1,9.916675110E0
3.084390219E0,-8.554340899E-2,-9.923633575E0,-1.911267042E-1,9.925842555E0
3.086816105E0,-9.272187948E-2,-9.914062500E0,-1.815554202E-1,9.916158277E0
3.089241990E0,-9.990034252E-2,-9.911669731E0,-1.911267042E-1,9.914015652E0
3.091667876E0,-1.022931710E-1,-9.923633575E0,-2.006980032E-1,9.926189950E0
3.094093761E0,-9.511470050E-2,-9.916455269E0,-1.695913076E-1,9.918361413E0
3.096519646E0,-9.511470050E-2,-9.945169449E0,-1.959123611E-1,9.947553660E0
3.098945532E0,-9.990034252E-2,-9.918848038E0,-2.078764737E-1,9.921529071E0
3.101371417E0,-1.094716340E-1,-9.916455269E0,-1.983051747E-1,9.919041994E0
3.103797303E0,-1.142572835E-1,-9.904491425E0,-1.887338907E-1,9.906948349E0
3.106223188E0,-9.750752151E-2,-9.899705887E0,-1.863410622E-1,9.901939575E0
3.108649074E0,-9.032905847E-2,-9.914062500E0,-2.006980032E-1,9.916505145E0
3.111074959E0,-1.166501045E-1,-9.897313118E0,-1.863410622E-1,9.899754401E0
3.113500844E0,-9.750752151E-2,-9.904491425E0,-1.839482337E-1,9.906679315E0
3.115926730E0,-8.793623000E-2,-9.890133858E0,-1.863410622E-1,9.892279995E0
3.118352615E0,-8.554340899E-2,-9.894919395E0,-1.959123611E-1,9.897228358E0
3.120778501E0,-9.511470050E-2,-9.909276962E0,-1.767697781E-1,9.911309917E0
3.123204386E0,-1.094716340E-1,-9.923633575E0,-1.959123611E-1,9.926170915E0
3.125630271E0,-8.793623000E-2,-9.926026344E0,-2.102692872E-1,9.928642654E0
3.128056157E0,-1.070788130E-1,-9.923633575E0,-1.791625917E-1,9.925828351E0
3.130482042E0,-8.793623000E-2,-9.892526627E0,-1.719841212E-1,9.894412280E0
3.132907928E0,-9.750752151E-2,-9.902098656E0,-2.006980032E-1,9.904612319E0
3.135333813E0,-7.836493850E-2,-9.902098656E0,-2.054836452E-1,9.904540493E0
3.137759699E0,-1.190429255E-1,-9.902098656E0,-1.887338907E-1,9.904612536E0
3.140185584E0,-1.094716340E-1,-9.916455269E0,-1.911267042E-1,9.918901076E0
3.142611469E0,-1.142572835E-1,-9.897313118E0,-1.767697781E-1,9.899550961E0
3.145037355E0,-1.046859920E-1,-9.933204651E0,-1.935195327E-1,9.935641077E0
3.147463240E0,-1.094716340E-1,-9.909276962E0,-1.743769497E-1,9.911415705E0
3.149889126E0,-1.190429255E-1,-9.899705887E0,-1.839482337E-1,9.902130317E0
3.152315011E0,-1.142572835E-1,-9.904491425E0,-1.839482337E-1,9.906858334E0
3.154740896E0,-9.032905847E-2,-9.914062500E0,-1.887338907E-1,9.916270220E0
3.157166782E0,-1.070788130E-1,-9.892526627E0,-1.767697781E-1,9.894685265E0
3.159592667E0,-1.262213886E-1,-9.914062500E0,-1.839482337E-1,9.916572192E0
3.162018553E0,-1.405783296E-1,-9.894919395E0,-1.935195327E-1,9.897809956E0
3.164444438E0,-1.142572835E-1,-9.899705887E0,-1.959123611E-1,9.902303420E0
3.166870324E0,-1.286142170E-1,-9.899705887E0,-1.863410622E-1,9.902294747E0
3.169296209E0,-1.238285750E-1,-9.906884193E0,-1.719841212E-1,9.909150644E0
3.171722094E0,-1.310070455E-1,-9.928419113E0,-1.791625917E-1,9.930899666E0
3.174147980E0,-1.070788130E-1,-9.918848038E0,-1.863410622E-1,9.921176103E0
3.176573865E0,-1.070788130E-1,-9.906884193E0,-2.030908167E-1,9.909544196E0
3.178999751E0,-1.094716340E-1,-9.906884193E0,-1.815554202E-1,9.909152377E0
3.181425636E0,-1.142572835E-1,-9.916455269E0,-1.839482337E-1,9.918819324E0
3.183851521E0,-1.070788130E-1,-9.904491425E0,-1.863410622E-1,9.906822863E0
3.186277407E0,-9.750752151E-2,-9.894919395E0,-1.911267042E-1,9.897245424E0
3.188703292E0,-1.142572835E-1,-9.902098656E0,-1.791625917E-1,9.904378413E0
3.191129178E0,-7.357929647E-2,-9.909276962E0,-1.911267042E-1,9.911393103E0
3.193555063E0,-1.142572835E-1,-9.926026344E0,-2.006980032E-1,9.928712575E0
3.195980949E0,-9.750752151E-2,-9.916455269E0,-1.791625917E-1,9.918552921E0
3.198406834E0,-9.272187948E-2,-9.914062500E0,-1.911267042E-1,9.916338136E0
3.200832719E0,-9.990034252E-2,-9.911669731E0,-1.791625917E-1,9.913792220E0
3.203258605E0,-9.272187948E-2,-9.926026344E0,-2.030908167E-1,9.928536761E0
3.205684490E0,-1.070788130E-1,-9.933204651E0,-1.791625917E-1,9.935397312E0
3.208110376E0,-1.142572835E-1,-9.894919395E0,-2.054836452E-1,9.897712266E0
3.210536261E0,-1.022931710E-1,-9.914062500E0,-2.078764737E-1,9.916769221E0
3.212962146E0,-9.511470050E-2,-9.890133858E0,-2.054836452E-1,9.892725512E0
3.215388032E0,-1.094716340E-1,-9.909276962E0,-1.887338907E-1,9.911678689E0
3.217813917E0,-1.166501045E-1,-9.897313118E0,-1.815554202E-1,9.899665478E0
3.220239803E0,-1.070788130E-1,-9.904491425E0,-1.863410622E-1,9.906822863E0
3.222665688E0,-1.046859920E-1,-9.904491425E0,-1.935195327E-1,9.906934912E0
3.225091574E0,-9.511470050E-2,-9.906884193E0,-2.126621157E-1,9.909622919E0
3.227517459E0,-9.990034252E-2,-9.918848038E0,-2.174477577E-1,9.921734223E0
3.229943344E0,-1.046859920E-1,-9.899705887E0,-1.935195327E-1,9.902150555E0
3.232369230E0,-9.511470050E-2,-9.890133858E0,-1.983051747E-1,9.892579010E0
3.234795115E0,-1.046859920E-1,-9.899705887E0,-2.078764737E-1,9.902441539E0
3.237221001E0,-1.118644550E-1,-9.906884193E0,-1.839482337E-1,9.909223230E0
3.239646886E0,-9.272187948E-2,-9.911669731E0,-1.743769497E-1,9.913637149E0
3.242072771E0,-9.990034252E-2,-9.914062500E0,-1.983051747E-1,9.916548809E0
3.244498657E0,-9.750752151E-2,-9.914062500E0,-2.126621157E-1,9.916822482E0
3.246924542E0,-1.046859920E-1,-9.911669731E0,-2.030908167E-1,9.914302895E0
3.249350428E0,-7.836493850E-2,-9.916455269E0,-2.006980032E-1,9.918795585E0
3.251776313E0,-1.022931710E-1,-9.894919395E0,-1.887338907E-1,9.897247810E0
3.254202199E0,-1.190429255E-1,-9.911669731E0,-1.791625917E-1,9.914003597E0
3.256628084E0,-1.094716340E-1,-9.916455269E0,-1.719841212E-1,9.918550684E0
3.259053969E0,-1.190429255E-1,-9.909276962E0,-1.863410622E-1,9.911743748E0
3.261479855E0,-1.094716340E-1,-9.897313118E0,-1.935195327E-1,9.899810140E0
3.263905740E0,-1.046859920E-1,-9.921240807E0,-1.839482337E-1,9.923498136E0
3.266331626E0,-1.094716340E-1,-9.890133858E0,-1.935195327E-1,9.892632692E0
3.268757511E0,-1.118644550E-1,-9.914062500E0,-1.887338907E-1,9.916489772E0
3.271183396E0,-9.511470050E-2,-9.923633575E0,-1.887338907E-1,9.925883871E0
3.273609282E0,-1.190429255E-1,-9.887741089E0,-1.983051747E-1,9.890445895E0
3.276035167E0,-1.118644550E-1,-9.904491425E0,-1.863410622E-1,9.906875745E0
3.278461053E0,-8.793623000E-2,-9.882955551E0,-1.839482337E-1,9.885058430E0
3.280886938E0,-8.075776696E-2,-9.899705887E0,-1.815554202E-1,9.901699896E0
3.283312824E0,-1.118644550E-1,-9.892526627E0,-1.839482337E-1,9.894869058E0
3.285738709E0,-1.118644550E-1,-9.914062500E0,-1.863410622E-1,9.916444519E0
3.288164594E0,-9.990034252E-2,-9.928419113E0,-1.863410622E-1,9.930670126E0
3.290590480E0,-1.094716340E-1,-9.923633575E0,-1.791625917E-1,9.925854453E0
3.293016365E0,-1.046859920E-1,-9.928419113E0,-1.935195327E-1,9.930856713E0
3.295442251E0,-1.046859920E-1,-9.911669731E0,-2.078764737E-1,9.914402082E0
3.297868136E0,-8.793623000E-2,-9.897313118E0,-1.839482337E-1,9.899412947E0
3.300294021E0,-1.166501045E-1,-9.902098656E0,-1.743769497E-1,9.904320893E0
3.302719907E0,-1.094716340E-1,-9.906884193E0,-1.863410622E-1,9.909241215E0
3.305145792E0,-1.214357466E-1,-9.918848038E0,-1.791625917E-1,9.921209214E0
3.307571678E0,-1.094716340E-1,-9.911669731E0,-1.767697781E-1,9.913850334E0
3.309997563E0,-1.118644550E-1,-9.911669731E0,-1.815554202E-1,9.913963531E0
3.312423449E0,-1.094716340E-1,-9.918848038E0,-1.983051747E-1,9.921434139E0
3.314849334E0,-1.022931710E-1,-9.909276962E0,-2.030908167E-1,9.911885779E0
3.317275219E0,-1.070788130E-1,-9.887741089E0,-1.863410622E-1,9.890076476E0
3.319701105E0,-1.022931710E-1,-9.902098656E0,-2.006980032E-1,9.904660588E0
3.322126990E0,-7.118647546E-2,-9.899705887E0,-1.959123611E-1,9.901900111E0
3.324552876E0,-1.142572835E-1,-9.918848038E0,-1.863410622E-1,9.921256176E0
3.326978761E0,-9.990034252E-2,-9.902098656E0,-1.959123611E-1,9.904540349E0
3.329404646E0,-9.511470050E-2,-9.928419113E0,-1.815554202E-1,9.930534490E0
3.331830532E0,-9.750752151E-2,-9.892526627E0,-1.815554202E-1,9.894672968E0
3.334256417E0,-9.511470050E-2,-9.897313118E0,-1.815554202E-1,9.899435142E0
3.336682303E0,-9.750752151E-2,-9.894919395E0,-2.006980032E-1,9.897434882E0
3.339108188E0,-7.118647546E-2,-9.899705887E0,-1.767697781E-1,9.901539866E0
3.341534074E0,-1.046859920E-1,-9.930811882E0,-1.911267042E-1,9.933202566E0
3.343959959E0,-9.511470050E-2,-9.902098656E0,-1.887338907E-1,9.904353844E0
3.346385844E0,-8.793623000E-2,-9.897313118E0,-1.935195327E-1,9.899595423E0
3.348811730E0,-8.315058798E-2,-9.890133858E0,-1.767697781E-1,9.892062945E0
3.351237615E0,-1.094716340E-1,-9.921240807E0,-2.030908167E-1,9.923923068E0
3.353663501E0,-1.118644550E-1,-9.918848038E0,-1.839482337E-1,9.921184254E0
3.356089386E0,-9.272187948E-2,-9.918848038E0,-1.719841212E-1,9.920772262E0
3.358515271E0,-1.070788130E-1,-9.892526627E0,-1.815554202E-1,9.894771918E0
3.360941157E0,-9.990034252E-2,-9.911669731E0,-1.935195327E-1,9.914062071E0
3.363367042E0,-1.142572835E-1,-9.918848038E0,-1.767697781E-1,9.921081024E0
3.365792928E0,-1.142572835E-1,-9.887741089E0,-1.767697781E-1,9.889981098E0
3.368218813E0,-1.166501045E-1,-9.892526627E0,-1.719841212E-1,9.894709134E0
3.370644699E0,-9.990034252E-2,-9.904491425E0,-1.815554202E-1,9.906659014E0
3.373070584E0,-9.990034252E-2,-9.916455269E0,-1.863410622E-1,9.918708997E0
3.375496469E0,-1.022931710E-1,-9.906884193E0,-2.030908167E-1,9.909493640E0
3.377922355E0,-1.118644550E-1,-9.911669731E0,-1.743769497E-1,9.913834669E0
3.380348240E0,-1.046859920E-1,-9.909276962E0,-1.767697781E-1,9.911406390E0
3.382774126E0,-1.142572835E-1,-9.890133858E0,-2.030908167E-1,9.892878668E0
3.385200011E0,-1.118644550E-1,-9.916455269E0,-1.815554202E-1,9.918747962E0
3.387625896E0,-1.166501045E-1,-9.926026344E0,-2.006980032E-1,9.928740400E0
3.390051782E0,-1.166501045E-1,-9.918848038E0,-1.935195327E-1,9.921421443E0
3.392477251E0,-1.046859920E-1,-9.909276962E0,-1.839482337E-1,9.911537016E0
3.394903553E0,-8.075776696E-2,-9.923633575E0,-2.054836452E-1,9.926089295E0
3.397329438E0,-8.554340899E-2,-9.909276962E0,-1.959123611E-1,9.911582580E0
3.399755324E0,-8.793623000E-2,-9.906884193E0,-2.078764737E-1,9.909455072E0
3.402181209E0,-1.022931710E-1,-9.897313118E0,-1.887338907E-1,9.899640970E0
3.404607094E0,-8.315058798E-2,-9.904491425E0,-1.671984792E-1,9.906251548E0
3.407032980E0,-1.046859920E-1,-9.914062500E0,-1.887338907E-1,9.916411392E0
3.409458865E0,-1.094716340E-1,-9.911669731E0,-1.815554202E-1,9.913936820E0
3.411884751E0,-8.554340899E-2,-9.904491425E0,-1.887338907E-1,9.906658798E0
3.414310636E0,-1.142572835E-1,-9.897313118E0,-1.911267042E-1,9.899817731E0
3.416736521E0,-1.022931710E-1,-9.904491425E0,-1.815554202E-1,9.906683433E0
3.419162407E0,-1.238285750E-1,-9.935597420E0,-1.719841212E-1,9.937857321E0
3.421588292E0,-1.214357466E-1,-9.911669731E0,-2.030908167E-1,9.914493904E0
3.424014178E0,-1.070788130E-1,-9.906884193E0,-1.887338907E-1,9.909260355E0
3.426440063E0,-1.166501045E-1,-9.916455269E0,-1.935195327E-1,9.919029295E0
3.428865949E0,-9.272187948E-2,-9.904491425E0,-1.815554202E-1,9.906589226E0
3.431291834E0,-7.597211748E-2,-9.892526627E0,-1.719841212E-1,9.894313183E0
3.433717719E0,-1.070788130E-1,-9.897313118E0,-2.126621157E-1,9.900176665E0
3.436143605E0,-9.511470050E-2,-9.926026344E0,-1.648056656E-1,9.927850054E0
3.438569490E0,-9.032905847E-2,-9.916455269E0,-1.767697781E-1,9.918442014E0
3.440995376E0,-1.070788130E-1,-9.916455269E0,-1.815554202E-1,9.918695143E0
3.443421261E0,-1.070788130E-1,-9.914062500E0,-1.863410622E-1,9.916391688E0
3.445847146E0,-9.511470050E-2,-9.906884193E0,-1.863410622E-1,9.909093007E0
3.448273032E0,-1.022931710E-1,-9.909276962E0,-1.911267042E-1,9.911647856E0
3.450698917E0,-8.315058798E-2,-9.921240807E0,-1.863410622E-1,9.923338962E0
3.453124803E0,-9.750752151E-2,-9.892526627E0,-2.030908167E-1,9.895091544E0
3.455550688E0,-1.166501045E-1,-9.892526627E0,-1.935195327E-1,9.895106877E0
3.457976574E0,-1.190429255E-1,-9.902098656E0,-1.767697781E-1,9.904391781E0
3.460402459E0,-9.511470050E-2,-9.906884193E0,-1.887338907E-1,9.909138293E0
3.462828344E0,-1.046859920E-1,-9.906884193E0,-1.887338907E-1,9.909234787E0
3.465254230E0,-9.750752151E-2,-9.904491425E0,-2.054836452E-1,9.907102585E0
3.467680115E0,-7.836493850E-2,-9.916455269E0,-1.935195327E-1,9.918652931E0
3.470106001E0,-9.272187948E-2,-9.902098656E0,-1.983051747E-1,9.904518165E0
3.472531886E0,-1.022931710E-1,-9.911669731E0,-1.863410622E-1,9.913948948E0
3.474957771E0,-1.022931710E-1,-9.921240807E0,-1.767697781E-1,9.923342712E0
3.477383657E0,-9.990034252E-2,-9.911669731E0,-1.815554202E-1,9.913835752E0
3.479809542E0,-8.315058798E-2,-9.914062500E0,-1.767697781E-1,9.915986932E0
3.482235428E0,-1.022931710E-1,-9.916455269E0,-1.887338907E-1,9.918778628E0
3.484661313E0,-9.990034252E-2,-9.892526627E0,-2.006980032E-1,9.895066590E0
3.487087199E0,-1.094716340E-1,-9.921240807E0,-1.935195327E-1,9.923731808E0
3.489513084E0,-9.272187948E-2,-9.902098656E0,-2.030908167E-1,9.904615137E0
3.491938969E0,-8.554340899E-2,-9.935597420E0,-1.815554202E-1,9.937624270E0
3.494364855E0,-1.166501045E-1,-9.914062500E0,-1.911267042E-1,9.916590741E0
3.496790740E0,-1.190429255E-1,-9.906884193E0,-1.887338907E-1,9.909396860E0
3.499216626E0,-1.118644550E-1,-9.906884193E0,-1.695913076E-1,9.908967115E0
3.501642511E0,-9.272187948E-2,-9.902098656E0,-1.839482337E-1,9.904241116E0
3.504068396E0,-9.511470050E-2,-9.911669731E0,-1.935195327E-1,9.914015003E0
3.506494282E0,-8.793623000E-2,-9.902098656E0,-1.959123611E-1,9.904426900E0
3.508920167E0,-8.075776696E-2,-9.918848038E0,-1.911267042E-1,9.921017973E0
3.511346053E0,-1.118644550E-1,-9.902098656E0,-1.863410622E-1,9.904483552E0
3.513771938E0,-9.272187948E-2,-9.904491425E0,-1.695913076E-1,9.906377185E0
3.516197824E0,-9.032905847E-2,-9.894919395E0,-1.935195327E-1,9.897223802E0
3.518623709E0,-1.118644550E-1,-9.866206169E0,-1.887338907E-1,9.868645211E0
3.521049594E0,-9.750752151E-2,-9.887741089E0,-1.935195327E-1,9.890115336E0
3.523475480E0,-9.750752151E-2,-9.894919395E0,-1.935195327E-1,9.897291921E0
3.525901365E0,-9.511470050E-2,-9.904491425E0,-1.719841212E-1,9.906441123E0
3.528327251E0,-7.357929647E-2,-9.914062500E0,-1.719841212E-1,9.915827132E0
3.530753136E0,-1.190429255E-1,-9.921240807E0,-1.959123611E-1,9.923888956E0
3.533179021E0,-1.094716340E-1,-9.899705887E0,-1.743769497E-1,9.901846697E0
3.535604907E0,-1.118644550E-1,-9.904491425E0,-1.911267042E-1,9.906966915E0
3.538030792E0,-1.118644550E-1,-9.909276962E0,-1.983051747E-1,9.911892277E0
3.540456678E0,-1.214357466E-1,-9.902098656E0,-1.887338907E-1,9.904641584E0
3.542882563E0,-9.990034252E-2,-9.906884193E0,-1.863410622E-1,9.909140099E0
3.545308449E0,-9.750752151E-2,-9.897313118E0,-1.767697781E-1,9.899371810E0
3.547734334E0,-1.166501045E-1,-9.906884193E0,-1.791625917E-1,9.909190729E0
3.550160219E0,-7.357929647E-2,-9.897313118E0,-1.911267042E-1,9.899431816E0
3.552586105E0,-9.511470050E-2,-9.911669731E0,-1.767697781E-1,9.913702195E0
3.555011938E0,-9.750752151E-2,-9.928419113E0,-1.839482337E-1,9.930601732E0
3.557437824E0,-1.142572835E-1,-9.911669731E0,-1.887338907E-1,9.914124877E0
3.559863761E0,-1.046859920E-1,-9.899705887E0,-1.887338907E-1,9.902058184E0
3.562289594E0,-9.990034252E-2,-9.892526627E0,-2.006980032E-1,9.895066590E0
3.564715532E0,-1.070788130E-1,-9.909276962E0,-1.719841212E-1,9.911347755E0
3.567141417E0,-7.836493850E-2,-9.926026344E0,-1.839482337E-1,9.928039938E0
3.569567303E0,-1.022931710E-1,-9.899705887E0,-1.887338907E-1,9.902033176E0
3.571993188E0,-1.477568001E-1,-9.911669731E0,-1.983051747E-1,9.914754353E0
3.574419074E0,-9.750752151E-2,-9.902098656E0,-1.983051747E-1,9.904564122E0
3.576844907E0,-9.032905847E-2,-9.885348320E0,-1.791625917E-1,9.887384385E0
3.579270792E0,-8.315058798E-2,-9.911669731E0,-1.887338907E-1,9.913815177E0
3.581696730E0,-6.640082598E-2,-9.904491425E0,-1.791625917E-1,9.906334271E0
3.584122563E0,-6.161518395E-2,-9.906884193E0,-1.863410622E-1,9.908828076E0
3.586548449E0,-1.214357466E-1,-9.921240807E0,-1.887338907E-1,9.923778830E0
3.588974386E0,-8.793623000E-2,-9.911669731E0,-1.911267042E-1,9.913902312E0
3.591400219E0,-9.032905847E-2,-9.894919395E0,-2.030908167E-1,9.897415575E0
3.593826157E0,-9.990034252E-2,-9.897313118E0,-2.102692872E-1,9.900050515E0
3.596251990E0,-1.070788130E-1,-9.899705887E0,-1.935195327E-1,9.902176141E0
3.598677928E0,-9.511470050E-2,-9.911669731E0,-1.887338907E-1,9.913922743E0
3.601103761E0,-1.166501045E-1,-9.923633575E0,-1.528415531E-1,9.925496014E0
3.603529646E0,-1.142572835E-1,-9.918848038E0,-1.887338907E-1,9.921301407E0
3.605955532E0,-1.166501045E-1,-9.890133858E0,-1.839482337E-1,9.892532129E0
3.608381417E0,-1.214357466E-1,-9.890133858E0,-2.006980032E-1,9.892915346E0
3.610807303E0,-1.166501045E-1,-9.887741089E0,-1.887338907E-1,9.890230107E0
3.613233188E0,-9.990034252E-2,-9.906884193E0,-1.863410622E-1,9.909140099E0
3.615659074E0,-8.793623000E-2,-9.923633575E0,-1.839482337E-1,9.925727836E0
3.618084959E0,-9.990034252E-2,-9.916455269E0,-1.839482337E-1,9.918664332E0
3.620510896E0,-9.750752151E-2,-9.923633575E0,-1.959123611E-1,9.926046177E0
3.622936730E0,-8.075776696E-2,-9.911669731E0,-1.935195327E-1,9.913887658E0
3.625362615E0,-9.750752151E-2,-9.906884193E0,-1.767697781E-1,9.908940897E0
3.627788501E0,-8.075776696E-2,-9.897313118E0,-1.839482337E-1,9.899351783E0
3.630214386E0,-7.836493850E-2,-9.914062500E0,-1.719841212E-1,9.915863798E0
3.632640271E0,-9.990034252E-2,-9.902098656E0,-1.815554202E-1,9.904266769E0
3.635066157E0,-1.238285750E-1,-9.899705887E0,-1.959123611E-1,9.902418483E0
3.637492042E0,-1.429711580E-1,-9.916455269E0,-1.935195327E-1,9.919373753E0
3.639917928E0,-1.118644550E-1,-9.914062500E0,-1.863410622E-1,9.916444519E0
3.642343813E0,-1.429711580E-1,-9.911669731E0,-1.719841212E-1,9.914192663E0
3.644769699E0,-9.990034252E-2,-9.906884193E0,-1.695913076E-1,9.908839272E0
3.647195584E0,-1.094716340E-1,-9.926026344E0,-1.767697781E-1,9.928203794E0
3.649621469E0,-9.032905847E-2,-9.906884193E0,-1.863410622E-1,9.909048226E0
3.652047355E0,-6.161518395E-2,-9.909276962E0,-1.839482337E-1,9.911175677E0
3.654473240E0,-1.022931710E-1,-9.906884193E0,-1.983051747E-1,9.909396715E0
3.656899126E0,-9.990034252E-2,-9.904491425E0,-1.935195327E-1,9.906885498E0
3.659325011E0,-9.990034252E-2,-9.887741089E0,-1.911267042E-1,9.890092686E0
3.661750896E0,-1.094716340E-1,-9.906884193E0,-1.791625917E-1,9.909108824E0
3.664176782E0,-9.272187948E-2,-9.906884193E0,-1.815554202E-1,9.908981488E0
3.666602667E0,-9.990034252E-2,-9.902098656E0,-1.959123611E-1,9.904540349E0
3.669028553E0,-9.272187948E-2,-9.904491425E0,-1.839482337E-1,9.906633368E0
3.671454438E0,-9.511470050E-2,-9.904491425E0,-1.863410622E-1,9.906700772E0
3.673880324E0,-7.597211748E-2,-9.899705887E0,-1.815554202E-1,9.901662021E0
3.676306209E0,-8.793623000E-2,-9.897313118E0,-1.887338907E-1,9.899503029E0
3.678732094E0,-8.075776696E-2,-9.914062500E0,-1.791625917E-1,9.916010100E0
3.681157980E0,-7.836493850E-2,-9.892526627E0,-1.935195327E-1,9.894729604E0
3.683583865E0,-1.094716340E-1,-9.885348320E0,-2.078764737E-1,9.888139768E0
3.686009751E0,-1.262213886E-1,-9.928419113E0,-1.839482337E-1,9.930925177E0
3.688435636E0,-1.070788130E-1,-9.909276962E0,-1.671984792E-1,9.911265869E0
3.690861521E0,-9.272187948E-2,-9.899705887E0,-1.791625917E-1,9.901761117E0
3.693287407E0,-1.046859920E-1,-9.904491425E0,-1.743769497E-1,9.906579473E0
3.695713292E0,-9.272187948E-2,-9.911669731E0,-1.935195327E-1,9.913992335E0
3.698139178E0,-1.046859920E-1,-9.894919395E0,-1.983051747E-1,9.897459974E0
3.700565063E0,-9.750752151E-2,-9.930811882E0,-1.839482337E-1,9.932993975E0
3.702990949E0,-9.990034252E-2,-9.897313118E0,-1.839482337E-1,9.899526453E0
3.705416834E0,-1.022931710E-1,-9.902098656E0,-1.671984792E-1,9.904038419E0
3.707842719E0,-1.046859920E-1,-9.909276962E0,-1.671984792E-1,9.911240306E0
3.710268605E0,-1.118644550E-1,-9.911669731E0,-1.935195327E-1,9.914189847E0
3.712694490E0,-8.554340899E-2,-9.909276962E0,-1.935195327E-1,9.911535572E0
3.715120376E0,-1.022931710E-1,-9.909276962E0,-1.983051747E-1,9.911788877E0
3.717546261E0,-9.272187948E-2,-9.930811882E0,-1.815554202E-1,9.932904125E0
3.719972146E0,-9.750752151E-2,-9.921240807E0,-1.911267042E-1,9.923560665E0
3.722398032E0,-1.190429255E-1,-9.909276962E0,-1.815554202E-1,9.911654933E0
3.724823917E0,-9.750752151E-2,-9.906884193E0,-1.743769497E-1,9.908898499E0
3.727249803E0,-7.836493850E-2,-9.918848038E0,-1.600200087E-1,9.920448269E0
3.729675688E0,-1.166501045E-1,-9.904491425E0,-1.863410622E-1,9.906930938E0
3.732101574E0,-1.070788130E-1,-9.914062500E0,-2.030908167E-1,9.916720577E0
3.734527459E0,-1.022931710E-1,-9.904491425E0,-2.054836452E-1,9.907150842E0
3.736953344E0,-8.793623000E-2,-9.933204651E0,-1.959123611E-1,9.935525606E0
3.739379230E0,-9.272187948E-2,-9.897313118E0,-1.839482337E-1,9.899456614E0
3.741805115E0,-8.793623000E-2,-9.902098656E0,-1.839482337E-1,9.904197470E0
3.744231001E0,-1.094716340E-1,-9.892526627E0,-1.791625917E-1,9.894754486E0
3.746656886E0,-1.046859920E-1,-9.897313118E0,-1.911267042E-1,9.899711891E0
3.749082771E0,-8.554340899E-2,-9.911669731E0,-1.815554202E-1,9.913701473E0
3.751508657E0,-1.022931710E-1,-9.902098656E0,-1.743769497E-1,9.904162206E0
3.753934542E0,-9.032905847E-2,-9.899705887E0,-1.959123611E-1,9.902056233E0
3.756360428E0,-1.022931710E-1,-9.921240807E0,-1.767697781E-1,9.923342712E0
3.758786313E0,-9.511470050E-2,-9.909276962E0,-1.911267042E-1,9.911576370E0
3.761212199E0,-9.272187948E-2,-9.902098656E0,-1.839482337E-1,9.904241116E0
3.763638084E0,-1.070788130E-1,-9.906884193E0,-1.863410622E-1,9.909215069E0
3.766063969E0,-8.315058798E-2,-9.926026344E0,-2.006980032E-1,9.928403331E0
3.768489855E0,-8.793623000E-2,-9.906884193E0,-1.983051747E-1,9.909258910E0
3.770915740E0,-1.046859920E-1,-9.906884193E0,-1.911267042E-1,9.909280650E0
3.773341626E0,-1.070788130E-1,-9.909276962E0,-1.815554202E-1,9.911518459E0
3.775767511E0,-8.793623000E-2,-9.914062500E0,-1.767697781E-1,9.916028216E0
3.778193396E0,-9.032905847E-2,-9.897313118E0,-1.863410622E-1,9.899479243E0
3.780619282E0,-1.118644550E-1,-9.911669731E0,-1.887338907E-1,9.914097589E0
3.783045167E0,-8.554340899E-2,-9.904491425E0,-1.959123611E-1,9.906798156E0
3.785471053E0,-7.118647546E-2,-9.904491425E0,-2.078764737E-1,9.906928410E0
3.787896938E0,-1.046859920E-1,-9.918848038E0,-1.959123611E-1,9.921334951E0
3.790322824E0,-9.750752151E-2,-9.904491425E0,-1.911267042E-1,9.906815205E0
3.792748709E0,-9.750752151E-2,-9.897313118E0,-2.030908167E-1,9.899876795E0
3.795174594E0,-9.750752151E-2,-9.906884193E0,-1.935195327E-1,9.909253854E0
3.797600480E0,-1.070788130E-1,-9.904491425E0,-1.911267042E-1,9.906914034E0
3.800026365E0,-1.046859920E-1,-9.904491425E0,-1.791625917E-1,9.906664866E0
3.802452251E0,-9.990034252E-2,-9.909276962E0,-1.911267042E-1,9.911623450E0
3.804878136E0,-9.032905847E-2,-9.930811882E0,-1.791625917E-1,9.932838628E0
3.807304021E0,-1.094716340E-1,-9.926026344E0,-1.911267042E-1,9.928469794E0
3.809729907E0,-1.046859920E-1,-9.916455269E0,-1.815554202E-1,9.918669600E0
3.812155792E0,-6.161518395E-2,-9.906884193E0,-1.815554202E-1,9.908739235E0
3.814581678E0,-8.793623000E-2,-9.909276962E0,-1.935195327E-1,9.911556513E0
3.817007563E0,-8.554340899E-2,-9.899705887E0,-1.839482337E-1,9.901784247E0
3.819433449E0,-1.333998591E-1,-9.887741089E0,-1.887338907E-1,9.890441843E0
3.821859334E0,-1.070788130E-1,-9.916455269E0,-1.935195327E-1,9.918921352E0
3.824285219E0,-8.075776696E-2,-9.894919395E0,-1.911267042E-1,9.897094578E0
3.826711105E0,-1.046859920E-1,-9.899705887E0,-1.959123611E-1,9.902197607E0
3.829136990E0,-9.032905847E-2,-9.890133858E0,-2.054836452E-1,9.892680657E0
3.831562876E0,-9.272187948E-2,-9.890133858E0,-1.935195327E-1,9.892461518E0
3.833988761E0,-9.511470050E-2,-9.933204651E0,-1.959123611E-1,9.935591734E0
3.836414646E0,-1.190429255E-1,-9.914062500E0,-1.935195327E-1,9.916665583E0
3.838840532E0,-1.094716340E-1,-9.904491425E0,-1.815554202E-1,9.906760156E0
3.841266417E0,-9.511470050E-2,-9.923633575E0,-1.863410622E-1,9.925838662E0
3.843692303E0,-9.750752151E-2,-9.904491425E0,-1.767697781E-1,9.906548625E0
3.846118188E0,-9.032905847E-2,-9.906884193E0,-1.863410622E-1,9.909048226E0
3.848544074E0,-1.118644550E-1,-9.914062500E0,-1.863410622E-1,9.916444519E0
3.850969959E0,-1.381855011E-1,-9.897313118E0,-1.839482337E-1,9.899986825E0
3.853395844E0,-1.286142170E-1,-9.928419113E0,-1.767697781E-1,9.930825507E0
3.855821730E0,-1.094716340E-1,-9.899705887E0,-1.791625917E-1,9.901932131E0
3.858247615E0,-1.094716340E-1,-9.911669731E0,-1.863410622E-1,9.914025615E0
3.860673501E0,-1.142572835E-1,-9.918848038E0,-1.839482337E-1,9.921211523E0
3.863099386E0,-9.272187948E-2,-9.914062500E0,-2.006980032E-1,9.916527229E0
3.865525271E0,-9.272187948E-2,-9.921240807E0,-1.887338907E-1,9.923468999E0
3.867951157E0,-1.190429255E-1,-9.935597420E0,-2.006980032E-1,9.938337235E0
3.870377042E0,-1.118644550E-1,-9.899705887E0,-1.839482337E-1,9.902046620E0
3.872802928E0,-1.046859920E-1,-9.911669731E0,-1.767697781E-1,9.913798645E0
3.875228813E0,-7.836493850E-2,-9.904491425E0,-2.078764737E-1,9.906982592E0
3.877654699E0,-1.070788130E-1,-9.906884193E0,-1.935195327E-1,9.909352658E0
3.880080584E0,-9.272187948E-2,-9.890133858E0,-1.719841212E-1,9.892063668E0
