"Time (s)","Acceleration x (m/s^2)","Acceleration y (m/s^2)","Acceleration z (m/s^2)","Absolute acceleration (m/s^2)"
2.588902300E-2,-9.747162819E0,-1.983051747E-1,-2.153540403E-1,9.751558097E0
2.833313800E-2,-9.787840843E0,-8.793623000E-2,-3.158525825E-1,9.793330588E0
3.077636700E-2,-9.823733330E0,-5.922235921E-2,-3.445664644E-1,9.829952689E0
3.322053400E-2,-9.859625816E0,-3.490529954E-1,-4.235295951E-1,9.874889192E0
3.566542900E-2,-9.735198975E0,-1.094716340E-1,-4.067798555E-1,9.744308747E0
3.810954400E-2,-9.854840279E0,-1.839482337E-1,-2.775674164E-1,9.860464367E0
4.055282500E-2,-9.835697174E0,-1.624128371E-1,-2.392822653E-1,9.839947806E0
4.299699200E-2,-9.840482712E0,-1.959123611E-1,-3.349951804E-1,9.848131976E0
4.544188800E-2,-9.768698692E0,-1.286142170E-1,-3.302095234E-1,9.775124249E0
4.788600200E-2,-9.888339996E0,-1.839482337E-1,-2.751746178E-1,9.893878204E0
5.032923200E-2,-9.771091461E0,-2.198405862E-1,-3.158525825E-1,9.778666631E0
5.277339800E-2,-9.732806206E0,-1.429711580E-1,-3.732803464E-1,9.741011016E0
5.521829400E-2,-9.873982430E0,-2.174477577E-1,-4.761717021E-1,9.887848706E0
5.766240900E-2,-9.785448074E0,-1.695913076E-1,-4.570291340E-1,9.797582909E0
6.010569000E-2,-9.780662537E0,-1.671984792E-1,-3.589234054E-1,9.788674118E0
6.254985700E-2,-9.873982430E0,-2.198405862E-1,-3.732803464E-1,9.883481022E0
6.499475200E-2,-9.790233612E0,-1.743769497E-1,-3.900300860E-1,9.799551264E0
6.743886700E-2,-9.814162254E0,-1.959123611E-1,-4.187439680E-1,9.825044983E0
6.988214800E-2,-9.830911636E0,-1.935195327E-1,-3.924229145E-1,9.840643737E0
7.232626300E-2,-9.826126099E0,-1.815554202E-1,-4.331009090E-1,9.837341759E0
7.477115900E-2,-9.795019150E0,-1.671984792E-1,-3.852444589E-1,9.804017991E0
7.721527300E-2,-9.833304405E0,-1.863410622E-1,-3.828516304E-1,9.842518676E0
7.965855400E-2,-9.826126099E0,-1.767697781E-1,-4.283152521E-1,9.837045065E0
8.210272100E-2,-9.821340561E0,-1.983051747E-1,-3.637090325E-1,9.830073225E0
8.454761700E-2,-9.809376717E0,-1.935195327E-1,-3.780659735E-1,9.818566864E0
8.699173200E-2,-9.828518867E0,-2.222333997E-1,-3.876372576E-1,9.838670309E0
8.943501300E-2,-9.823733330E0,-1.815554202E-1,-4.115654826E-1,9.834026899E0
9.187912700E-2,-9.809376717E0,-2.030908167E-1,-3.445664644E-1,9.817527362E0
9.432407500E-2,-9.835697174E0,-1.983051747E-1,-3.900300860E-1,9.845424689E0
9.676819000E-2,-9.802198410E0,-1.600200087E-1,-4.115654826E-1,9.812139737E0
9.921141900E-2,-9.823733330E0,-1.791625917E-1,-3.876372576E-1,9.833010648E0
1.016555860E-1,-9.816555023E0,-1.911267042E-1,-4.091726840E-1,9.826937683E0
1.041004820E-1,-9.806983948E0,-1.887338907E-1,-3.948157430E-1,9.816742540E0
1.065445960E-1,-9.814162254E0,-1.911267042E-1,-4.019941986E-1,9.824251091E0
1.089878770E-1,-9.833304405E0,-1.791625917E-1,-3.996013701E-1,9.843051154E0
1.114320440E-1,-9.806983948E0,-1.743769497E-1,-3.924229145E-1,9.816381065E0
1.138769400E-1,-9.799804688E0,-1.695913076E-1,-3.996013701E-1,9.809414579E0
1.163210540E-1,-9.830911636E0,-1.743769497E-1,-3.996013701E-1,9.840574789E0
1.187642840E-1,-9.814162254E0,-1.959123611E-1,-4.043870270E-1,9.824443561E0
1.212084500E-1,-9.799804688E0,-1.791625917E-1,-3.924229145E-1,9.809294923E0
1.236533460E-1,-9.809376717E0,-1.839482337E-1,-3.996013701E-1,9.819235702E0
1.260974610E-1,-9.806983948E0,-2.006980032E-1,-4.283152521E-1,9.818384174E0
1.285407420E-1,-9.814162254E0,-2.054836452E-1,-3.684946895E-1,9.823227200E0
1.309849090E-1,-9.838089943E0,-2.054836452E-1,-3.924229145E-1,9.848057321E0
1.334298040E-1,-9.823733330E0,-1.767697781E-1,-3.996013701E-1,9.833446260E0
1.358739190E-1,-9.835697174E0,-1.791625917E-1,-3.661018610E-1,9.844138800E0
1.383171480E-1,-9.806983948E0,-2.006980032E-1,-3.924229145E-1,9.816883904E0
1.407613150E-1,-9.821340561E0,-1.959123611E-1,-4.139583111E-1,9.832012691E0
1.432062110E-1,-9.792626381E0,-1.767697781E-1,-3.996013701E-1,9.802370134E0
1.456503250E-1,-9.802198410E0,-1.983051747E-1,-3.900300860E-1,9.811959136E0
1.480936070E-1,-9.823733330E0,-1.887338907E-1,-4.019941986E-1,9.833766133E0
1.505377730E-1,-9.816555023E0,-1.815554202E-1,-3.684946895E-1,9.825146474E0
1.529826690E-1,-9.806983948E0,-1.767697781E-1,-3.996013701E-1,9.816713450E0
1.554267840E-1,-9.806983948E0,-1.767697781E-1,-4.163511395E-1,9.817409535E0
1.578700650E-1,-9.811769485E0,-1.815554202E-1,-3.732803464E-1,9.820545862E0
1.603141790E-1,-9.826126099E0,-1.719841212E-1,-3.996013701E-1,9.835751822E0
1.627591270E-1,-9.818947792E0,-1.815554202E-1,-3.996013701E-1,9.828752686E0
1.652032420E-1,-9.809376717E0,-1.648056656E-1,-3.828516304E-1,9.818228346E0
1.676464710E-1,-9.816555023E0,-1.743769497E-1,-3.780659735E-1,9.825380080E0
1.700906380E-1,-9.806983948E0,-1.791625917E-1,-4.235295951E-1,9.817759964E0
1.725355340E-1,-9.780662537E0,-1.887338907E-1,-3.924229145E-1,9.790351162E0
1.749796480E-1,-9.802198410E0,-1.911267042E-1,-3.756731451E-1,9.811256464E0
1.774229290E-1,-9.828518867E0,-1.815554202E-1,-4.115654826E-1,9.838807430E0
1.798670960E-1,-9.814162254E0,-1.791625917E-1,-3.948157430E-1,9.823734497E0
1.823119920E-1,-9.802198410E0,-1.911267042E-1,-4.043870270E-1,9.812397870E0
1.847561070E-1,-9.816555023E0,-1.671984792E-1,-4.019941986E-1,9.826205127E0
1.871993360E-1,-9.816555023E0,-1.815554202E-1,-3.948157430E-1,9.826168855E0
1.896435020E-1,-9.804591179E0,-1.695913076E-1,-3.708875179E-1,9.813069191E0
1.920883980E-1,-9.823733330E0,-1.815554202E-1,-3.996013701E-1,9.833533452E0
1.945325130E-1,-9.814162254E0,-2.006980032E-1,-3.924229145E-1,9.824054977E0
1.969757940E-1,-9.804591179E0,-2.150549293E-1,-3.732803464E-1,9.814050898E0
1.994199610E-1,-9.809376717E0,-1.839482337E-1,-3.924229145E-1,9.818946189E0
2.018648570E-1,-9.814162254E0,-1.863410622E-1,-3.876372576E-1,9.823582157E0
2.043089710E-1,-9.809376717E0,-1.767697781E-1,-3.972085714E-1,9.819006761E0
2.067522000E-1,-9.804591179E0,-1.911267042E-1,-4.043870270E-1,9.814788152E0
2.091963670E-1,-9.787840843E0,-1.839482337E-1,-3.948157430E-1,9.797527484E0
2.116412630E-1,-9.814162254E0,-1.815554202E-1,-4.091726840E-1,9.824365904E0
2.140853770E-1,-9.795019150E0,-2.102692872E-1,-4.139583111E-1,9.806017275E0
2.165286590E-1,-9.792626381E0,-1.887338907E-1,-4.163511395E-1,9.803290274E0
2.189728250E-1,-9.818947792E0,-1.839482337E-1,-3.876372576E-1,9.828318032E0
2.214177210E-1,-9.799804688E0,-1.911267042E-1,-3.972085714E-1,9.809713348E0
2.238618360E-1,-9.797411919E0,-1.863410622E-1,-3.804588020E-1,9.806566789E0
2.263051170E-1,-9.826126099E0,-1.911267042E-1,-3.924229145E-1,9.835816146E0
2.287492320E-1,-9.811769485E0,-1.863410622E-1,-4.067798555E-1,9.821965856E0
2.311941790E-1,-9.802198410E0,-1.911267042E-1,-3.876372576E-1,9.811721853E0
2.336381900E-1,-9.795019150E0,-1.695913076E-1,-3.972085714E-1,9.804536501E0
2.360815230E-1,-9.818947792E0,-1.695913076E-1,-3.852444589E-1,9.827965723E0
2.385256900E-1,-9.809376717E0,-1.671984792E-1,-3.852444589E-1,9.818362399E0
2.409705860E-1,-9.823733330E0,-1.911267042E-1,-3.804588020E-1,9.832955550E0
2.434147000E-1,-9.821340561E0,-1.863410622E-1,-3.924229145E-1,9.830943452E0
2.458579820E-1,-9.821340561E0,-1.624128371E-1,-3.948157430E-1,9.830614824E0
2.483021480E-1,-9.806983948E0,-1.887338907E-1,-4.043870270E-1,9.817132142E0
2.507470440E-1,-9.816555023E0,-1.983051747E-1,-4.043870270E-1,9.826881821E0
2.531911590E-1,-9.811769485E0,-1.671984792E-1,-3.900300860E-1,9.820941871E0
2.556343880E-1,-9.797411919E0,-1.911267042E-1,-3.900300860E-1,9.807034883E0
2.580785540E-1,-9.806983948E0,-1.719841212E-1,-4.187439680E-1,9.817426302E0
2.605234500E-1,-9.826126099E0,-1.935195327E-1,-4.115654826E-1,9.836645265E0
2.629675650E-1,-9.811769485E0,-1.911267042E-1,-3.804588020E-1,9.821002940E0
2.654108460E-1,-9.799804688E0,-1.935195327E-1,-3.948157430E-1,9.809663664E0
2.678550130E-1,-9.804591179E0,-1.767697781E-1,-3.852444589E-1,9.813748980E0
2.702999090E-1,-9.795019150E0,-1.600200087E-1,-4.019941986E-1,9.804570663E0
2.727440230E-1,-9.823733330E0,-1.983051747E-1,-4.091726840E-1,9.834250544E0
2.751872520E-1,-9.816555023E0,-1.887338907E-1,-4.043870270E-1,9.826693334E0
2.776314190E-1,-9.804591179E0,-2.006980032E-1,-3.852444589E-1,9.814209146E0
2.800763150E-1,-9.821340561E0,-1.863410622E-1,-3.900300860E-1,9.830848228E0
2.825204290E-1,-9.799804688E0,-1.767697781E-1,-3.996013701E-1,9.809541311E0
2.849637110E-1,-9.814162254E0,-1.791625917E-1,-4.019941986E-1,9.824025617E0
2.874078770E-1,-9.806983948E0,-1.695913076E-1,-3.924229145E-1,9.816297220E0
2.898527730E-1,-9.816555023E0,-1.695913076E-1,-4.043870270E-1,9.826344315E0
2.922968880E-1,-9.804591179E0,-1.767697781E-1,-4.163511395E-1,9.815019308E0
2.947401170E-1,-9.799804688E0,-1.671984792E-1,-4.091726840E-1,9.809768067E0
2.971842840E-1,-9.811769485E0,-1.815554202E-1,-3.996013701E-1,9.821581546E0
2.996291790E-1,-9.818947792E0,-1.911267042E-1,-3.900300860E-1,9.828549671E0
3.020732940E-1,-9.814162254E0,-1.815554202E-1,-4.067798555E-1,9.824266536E0
3.045165750E-1,-9.830911636E0,-1.863410622E-1,-3.972085714E-1,9.840697193E0
3.069607420E-1,-9.809376717E0,-1.576271951E-1,-3.852444589E-1,9.818204072E0
3.094056380E-1,-9.804591179E0,-1.935195327E-1,-4.043870270E-1,9.814835040E0
3.118497520E-1,-9.814162254E0,-1.839482337E-1,-4.067798555E-1,9.824311047E0
3.142930340E-1,-9.826126099E0,-1.935195327E-1,-3.804588020E-1,9.835392865E0
3.167372000E-1,-9.806983948E0,-1.935195327E-1,-3.876372576E-1,9.816549628E0
3.191820960E-1,-9.802198410E0,-1.911267042E-1,-3.780659735E-1,9.811348377E0
3.216262110E-1,-9.802198410E0,-1.935195327E-1,-3.996013701E-1,9.812248709E0
3.240694400E-1,-9.804591179E0,-2.006980032E-1,-3.972085714E-1,9.814686063E0
3.265136070E-1,-9.787840843E0,-1.887338907E-1,-3.996013701E-1,9.797812516E0
3.289585020E-1,-9.802198410E0,-1.863410622E-1,-3.852444589E-1,9.811535555E0
3.314026170E-1,-9.816555023E0,-2.030908167E-1,-3.924229145E-1,9.826494499E0
3.338458980E-1,-9.816555023E0,-1.935195327E-1,-4.019941986E-1,9.826688235E0
3.362900650E-1,-9.814162254E0,-1.935195327E-1,-4.091726840E-1,9.824594284E0
3.387349610E-1,-9.821340561E0,-1.959123611E-1,-3.828516304E-1,9.830752130E0
3.411790750E-1,-9.811769485E0,-1.911267042E-1,-3.732803464E-1,9.820727472E0
3.436223570E-1,-9.835697174E0,-1.983051747E-1,-4.043870270E-1,9.846003895E0
3.460664710E-1,-9.795019150E0,-2.006980032E-1,-3.996013701E-1,9.805221114E0
3.485113670E-1,-9.814162254E0,-1.935195327E-1,-3.804588020E-1,9.823440307E0
3.509554820E-1,-9.799804688E0,-1.935195327E-1,-3.876372576E-1,9.809377369E0
3.533987630E-1,-9.804591179E0,-1.935195327E-1,-3.780659735E-1,9.813785807E0
3.558429290E-1,-9.809376717E0,-1.911267042E-1,-3.852444589E-1,9.818799024E0
3.582878250E-1,-9.821340561E0,-2.006980032E-1,-3.972085714E-1,9.831418247E0
3.607319400E-1,-9.802198410E0,-1.959123611E-1,-3.876372576E-1,9.811816242E0
3.631752210E-1,-9.818947792E0,-1.767697781E-1,-3.780659735E-1,9.827813448E0
3.656193360E-1,-9.811769485E0,-1.959123611E-1,-3.876372576E-1,9.821377945E0
3.680642840E-1,-9.809376717E0,-1.815554202E-1,-4.019941986E-1,9.819288838E0
3.705083980E-1,-9.835697174E0,-1.935195327E-1,-3.780659735E-1,9.844862751E0
3.729516270E-1,-9.811769485E0,-1.935195327E-1,-3.900300860E-1,9.821425238E0
3.753957940E-1,-9.828518867E0,-1.815554202E-1,-3.828516304E-1,9.837648137E0
3.778406900E-1,-9.804591179E0,-1.743769497E-1,-3.852444589E-1,9.813706170E0
3.802848040E-1,-9.804591179E0,-1.695913076E-1,-3.780659735E-1,9.813343124E0
3.827280860E-1,-9.809376717E0,-1.743769497E-1,-4.067798555E-1,9.819355821E0
3.851722520E-1,-9.797411919E0,-1.839482337E-1,-3.876372576E-1,9.806802736E0
3.876171480E-1,-9.809376717E0,-1.791625917E-1,-3.996013701E-1,9.819147216E0
3.900612630E-1,-9.792626381E0,-1.863410622E-1,-4.019941986E-1,9.802645243E0
3.925044920E-1,-9.809376717E0,-1.959123611E-1,-3.972085714E-1,9.819370034E0
3.949486590E-1,-9.795019150E0,-1.911267042E-1,-3.900300860E-1,9.804644462E0
3.973935540E-1,-9.804591179E0,-1.767697781E-1,-3.876372576E-1,9.813843201E0
3.998376690E-1,-9.833304405E0,-1.863410622E-1,-4.043870270E-1,9.843379876E0
4.022809500E-1,-9.823733330E0,-1.743769497E-1,-4.091726840E-1,9.833797137E0
4.047251170E-1,-9.799804688E0,-1.791625917E-1,-3.900300860E-1,9.809199489E0
4.071700130E-1,-9.795019150E0,-1.839482337E-1,-3.876372576E-1,9.804412259E0
4.096141270E-1,-9.811769485E0,-1.767697781E-1,-4.211367965E-1,9.822394015E0
4.120573570E-1,-9.816555023E0,-1.815554202E-1,-3.852444589E-1,9.825788935E0
4.145015230E-1,-9.802198410E0,-1.959123611E-1,-3.876372576E-1,9.811816242E0
4.169464710E-1,-9.809376717E0,-1.839482337E-1,-3.948157430E-1,9.819042112E0
4.193904820E-1,-9.814162254E0,-1.815554202E-1,-3.852444589E-1,9.823398415E0
4.218338150E-1,-9.811769485E0,-1.911267042E-1,-3.900300860E-1,9.821378382E0
4.242779820E-1,-9.818947792E0,-1.815554202E-1,-3.852444589E-1,9.828179455E0
4.267228770E-1,-9.804591179E0,-1.552343667E-1,-4.091726840E-1,9.814353172E0
4.291669920E-1,-9.811769485E0,-1.719841212E-1,-3.996013701E-1,9.821409279E0
4.316102730E-1,-9.804591179E0,-1.815554202E-1,-3.948157430E-1,9.814216730E0
4.340544400E-1,-9.811769485E0,-1.671984792E-1,-3.780659735E-1,9.820474003E0
4.364993360E-1,-9.809376717E0,-1.863410622E-1,-3.708875179E-1,9.818154211E0
4.389434500E-1,-9.802198410E0,-1.935195327E-1,-4.043870270E-1,9.812444769E0
4.413866790E-1,-9.821340561E0,-1.983051747E-1,-3.948157430E-1,9.831273306E0
4.438308460E-1,-9.792626381E0,-1.839482337E-1,-3.972085714E-1,9.802404962E0
4.462757420E-1,-9.830911636E0,-1.600200087E-1,-3.852444589E-1,9.839758295E0
4.487198570E-1,-9.833304405E0,-1.959123611E-1,-3.948157430E-1,9.843177162E0
4.511631380E-1,-9.811769485E0,-1.959123611E-1,-3.972085714E-1,9.821760369E0
4.536073040E-1,-9.811769485E0,-1.863410622E-1,-4.115654826E-1,9.822165218E0
4.560522000E-1,-9.818947792E0,-2.030908167E-1,-3.828516304E-1,9.828507363E0
4.584963150E-1,-9.811769485E0,-1.911267042E-1,-3.852444589E-1,9.821189498E0
4.609395440E-1,-9.799804688E0,-2.006980032E-1,-3.876372576E-1,9.809521611E0
4.633837110E-1,-9.809376717E0,-1.671984792E-1,-4.187439680E-1,9.819733877E0
4.658286070E-1,-9.823733330E0,-1.791625917E-1,-4.043870270E-1,9.833685201E0
4.682727210E-1,-9.802198410E0,-2.006980032E-1,-4.259224236E-1,9.813500052E0
4.707160020E-1,-9.821340561E0,-1.719841212E-1,-3.876372576E-1,9.830491930E0
4.731601690E-1,-9.821340561E0,-1.839482337E-1,-3.924229145E-1,9.830898388E0
4.756050650E-1,-9.814162254E0,-1.935195327E-1,-3.876372576E-1,9.823720945E0
4.780491790E-1,-9.802198410E0,-1.935195327E-1,-3.756731451E-1,9.811303369E0
4.804924610E-1,-9.821340561E0,-1.935195327E-1,-4.091726840E-1,9.831764974E0
4.829365750E-1,-9.809376717E0,-2.030908167E-1,-3.852444589E-1,9.819039196E0
4.853815230E-1,-9.809376717E0,-1.767697781E-1,-3.852444589E-1,9.818530054E0
4.878256380E-1,-9.802198410E0,-1.839482337E-1,-3.972085714E-1,9.811967452E0
4.902688670E-1,-9.818947792E0,-1.767697781E-1,-3.900300860E-1,9.828280967E0
4.927130340E-1,-9.818947792E0,-1.911267042E-1,-3.996013701E-1,9.828934144E0
4.951579290E-1,-9.818947792E0,-1.863410622E-1,-4.019941986E-1,9.828939824E0
4.976020440E-1,-9.814162254E0,-1.767697781E-1,-4.115654826E-1,9.824378579E0
5.000453250E-1,-9.816555023E0,-1.839482337E-1,-4.115654826E-1,9.826900611E0
5.024894920E-1,-9.802198410E0,-1.911267042E-1,-4.139583111E-1,9.812796980E0
5.049343880E-1,-9.809376717E0,-1.839482337E-1,-4.115654826E-1,9.819729867E0
5.073785020E-1,-9.806983948E0,-1.863410622E-1,-4.067798555E-1,9.817185289E0
5.098217320E-1,-9.799804688E0,-1.815554202E-1,-4.067798555E-1,9.809923758E0
5.122658980E-1,-9.814162254E0,-1.983051747E-1,-3.996013701E-1,9.824295748E0
5.147107940E-1,-9.821340561E0,-1.671984792E-1,-4.115654826E-1,9.831381993E0
5.171549090E-1,-9.838089943E0,-1.767697781E-1,-4.067798555E-1,9.848082612E0
5.195981900E-1,-9.828518867E0,-1.863410622E-1,-3.972085714E-1,9.838306804E0
5.220423570E-1,-9.816555023E0,-1.648056656E-1,-3.996013701E-1,9.826067102E0
5.244872520E-1,-9.826126099E0,-1.767697781E-1,-3.804588020E-1,9.835077557E0
5.269313670E-1,-9.804591179E0,-1.935195327E-1,-3.804588020E-1,9.813878280E0
5.293746480E-1,-9.821340561E0,-1.839482337E-1,-3.852444589E-1,9.830614460E0
5.318187630E-1,-9.816555023E0,-2.102692872E-1,-3.924229145E-1,9.826645483E0
5.342637110E-1,-9.814162254E0,-1.887338907E-1,-3.924229145E-1,9.823817841E0
5.367078250E-1,-9.814162254E0,-1.863410622E-1,-4.043870270E-1,9.824257357E0
5.391510540E-1,-9.799804688E0,-1.887338907E-1,-4.163511395E-1,9.810460777E0
5.415952210E-1,-9.799804688E0,-1.959123611E-1,-3.924229145E-1,9.809615146E0
5.440401170E-1,-9.823733330E0,-2.030908167E-1,-3.972085714E-1,9.833857690E0
5.464842320E-1,-9.806983948E0,-1.863410622E-1,-3.828516304E-1,9.816222925E0
5.489275130E-1,-9.799804688E0,-1.863410622E-1,-4.043870270E-1,9.809914565E0
5.513716790E-1,-9.799804688E0,-2.054836452E-1,-3.924229145E-1,9.809810966E0
5.538165750E-1,-9.802198410E0,-1.935195327E-1,-4.115654826E-1,9.812743226E0
5.562606900E-1,-9.818947792E0,-1.863410622E-1,-3.852444589E-1,9.828269025E0
5.587039190E-1,-9.821340561E0,-1.863410622E-1,-3.780659735E-1,9.830380831E0
5.611480860E-1,-9.814162254E0,-1.935195327E-1,-4.067798555E-1,9.824494919E0
5.635929820E-1,-9.818947792E0,-1.863410622E-1,-4.019941986E-1,9.828939824E0
5.660370960E-1,-9.833304405E0,-2.030908167E-1,-3.900300860E-1,9.843131863E0
5.684803770E-1,-9.826126099E0,-1.791625917E-1,-3.996013701E-1,9.835879960E0
5.709245440E-1,-9.816555023E0,-1.959123611E-1,-4.067798555E-1,9.826932585E0
5.733694400E-1,-9.828518867E0,-1.959123611E-1,-4.139583111E-1,9.839183211E0
5.758135540E-1,-9.816555023E0,-1.911267042E-1,-4.043870270E-1,9.826739582E0
5.782568360E-1,-9.845269203E0,-1.839482337E-1,-3.948157430E-1,9.854899396E0
5.807009500E-1,-9.802198410E0,-1.863410622E-1,-3.876372576E-1,9.811629799E0
5.831458980E-1,-9.830911636E0,-1.743769497E-1,-4.043870270E-1,9.840770284E0
5.855899090E-1,-9.795019150E0,-1.887338907E-1,-3.948157430E-1,9.804789651E0
5.880332420E-1,-9.818947792E0,-1.935195327E-1,-4.043870270E-1,9.829176691E0
5.904774090E-1,-9.809376717E0,-1.863410622E-1,-3.756731451E-1,9.818336156E0
5.929223040E-1,-9.809376717E0,-1.959123611E-1,-3.804588020E-1,9.818706744E0
5.953664190E-1,-9.814162254E0,-2.006980032E-1,-3.780659735E-1,9.823491962E0
5.978097000E-1,-9.797411919E0,-1.863410622E-1,-3.948157430E-1,9.807134279E0
6.002538670E-1,-9.809376717E0,-1.839482337E-1,-4.019941986E-1,9.819333371E0
6.026987630E-1,-9.809376717E0,-1.791625917E-1,-4.091726840E-1,9.819541389E0
6.051428770E-1,-9.828518867E0,-1.863410622E-1,-3.948157430E-1,9.838210487E0
6.075861070E-1,-9.802198410E0,-1.839482337E-1,-3.828516304E-1,9.811396740E0
6.100302730E-1,-9.811769485E0,-2.054836452E-1,-3.684946895E-1,9.820836640E0
6.124751690E-1,-9.809376717E0,-1.911267042E-1,-4.067798555E-1,9.819667552E0
6.149192840E-1,-9.814162254E0,-1.815554202E-1,-4.091726840E-1,9.824365904E0
6.173625650E-1,-9.823733330E0,-1.767697781E-1,-4.043870270E-1,9.833641897E0
6.198067320E-1,-9.806983948E0,-1.815554202E-1,-4.115654826E-1,9.817295079E0
6.222516270E-1,-9.811769485E0,-1.983051747E-1,-4.139583111E-1,9.822500031E0
6.246957420E-1,-9.821340561E0,-1.935195327E-1,-3.972085714E-1,9.831274326E0
6.271389710E-1,-9.816555023E0,-2.006980032E-1,-3.948157430E-1,9.826541186E0
6.295831380E-1,-9.811769485E0,-1.743769497E-1,-3.876372576E-1,9.820971968E0
6.320280860E-1,-9.799804688E0,-1.863410622E-1,-3.876372576E-1,9.809238378E0
6.344722000E-1,-9.804591179E0,-1.624128371E-1,-3.900300860E-1,9.813689907E0
6.369154290E-1,-9.816555023E0,-1.767697781E-1,-3.972085714E-1,9.826178033E0
6.393595960E-1,-9.795019150E0,-1.695913076E-1,-4.091726840E-1,9.805028488E0
6.418044920E-1,-9.835697174E0,-1.815554202E-1,-3.804588020E-1,9.844727024E0
6.442486070E-1,-9.811769485E0,-1.887338907E-1,-3.924229145E-1,9.821427425E0
6.466918880E-1,-9.828518867E0,-1.959123611E-1,-4.019941986E-1,9.838687114E0
6.491360540E-1,-9.811769485E0,-1.767697781E-1,-3.948157430E-1,9.821300701E0
6.515809500E-1,-9.828518867E0,-1.959123611E-1,-3.900300860E-1,9.838205540E0
6.540250650E-1,-9.814162254E0,-1.791625917E-1,-3.852444589E-1,9.823354482E0
6.564682940E-1,-9.804591179E0,-1.791625917E-1,-3.996013701E-1,9.814366443E0
6.589124610E-1,-9.814162254E0,-1.911267042E-1,-3.996013701E-1,9.824153471E0
6.613573570E-1,-9.818947792E0,-1.719841212E-1,-3.996013701E-1,9.828580545E0
6.638014710E-1,-9.809376717E0,-1.863410622E-1,-3.828516304E-1,9.818613442E0
6.662447520E-1,-9.816555023E0,-1.935195327E-1,-4.115654826E-1,9.827084434E0
6.686889190E-1,-9.811769485E0,-2.006980032E-1,-3.900300860E-1,9.821569304E0
6.711338150E-1,-9.821340561E0,-2.054836452E-1,-4.019941986E-1,9.831711615E0
6.735779290E-1,-9.811769485E0,-1.959123611E-1,-3.900300860E-1,9.821472678E0
6.760212110E-1,-9.826126099E0,-1.791625917E-1,-3.924229145E-1,9.835590937E0
6.784653250E-1,-9.814162254E0,-1.839482337E-1,-4.043870270E-1,9.824212262E0
6.809102730E-1,-9.811769485E0,-1.911267042E-1,-3.948157430E-1,9.821569596E0
6.833543880E-1,-9.816555023E0,-1.935195327E-1,-3.972085714E-1,9.826493626E0
6.857976170E-1,-9.797411919E0,-1.887338907E-1,-4.043870270E-1,9.807570018E0
6.882417840E-1,-9.802198410E0,-1.863410622E-1,-3.924229145E-1,9.811820035E0
6.906866790E-1,-9.811769485E0,-1.719841212E-1,-3.996013701E-1,9.821409279E0
6.931307940E-1,-9.811769485E0,-1.839482337E-1,-3.780659735E-1,9.820773456E0
6.955740750E-1,-9.814162254E0,-1.719841212E-1,-3.924229145E-1,9.823510321E0
6.980182420E-1,-9.818947792E0,-1.791625917E-1,-3.948157430E-1,9.828515374E0
7.004631380E-1,-9.809376717E0,-1.887338907E-1,-3.828516304E-1,9.818659146E0
7.029072520E-1,-9.811769485E0,-1.863410622E-1,-3.900300860E-1,9.821286418E0
7.053504820E-1,-9.818947792E0,-1.695913076E-1,-3.996013701E-1,9.828538966E0
7.077946480E-1,-9.806983948E0,-1.743769497E-1,-4.067798555E-1,9.816965484E0
7.102395440E-1,-9.806983948E0,-1.935195327E-1,-3.900300860E-1,9.816644408E0
7.126836590E-1,-9.802198410E0,-1.935195327E-1,-3.948157430E-1,9.812054981E0
7.151269400E-1,-9.811769485E0,-1.983051747E-1,-4.019941986E-1,9.822003091E0
7.175711070E-1,-9.816555023E0,-1.863410622E-1,-4.115654826E-1,9.826945693E0
7.200160020E-1,-9.835697174E0,-1.791625917E-1,-3.780659735E-1,9.844591003E0
7.224601170E-1,-9.811769485E0,-1.791625917E-1,-3.780659735E-1,9.820684984E0
7.249033980E-1,-9.804591179E0,-1.935195327E-1,-4.067798555E-1,9.814933920E0
7.273475130E-1,-9.809376717E0,-1.935195327E-1,-4.019941986E-1,9.819517336E0
7.297924610E-1,-9.809376717E0,-2.054836452E-1,-3.900300860E-1,9.819277904E0
7.322365750E-1,-9.826126099E0,-2.030908167E-1,-3.876372576E-1,9.835866135E0
7.346798040E-1,-9.823733330E0,-1.911267042E-1,-3.756731451E-1,9.832771545E0
7.371239710E-1,-9.806983948E0,-2.030908167E-1,-3.972085714E-1,9.817125581E0
7.395688670E-1,-9.809376717E0,-1.839482337E-1,-4.019941986E-1,9.819333371E0
7.420129820E-1,-9.816555023E0,-1.767697781E-1,-4.019941986E-1,9.826372648E0
7.444562630E-1,-9.806983948E0,-1.911267042E-1,-3.828516304E-1,9.816314937E0
7.469004290E-1,-9.802198410E0,-1.887338907E-1,-4.091726840E-1,9.812549946E0
7.493453250E-1,-9.811769485E0,-1.911267042E-1,-3.852444589E-1,9.821189498E0
7.517894400E-1,-9.816555023E0,-1.863410622E-1,-3.996013701E-1,9.826451891E0
7.542326690E-1,-9.818947792E0,-1.935195327E-1,-3.924229145E-1,9.828691739E0
7.566768360E-1,-9.799804688E0,-1.887338907E-1,-3.900300860E-1,9.809378974E0
7.591217840E-1,-9.818947792E0,-1.935195327E-1,-4.019941986E-1,9.829078537E0
7.615657940E-1,-9.814162254E0,-1.887338907E-1,-4.211367965E-1,9.825006740E0
7.640091270E-1,-9.816555023E0,-1.887338907E-1,-4.019941986E-1,9.826595155E0
7.664532940E-1,-9.806983948E0,-1.887338907E-1,-3.756731451E-1,9.815991287E0
7.688981900E-1,-9.821340561E0,-1.935195327E-1,-3.972085714E-1,9.831274326E0
7.713423040E-1,-9.816555023E0,-1.767697781E-1,-3.876372576E-1,9.825795781E0
7.737855860E-1,-9.821340561E0,-2.030908167E-1,-4.067798555E-1,9.831858733E0
7.762297520E-1,-9.804591179E0,-1.911267042E-1,-4.139583111E-1,9.815187165E0
7.786746480E-1,-9.811769485E0,-1.983051747E-1,-3.900300860E-1,9.821520699E0
7.811187630E-1,-9.814162254E0,-1.911267042E-1,-3.876372576E-1,9.823674100E0
7.835619920E-1,-9.806983948E0,-1.815554202E-1,-4.067798555E-1,9.817095618E0
7.860061590E-1,-9.804591179E0,-1.743769497E-1,-4.043870270E-1,9.814476266E0
7.884510540E-1,-9.811769485E0,-2.126621157E-1,-3.924229145E-1,9.821916379E0
7.908951690E-1,-9.804591179E0,-2.078764737E-1,-3.876372576E-1,9.814452784E0
7.933384500E-1,-9.821340561E0,-1.815554202E-1,-3.876372576E-1,9.830664038E0
7.957826170E-1,-9.821340561E0,-1.935195327E-1,-3.948157430E-1,9.831177940E0
7.982275130E-1,-9.828518867E0,-1.863410622E-1,-3.804588020E-1,9.837644790E0
8.006716270E-1,-9.821340561E0,-1.815554202E-1,-4.019941986E-1,9.831240620E0
8.031149090E-1,-9.816555023E0,-1.863410622E-1,-3.852444589E-1,9.825878526E0
8.055590230E-1,-9.816555023E0,-1.791625917E-1,-4.043870270E-1,9.826514165E0
8.080039710E-1,-9.799804688E0,-1.959123611E-1,-3.876372576E-1,9.809424866E0
8.104479820E-1,-9.821340561E0,-1.983051747E-1,-3.876372576E-1,9.830987641E0
8.128913150E-1,-9.811769485E0,-1.815554202E-1,-3.996013701E-1,9.821581546E0
8.153354820E-1,-9.795019150E0,-1.911267042E-1,-3.972085714E-1,9.804932647E0
8.177803770E-1,-9.818947792E0,-1.815554202E-1,-3.924229145E-1,9.828463454E0
8.202244920E-1,-9.818947792E0,-1.911267042E-1,-3.876372576E-1,9.828455006E0
8.226677730E-1,-9.821340561E0,-1.719841212E-1,-3.924229145E-1,9.830681802E0
8.251119400E-1,-9.821340561E0,-1.959123611E-1,-4.067798555E-1,9.831713071E0
8.275568360E-1,-9.818947792E0,-1.839482337E-1,-4.019941986E-1,9.828894751E0
8.300009500E-1,-9.809376717E0,-1.719841212E-1,-4.283152521E-1,9.820229328E0
8.324441790E-1,-9.799804688E0,-1.887338907E-1,-3.948157430E-1,9.809570422E0
8.348883460E-1,-9.830911636E0,-2.054836452E-1,-4.139583111E-1,9.841768571E0
8.373332420E-1,-9.830911636E0,-1.911267042E-1,-4.043870270E-1,9.841081337E0
8.397773570E-1,-9.823733330E0,-1.743769497E-1,-4.043870270E-1,9.833599174E0
8.422206380E-1,-9.828518867E0,-1.863410622E-1,-4.043870270E-1,9.838599239E0
8.446648040E-1,-9.821340561E0,-1.887338907E-1,-4.163511395E-1,9.831973310E0
8.471097000E-1,-9.806983948E0,-1.767697781E-1,-4.163511395E-1,9.817409535E0
8.495538150E-1,-9.806983948E0,-1.791625917E-1,-4.067798555E-1,9.817051657E0
8.519970960E-1,-9.806983948E0,-1.839482337E-1,-3.780659735E-1,9.815992308E0
8.544412110E-1,-9.811769485E0,-1.935195327E-1,-3.852444589E-1,9.821236355E0
8.568861590E-1,-9.816555023E0,-1.815554202E-1,-3.996013701E-1,9.826362305E0
8.593302730E-1,-9.811769485E0,-1.671984792E-1,-3.948157430E-1,9.821133093E0
8.617735020E-1,-9.818947792E0,-1.959123611E-1,-3.924229145E-1,9.828739143E0
8.642176690E-1,-9.828518867E0,-1.911267042E-1,-4.043870270E-1,9.838691042E0
8.666625650E-1,-9.835697174E0,-2.030908167E-1,-3.852444589E-1,9.845333822E0
8.691066790E-1,-9.821340561E0,-1.887338907E-1,-3.948157430E-1,9.831084903E0
8.715499610E-1,-9.823733330E0,-1.815554202E-1,-4.067798555E-1,9.833827777E0
8.739941270E-1,-9.799804688E0,-1.767697781E-1,-3.876372576E-1,9.809061225E0
8.764390230E-1,-9.797411919E0,-2.006980032E-1,-4.139583111E-1,9.808206843E0
8.788831380E-1,-9.828518867E0,-1.911267042E-1,-3.900300860E-1,9.838111405E0
8.813263670E-1,-9.818947792E0,-1.839482337E-1,-4.019941986E-1,9.828894751E0
8.837705340E-1,-9.792626381E0,-1.839482337E-1,-4.067798555E-1,9.802797470E0
8.862154820E-1,-9.816555023E0,-1.815554202E-1,-3.972085714E-1,9.826265290E0
8.886594920E-1,-9.802198410E0,-1.887338907E-1,-3.948157430E-1,9.811961762E0
8.911028250E-1,-9.809376717E0,-1.911267042E-1,-4.139583111E-1,9.819967539E0
8.935469920E-1,-9.811769485E0,-1.863410622E-1,-3.948157430E-1,9.821477633E0
8.959918880E-1,-9.830911636E0,-1.863410622E-1,-3.876372576E-1,9.840315505E0
8.984360020E-1,-9.816555023E0,-1.791625917E-1,-4.115654826E-1,9.826812194E0
9.008792840E-1,-9.809376717E0,-1.887338907E-1,-3.924229145E-1,9.819037009E0
9.033234500E-1,-9.821340561E0,-1.935195327E-1,-3.900300860E-1,9.830986913E0
9.057683460E-1,-9.802198410E0,-1.863410622E-1,-3.852444589E-1,9.811535555E0
9.082124610E-1,-9.809376717E0,-1.911267042E-1,-4.115654826E-1,9.819866961E0
9.106556900E-1,-9.816555023E0,-1.959123611E-1,-3.924229145E-1,9.826348758E0
9.130998570E-1,-9.826126099E0,-1.815554202E-1,-4.067798555E-1,9.836218091E0
9.155447520E-1,-9.816555023E0,-2.054836452E-1,-3.972085714E-1,9.826736523E0
9.179888670E-1,-9.809376717E0,-1.887338907E-1,-3.972085714E-1,9.819229435E0
9.204321480E-1,-9.818947792E0,-1.767697781E-1,-4.115654826E-1,9.829159142E0
9.228763150E-1,-9.811769485E0,-1.887338907E-1,-3.876372576E-1,9.821237374E0
9.253212110E-1,-9.799804688E0,-1.743769497E-1,-3.756731451E-1,9.808552877E0
9.277653250E-1,-9.823733330E0,-1.935195327E-1,-3.876372576E-1,9.833282717E0
9.302086070E-1,-9.818947792E0,-1.743769497E-1,-3.924229145E-1,9.828333471E0
9.326527210E-1,-9.809376717E0,-2.054836452E-1,-3.876372576E-1,9.819183150E0
9.350976690E-1,-9.838089943E0,-1.719841212E-1,-3.924229145E-1,9.847415296E0
9.375416790E-1,-9.811769485E0,-1.671984792E-1,-4.091726840E-1,9.821720728E0
9.399850130E-1,-9.806983948E0,-1.815554202E-1,-3.948157430E-1,9.816607153E0
9.424291790E-1,-9.833304405E0,-1.839482337E-1,-3.924229145E-1,9.842850615E0
9.448740750E-1,-9.804591179E0,-1.767697781E-1,-3.996013701E-1,9.814323053E0
9.473181900E-1,-9.826126099E0,-1.743769497E-1,-3.948157430E-1,9.835600688E0
9.497614710E-1,-9.804591179E0,-1.983051747E-1,-3.948157430E-1,9.814540876E0
9.522056380E-1,-9.816555023E0,-2.078764737E-1,-3.852444589E-1,9.826310520E0
9.546505340E-1,-9.811769485E0,-1.863410622E-1,-3.996013701E-1,9.821671176E0
9.570946480E-1,-9.806983948E0,-1.935195327E-1,-4.019941986E-1,9.817127039E0
9.595378770E-1,-9.828518867E0,-1.815554202E-1,-4.019941986E-1,9.838411703E0
9.619820440E-1,-9.814162254E0,-2.030908167E-1,-3.996013701E-1,9.824393513E0
9.644269400E-1,-9.840482712E0,-1.791625917E-1,-3.996013701E-1,9.850222357E0
9.668710540E-1,-9.797411919E0,-1.911267042E-1,-4.019941986E-1,9.807517987E0
9.693143360E-1,-9.826126099E0,-1.911267042E-1,-3.876372576E-1,9.835626374E0
9.717585020E-1,-9.809376717E0,-2.030908167E-1,-3.996013701E-1,9.819612961E0
9.742033980E-1,-9.816555023E0,-1.719841212E-1,-3.948157430E-1,9.825996669E0
9.766475130E-1,-9.795019150E0,-1.935195327E-1,-4.091726840E-1,9.805471546E0
9.790907940E-1,-9.811769485E0,-1.743769497E-1,-4.115654826E-1,9.821945525E0
9.815349610E-1,-9.818947792E0,-1.935195327E-1,-4.043870270E-1,9.829176691E0
9.839798570E-1,-9.806983948E0,-1.983051747E-1,-3.852444589E-1,9.816550941E0
9.864239710E-1,-9.814162254E0,-2.006980032E-1,-4.115654826E-1,9.824838247E0
9.888672000E-1,-9.806983948E0,-1.695913076E-1,-4.115654826E-1,9.817081109E0
9.913113670E-1,-9.811769485E0,-1.959123611E-1,-3.948157430E-1,9.821663890E0
9.937562630E-1,-9.830911636E0,-1.767697781E-1,-3.948157430E-1,9.840424311E0
9.962003770E-1,-9.828518867E0,-2.030908167E-1,-3.828516304E-1,9.838069139E0
9.986436590E-1,-9.809376717E0,-1.887338907E-1,-3.780659735E-1,9.818473707E0
1.001087825E0,-9.826126099E0,-1.887338907E-1,-3.996013701E-1,9.836058959E0
1.003532721E0,-9.811769485E0,-1.839482337E-1,-4.091726840E-1,9.822020142E0
1.005976836E0,-9.823733330E0,-1.743769497E-1,-3.996013701E-1,9.833403536E0
1.008420117E0,-9.795019150E0,-1.911267042E-1,-3.876372576E-1,9.804549567E0
1.010864232E0,-9.814162254E0,-1.815554202E-1,-4.019941986E-1,9.824069547E0
1.013309179E0,-9.821340561E0,-1.743769497E-1,-4.067798555E-1,9.831307522E0
1.015753294E0,-9.799804688E0,-1.767697781E-1,-4.163511395E-1,9.810237904E0
1.018196523E0,-9.797411919E0,-2.006980032E-1,-4.043870270E-1,9.807807546E0
1.020640690E0,-9.809376717E0,-1.743769497E-1,-3.900300860E-1,9.818676202E0
1.023085586E0,-9.809376717E0,-1.743769497E-1,-3.996013701E-1,9.819061062E0
1.025529700E0,-9.811769485E0,-1.719841212E-1,-3.900300860E-1,9.821024511E0
1.027972982E0,-9.809376717E0,-1.935195327E-1,-4.091726840E-1,9.819813830E0
1.030417148E0,-9.806983948E0,-1.935195327E-1,-3.996013701E-1,9.817029348E0
1.032862044E0,-9.809376717E0,-1.887338907E-1,-3.996013701E-1,9.819326520E0
1.035306159E0,-9.830911636E0,-1.839482337E-1,-4.115654826E-1,9.841242132E0
1.037749440E0,-9.833304405E0,-1.911267042E-1,-4.043870270E-1,9.843471634E0
1.040193607E0,-9.809376717E0,-1.935195327E-1,-3.900300860E-1,9.819034823E0
1.042638502E0,-9.814162254E0,-1.839482337E-1,-4.259224236E-1,9.825122270E0
1.045082513E0,-9.821340561E0,-1.839482337E-1,-3.996013701E-1,9.831187549E0
1.047525846E0,-9.806983948E0,-1.887338907E-1,-3.996013701E-1,9.816936176E0
1.049970013E0,-9.809376717E0,-1.887338907E-1,-3.996013701E-1,9.819326520E0
1.052414909E0,-9.826126099E0,-1.815554202E-1,-4.067798555E-1,9.836218091E0
1.054859023E0,-9.814162254E0,-1.719841212E-1,-3.852444589E-1,9.823226180E0
1.057302304E0,-9.826126099E0,-1.887338907E-1,-3.996013701E-1,9.836058959E0
1.059746471E0,-9.814162254E0,-1.983051747E-1,-3.996013701E-1,9.824295748E0
1.062191367E0,-9.814162254E0,-1.839482337E-1,-3.948157430E-1,9.823822941E0
1.064635482E0,-9.830911636E0,-1.983051747E-1,-4.043870270E-1,9.841223370E0
1.067078711E0,-9.816555023E0,-1.863410622E-1,-3.996013701E-1,9.826451891E0
1.069522877E0,-9.811769485E0,-1.863410622E-1,-3.900300860E-1,9.821286418E0
1.071967773E0,-9.814162254E0,-1.743769497E-1,-3.780659735E-1,9.822989461E0
1.074411888E0,-9.826126099E0,-2.030908167E-1,-3.948157430E-1,9.836151659E0
1.076855169E0,-9.823733330E0,-2.006980032E-1,-4.187439680E-1,9.834701965E0
1.079299336E0,-9.816555023E0,-1.815554202E-1,-3.876372576E-1,9.825883041E0
1.081744232E0,-9.814162254E0,-1.791625917E-1,-3.948157430E-1,9.823734497E0
1.084188346E0,-9.811769485E0,-1.839482337E-1,-4.019941986E-1,9.821723715E0
1.086631627E0,-9.821340561E0,-1.671984792E-1,-4.043870270E-1,9.831084102E0
1.089075794E0,-9.816555023E0,-1.887338907E-1,-3.900300860E-1,9.826112989E0
1.091520690E0,-9.826126099E0,-2.006980032E-1,-4.043870270E-1,9.836491380E0
1.093964804E0,-9.814162254E0,-2.102692872E-1,-4.043870270E-1,9.824740342E0
1.096408034E0,-9.802198410E0,-1.959123611E-1,-3.948157430E-1,9.812102466E0
1.098852200E0,-9.823733330E0,-1.983051747E-1,-3.780659735E-1,9.833005408E0
1.101297096E0,-9.814162254E0,-1.839482337E-1,-3.828516304E-1,9.823349382E0
1.103741211E0,-9.814162254E0,-1.815554202E-1,-3.852444589E-1,9.823398415E0
1.106184492E0,-9.804591179E0,-1.887338907E-1,-3.996013701E-1,9.814545834E0
1.108628659E0,-9.802198410E0,-1.767697781E-1,-3.924229145E-1,9.811642929E0
1.111073554E0,-9.818947792E0,-2.006980032E-1,-3.756731451E-1,9.828181202E0
1.113517669E0,-9.816555023E0,-1.959123611E-1,-3.780659735E-1,9.825785875E0
1.115960950E0,-9.806983948E0,-1.839482337E-1,-4.019941986E-1,9.816943029E0
1.118405117E0,-9.814162254E0,-1.815554202E-1,-4.019941986E-1,9.824069547E0
1.120850013E0,-9.816555023E0,-1.815554202E-1,-3.708875179E-1,9.825236508E0
1.123294127E0,-9.804591179E0,-1.767697781E-1,-3.708875179E-1,9.813195875E0
1.125737357E0,-9.816555023E0,-1.863410622E-1,-3.996013701E-1,9.826451891E0
1.128181523E0,-9.809376717E0,-1.767697781E-1,-4.091726840E-1,9.819498022E0
1.130626419E0,-9.821340561E0,-1.791625917E-1,-4.043870270E-1,9.831294854E0
1.133070534E0,-9.818947792E0,-1.911267042E-1,-3.828516304E-1,9.828267423E0
1.135513815E0,-9.823733330E0,-2.006980032E-1,-4.067798555E-1,9.834199819E0
1.137957982E0,-9.818947792E0,-1.839482337E-1,-3.924229145E-1,9.828507946E0
1.140402877E0,-9.818947792E0,-2.030908167E-1,-4.091726840E-1,9.829567839E0
1.142846992E0,-9.814162254E0,-1.839482337E-1,-3.900300860E-1,9.823631771E0
1.145290273E0,-9.828518867E0,-1.911267042E-1,-4.043870270E-1,9.838691042E0
1.147734388E0,-9.816555023E0,-2.030908167E-1,-3.948157430E-1,9.826590348E0
1.150179336E0,-9.809376717E0,-1.839482337E-1,-3.852444589E-1,9.818661916E0
1.152623450E0,-9.830911636E0,-1.839482337E-1,-3.924229145E-1,9.840460167E0
1.155066679E0,-9.821340561E0,-1.935195327E-1,-3.948157430E-1,9.831177940E0
1.157510846E0,-9.797411919E0,-1.815554202E-1,-3.948157430E-1,9.807044516E0
1.159955742E0,-9.814162254E0,-1.648056656E-1,-3.948157430E-1,9.823483147E0
1.162399857E0,-9.816555023E0,-1.911267042E-1,-3.972085714E-1,9.826446794E0
1.164843138E0,-9.806983948E0,-1.815554202E-1,-3.996013701E-1,9.816800791E0
1.167287304E0,-9.828518867E0,-1.959123611E-1,-3.900300860E-1,9.838205540E0
1.169732200E0,-9.838089943E0,-1.791625917E-1,-4.163511395E-1,9.848525840E0
1.172176315E0,-9.804591179E0,-1.863410622E-1,-4.115654826E-1,9.814994515E0
1.174619596E0,-9.806983948E0,-1.767697781E-1,-3.900300860E-1,9.816328498E0
1.177063711E0,-9.809376717E0,-1.935195327E-1,-3.828516304E-1,9.818752301E0
1.179508659E0,-9.814162254E0,-1.719841212E-1,-3.948157430E-1,9.823606200E0
1.181952773E0,-9.811769485E0,-1.959123611E-1,-4.043870270E-1,9.822053296E0
1.184396002E0,-9.811769485E0,-2.078764737E-1,-4.139583111E-1,9.822697926E0
1.186840169E0,-9.814162254E0,-1.863410622E-1,-3.804588020E-1,9.823301515E0
1.189285065E0,-9.811769485E0,-1.719841212E-1,-3.900300860E-1,9.821024511E0
1.191729179E0,-9.806983948E0,-1.815554202E-1,-4.019941986E-1,9.816898485E0
1.194172461E0,-9.814162254E0,-1.791625917E-1,-3.996013701E-1,9.823927995E0
1.196616627E0,-9.802198410E0,-1.767697781E-1,-4.019941986E-1,9.812030399E0
1.199061523E0,-9.809376717E0,-1.767697781E-1,-3.948157430E-1,9.818910255E0
1.201505638E0,-9.823733330E0,-1.815554202E-1,-4.043870270E-1,9.833729088E0
1.203948919E0,-9.821340561E0,-1.839482337E-1,-4.019941986E-1,9.831285099E0
1.206393034E0,-9.816555023E0,-1.648056656E-1,-3.948157430E-1,9.825873646E0
1.208837982E0,-9.816555023E0,-1.743769497E-1,-4.163511395E-1,9.826927705E0
1.211281992E0,-9.814162254E0,-1.983051747E-1,-3.996013701E-1,9.824295748E0
1.213725325E0,-9.814162254E0,-2.006980032E-1,-4.019941986E-1,9.824441958E0
1.216169492E0,-9.806983948E0,-1.887338907E-1,-4.091726840E-1,9.817330437E0
1.218614388E0,-9.835697174E0,-1.935195327E-1,-3.948157430E-1,9.845520209E0
1.221058502E0,-9.821340561E0,-1.863410622E-1,-3.948157430E-1,9.831039257E0
1.223501784E0,-9.821340561E0,-2.030908167E-1,-4.067798555E-1,9.831858733E0
1.225945950E0,-9.818947792E0,-1.863410622E-1,-3.972085714E-1,9.828745260E0
1.228390846E0,-9.828518867E0,-1.839482337E-1,-3.876372576E-1,9.837879991E0
1.230834961E0,-9.821340561E0,-1.695913076E-1,-4.043870270E-1,9.831125088E0
1.233278190E0,-9.814162254E0,-1.935195327E-1,-3.972085714E-1,9.824103278E0
1.235722357E0,-9.816555023E0,-1.935195327E-1,-3.924229145E-1,9.826301343E0
1.238167304E0,-9.814162254E0,-1.887338907E-1,-3.924229145E-1,9.823817841E0
1.240611315E0,-9.828518867E0,-1.959123611E-1,-3.900300860E-1,9.838205540E0
1.243054648E0,-9.821340561E0,-1.695913076E-1,-4.091726840E-1,9.831323101E0
1.245498815E0,-9.804591179E0,-1.863410622E-1,-4.307080805E-1,9.815815841E0
1.247943711E0,-9.804591179E0,-1.959123611E-1,-4.211367965E-1,9.815586892E0
1.250387825E0,-9.821340561E0,-1.719841212E-1,-3.972085714E-1,9.830874000E0
1.252831107E0,-9.814162254E0,-1.887338907E-1,-3.996013701E-1,9.824107211E0
1.255275273E0,-9.809376717E0,-1.863410622E-1,-3.828516304E-1,9.818613442E0
1.257720169E0,-9.806983948E0,-1.839482337E-1,-3.972085714E-1,9.816748227E0
1.260164284E0,-9.811769485E0,-1.839482337E-1,-3.972085714E-1,9.821529007E0
1.262607513E0,-9.821340561E0,-1.815554202E-1,-3.996013701E-1,9.831143069E0
1.265051679E0,-9.802198410E0,-1.935195327E-1,-3.876372576E-1,9.811768756E0
1.267496575E0,-9.811769485E0,-1.839482337E-1,-3.876372576E-1,9.821146574E0
1.269940690E0,-9.826126099E0,-1.815554202E-1,-4.019941986E-1,9.836021341E0
1.272383971E0,-9.790233612E0,-1.815554202E-1,-3.852444589E-1,9.799492326E0
1.274828138E0,-9.814162254E0,-1.743769497E-1,-4.115654826E-1,9.824335816E0
1.277273034E0,-9.821340561E0,-1.815554202E-1,-4.019941986E-1,9.831240620E0
1.279717148E0,-9.821340561E0,-1.863410622E-1,-3.852444589E-1,9.830659525E0
1.282160429E0,-9.826126099E0,-1.959123611E-1,-4.019941986E-1,9.836296818E0
1.284604596E0,-9.790233612E0,-1.887338907E-1,-3.780659735E-1,9.799348373E0
1.287049492E0,-9.799804688E0,-1.983051747E-1,-3.828516304E-1,9.809285001E0
1.289493607E0,-9.814162254E0,-1.863410622E-1,-4.091726840E-1,9.824455508E0
1.291936836E0,-9.816555023E0,-2.006980032E-1,-4.067798555E-1,9.827029158E0
1.294381002E0,-9.811769485E0,-1.887338907E-1,-3.948157430E-1,9.821523323E0
1.296825898E0,-9.826126099E0,-1.911267042E-1,-3.924229145E-1,9.835816146E0
1.299270013E0,-9.823733330E0,-2.006980032E-1,-3.924229145E-1,9.833616424E0
1.301713294E0,-9.809376717E0,-1.935195327E-1,-3.948157430E-1,9.819226082E0
1.304157461E0,-9.799804688E0,-1.887338907E-1,-4.115654826E-1,9.810258842E0
1.306602357E0,-9.802198410E0,-1.863410622E-1,-3.972085714E-1,9.812012602E0
1.309046471E0,-9.816555023E0,-1.911267042E-1,-3.996013701E-1,9.826543807E0
1.311489752E0,-9.795019150E0,-1.863410622E-1,-3.972085714E-1,9.804840528E0
1.313933919E0,-9.818947792E0,-1.815554202E-1,-3.996013701E-1,9.828752686E0
1.316378815E0,-9.830911636E0,-1.863410622E-1,-4.139583111E-1,9.841387508E0
1.318822929E0,-9.830911636E0,-2.030908167E-1,-3.972085714E-1,9.841028611E0
1.321266159E0,-9.821340561E0,-1.959123611E-1,-3.900300860E-1,9.831034306E0
1.323710325E0,-9.811769485E0,-1.695913076E-1,-4.139583111E-1,9.821962285E0
1.326155273E0,-9.804591179E0,-1.791625917E-1,-4.139583111E-1,9.814961482E0
1.328599284E0,-9.823733330E0,-1.767697781E-1,-4.115654826E-1,9.833939711E0
1.331042617E0,-9.802198410E0,-1.815554202E-1,-3.996013701E-1,9.812020042E0
1.333486784E0,-9.809376717E0,-1.887338907E-1,-4.019941986E-1,9.819424188E0
1.335931679E0,-9.809376717E0,-1.911267042E-1,-4.091726840E-1,9.819766966E0
1.338375794E0,-9.814162254E0,-1.887338907E-1,-3.948157430E-1,9.823913716E0
1.340819075E0,-9.821340561E0,-1.815554202E-1,-4.139583111E-1,9.831737093E0
1.343263242E0,-9.795019150E0,-1.671984792E-1,-3.948157430E-1,9.804398755E0
1.345708138E0,-9.792626381E0,-1.791625917E-1,-3.804588020E-1,9.801651880E0
1.348152252E0,-9.816555023E0,-1.887338907E-1,-3.948157430E-1,9.826304111E0
1.350595482E0,-9.826126099E0,-1.935195327E-1,-3.828516304E-1,9.835485717E0
1.353039648E0,-9.830911636E0,-1.695913076E-1,-4.211367965E-1,9.841389181E0
1.355484544E0,-9.818947792E0,-1.791625917E-1,-4.019941986E-1,9.828806352E0
1.357928659E0,-9.799804688E0,-1.911267042E-1,-4.139583111E-1,9.810405843E0
1.360371940E0,-9.799804688E0,-1.983051747E-1,-3.804588020E-1,9.809191901E0
1.362816107E0,-9.792626381E0,-1.887338907E-1,-3.948157430E-1,9.802399267E0
1.365261002E0,-9.818947792E0,-2.006980032E-1,-4.043870270E-1,9.829320643E0
1.367705117E0,-9.806983948E0,-1.815554202E-1,-3.924229145E-1,9.816511206E0
1.370148398E0,-9.811769485E0,-2.006980032E-1,-3.996013701E-1,9.821954051E0
1.372592565E0,-9.828518867E0,-1.887338907E-1,-4.067798555E-1,9.838743490E0
1.375037461E0,-9.799804688E0,-2.006980032E-1,-3.708875179E-1,9.808874000E0
1.377481575E0,-9.821340561E0,-1.839482337E-1,-3.804588020E-1,9.830428082E0
1.379924804E0,-9.821340561E0,-1.743769497E-1,-4.067798555E-1,9.831307522E0
1.382368971E0,-9.821340561E0,-1.959123611E-1,-4.115654826E-1,9.831912236E0
1.384813867E0,-9.821340561E0,-1.911267042E-1,-3.948157430E-1,9.831131130E0
1.387257982E0,-9.823733330E0,-1.983051747E-1,-3.996013701E-1,9.833856961E0
1.389701263E0,-9.828518867E0,-1.767697781E-1,-3.852444589E-1,9.837654394E0
1.392145429E0,-9.797411919E0,-1.815554202E-1,-3.972085714E-1,9.807141139E0
1.394590325E0,-9.804591179E0,-1.815554202E-1,-3.852444589E-1,9.813836347E0
1.397034440E0,-9.814162254E0,-1.767697781E-1,-3.948157430E-1,9.823691148E0
1.399477721E0,-9.802198410E0,-1.935195327E-1,-4.115654826E-1,9.812743226E0
1.401921888E0,-9.802198410E0,-1.815554202E-1,-3.900300860E-1,9.811634905E0
1.404366784E0,-9.818947792E0,-1.935195327E-1,-4.043870270E-1,9.829176691E0
1.406810898E0,-9.809376717E0,-1.935195327E-1,-4.067798555E-1,9.819714417E0
1.409254127E0,-9.826126099E0,-2.054836452E-1,-4.019941986E-1,9.836492107E0
1.411698294E0,-9.806983948E0,-1.815554202E-1,-4.043870270E-1,9.816996760E0
1.414143190E0,-9.804591179E0,-1.839482337E-1,-4.067798555E-1,9.814749869E0
1.416587304E0,-9.835697174E0,-1.959123611E-1,-3.972085714E-1,9.845663777E0
1.419030586E0,-9.816555023E0,-1.911267042E-1,-4.235295951E-1,9.827545943E0
1.421474752E0,-9.802198410E0,-1.911267042E-1,-4.067798555E-1,9.812496774E0
1.423919648E0,-9.833304405E0,-1.959123611E-1,-3.780659735E-1,9.842519548E0
1.426363763E0,-9.797411919E0,-1.839482337E-1,-3.924229145E-1,9.806993066E0
1.428807044E0,-9.811769485E0,-1.863410622E-1,-4.067798555E-1,9.821965856E0
1.431251211E0,-9.804591179E0,-1.791625917E-1,-3.972085714E-1,9.814269309E0
1.433696107E0,-9.809376717E0,-1.863410622E-1,-3.876372576E-1,9.818801210E0
1.436140221E0,-9.804591179E0,-1.863410622E-1,-3.948157430E-1,9.814306427E0
1.438583450E0,-9.802198410E0,-1.648056656E-1,-4.139583111E-1,9.812319607E0
1.441027617E0,-9.828518867E0,-1.863410622E-1,-4.067798555E-1,9.838697880E0
1.443472513E0,-9.809376717E0,-1.863410622E-1,-4.163511395E-1,9.819976723E0
1.445916627E0,-9.811769485E0,-1.815554202E-1,-3.876372576E-1,9.821102049E0
1.448359909E0,-9.814162254E0,-1.839482337E-1,-4.019941986E-1,9.824114059E0
1.450804075E0,-9.809376717E0,-1.887338907E-1,-3.876372576E-1,9.818846913E0
1.453248971E0,-9.814162254E0,-1.935195327E-1,-3.948157430E-1,9.824006822E0
1.455693086E0,-9.790233612E0,-1.983051747E-1,-4.067798555E-1,9.800687168E0
1.458136367E0,-9.804591179E0,-1.935195327E-1,-3.804588020E-1,9.813878280E0
1.460580534E0,-9.797411919E0,-1.863410622E-1,-3.852444589E-1,9.806753621E0
1.463025429E0,-9.821340561E0,-1.935195327E-1,-3.996013701E-1,9.831371292E0
1.465469544E0,-9.804591179E0,-1.815554202E-1,-4.091726840E-1,9.814804779E0
1.467912773E0,-9.814162254E0,-1.887338907E-1,-3.876372576E-1,9.823627837E0
1.470356940E0,-9.809376717E0,-1.743769497E-1,-3.924229145E-1,9.818771544E0
1.472801836E0,-9.804591179E0,-1.719841212E-1,-3.900300860E-1,9.813852974E0
1.475245950E0,-9.823733330E0,-1.815554202E-1,-3.900300860E-1,9.833149158E0
1.477689232E0,-9.802198410E0,-1.863410622E-1,-4.019941986E-1,9.812207499E0
1.480133398E0,-9.814162254E0,-1.719841212E-1,-3.852444589E-1,9.823226180E0
1.482578294E0,-9.821340561E0,-2.030908167E-1,-4.019941986E-1,9.831661896E0
1.485022409E0,-9.804591179E0,-1.743769497E-1,-3.972085714E-1,9.814183112E0
1.487465690E0,-9.826126099E0,-1.911267042E-1,-3.972085714E-1,9.836008244E0
1.489909857E0,-9.802198410E0,-1.600200087E-1,-3.828516304E-1,9.810977293E0
1.492354752E0,-9.823733330E0,-1.839482337E-1,-4.043870270E-1,9.833773556E0
1.494798867E0,-9.814162254E0,-2.126621157E-1,-4.139583111E-1,9.825190452E0
1.497242096E0,-9.804591179E0,-1.815554202E-1,-4.115654826E-1,9.814904824E0
1.499686263E0,-9.816555023E0,-1.887338907E-1,-4.259224236E-1,9.827603111E0
1.502131211E0,-9.818947792E0,-1.839482337E-1,-3.876372576E-1,9.828318032E0
1.504575221E0,-9.823733330E0,-1.839482337E-1,-4.139583111E-1,9.834171799E0
1.507018554E0,-9.799804688E0,-1.959123611E-1,-3.996013701E-1,9.809904934E0
1.509462721E0,-9.809376717E0,-2.054836452E-1,-4.019941986E-1,9.819760406E0
1.511907617E0,-9.821340561E0,-1.959123611E-1,-3.900300860E-1,9.831034306E0
1.514351732E0,-9.816555023E0,-1.743769497E-1,-3.996013701E-1,9.826232294E0
1.516795013E0,-9.828518867E0,-1.863410622E-1,-3.996013701E-1,9.838403701E0
1.519239179E0,-9.838089943E0,-1.863410622E-1,-4.067798555E-1,9.848259063E0
1.521684075E0,-9.814162254E0,-1.983051747E-1,-3.948157430E-1,9.824102258E0
1.524128190E0,-9.814162254E0,-1.863410622E-1,-3.900300860E-1,9.823676868E0
1.526571419E0,-9.809376717E0,-2.030908167E-1,-4.043870270E-1,9.819808874E0
1.529015586E0,-9.809376717E0,-1.839482337E-1,-3.996013701E-1,9.819235702E0
1.531460534E0,-9.809376717E0,-1.767697781E-1,-3.828516304E-1,9.818436459E0
1.533904544E0,-9.806983948E0,-1.887338907E-1,-3.996013701E-1,9.816936176E0
1.536347877E0,-9.821340561E0,-1.815554202E-1,-4.091726840E-1,9.831536760E0
1.538792044E0,-9.821340561E0,-1.959123611E-1,-4.139583111E-1,9.832012691E0
1.541236940E0,-9.814162254E0,-1.959123611E-1,-3.900300860E-1,9.823863083E0
1.543681054E0,-9.828518867E0,-1.815554202E-1,-3.996013701E-1,9.838314223E0
1.546124336E0,-9.818947792E0,-1.887338907E-1,-3.948157430E-1,9.828694506E0
1.548568502E0,-9.826126099E0,-1.839482337E-1,-4.043870270E-1,9.836163883E0
1.551013398E0,-9.811769485E0,-1.839482337E-1,-3.996013701E-1,9.821626069E0
1.553457513E0,-9.818947792E0,-1.767697781E-1,-4.067798555E-1,9.828959922E0
1.555900794E0,-9.830911636E0,-1.719841212E-1,-4.115654826E-1,9.841025774E0
1.558344909E0,-9.821340561E0,-1.959123611E-1,-3.948157430E-1,9.831225332E0
1.560789857E0,-9.814162254E0,-1.887338907E-1,-3.948157430E-1,9.823913716E0
1.563233971E0,-9.809376717E0,-1.815554202E-1,-3.996013701E-1,9.819191168E0
1.565677200E0,-9.806983948E0,-1.815554202E-1,-3.852444589E-1,9.816226862E0
1.568121367E0,-9.806983948E0,-1.815554202E-1,-3.972085714E-1,9.816703682E0
1.570566263E0,-9.811769485E0,-1.863410622E-1,-3.972085714E-1,9.821574114E0
1.573010377E0,-9.797411919E0,-1.815554202E-1,-4.163511395E-1,9.807935101E0
1.575453659E0,-9.814162254E0,-1.887338907E-1,-3.756731451E-1,9.823163011E0
1.577897825E0,-9.809376717E0,-1.863410622E-1,-4.091726840E-1,9.819674987E0
1.580342721E0,-9.814162254E0,-2.006980032E-1,-3.996013701E-1,9.824344339E0
1.582786836E0,-9.823733330E0,-1.959123611E-1,-3.948157430E-1,9.833615696E0
1.585230117E0,-9.823733330E0,-1.767697781E-1,-3.972085714E-1,9.833349314E0
1.587674232E0,-9.806983948E0,-1.863410622E-1,-4.187439680E-1,9.817688305E0
1.590119179E0,-9.790233612E0,-1.767697781E-1,-3.996013701E-1,9.799979744E0
1.592563294E0,-9.816555023E0,-1.743769497E-1,-4.019941986E-1,9.826329894E0
1.595006523E0,-9.814162254E0,-1.911267042E-1,-4.067798555E-1,9.824448077E0
1.597450690E0,-9.818947792E0,-1.576271951E-1,-3.996013701E-1,9.828339805E0
1.599895586E0,-9.797411919E0,-1.839482337E-1,-4.211367965E-1,9.808184004E0
1.602339700E0,-9.787840843E0,-1.983051747E-1,-3.996013701E-1,9.798001560E0
1.604782982E0,-9.818947792E0,-1.983051747E-1,-4.019941986E-1,9.829173924E0
1.607227148E0,-9.806983948E0,-1.815554202E-1,-3.972085714E-1,9.816703682E0
1.609672044E0,-9.802198410E0,-1.911267042E-1,-4.043870270E-1,9.812397870E0
1.612116159E0,-9.828518867E0,-1.935195327E-1,-4.187439680E-1,9.839338364E0
1.614559440E0,-9.816555023E0,-1.839482337E-1,-4.091726840E-1,9.826800688E0
1.617003607E0,-9.809376717E0,-1.863410622E-1,-4.019941986E-1,9.819378488E0
1.619448502E0,-9.818947792E0,-1.743769497E-1,-4.043870270E-1,9.828818440E0
1.621892617E0,-9.802198410E0,-1.863410622E-1,-3.948157430E-1,9.811916028E0
1.624335846E0,-9.811769485E0,-1.959123611E-1,-3.972085714E-1,9.821760369E0
1.626780013E0,-9.795019150E0,-1.911267042E-1,-4.067798555E-1,9.805325054E0
1.629224909E0,-9.806983948E0,-1.743769497E-1,-3.996013701E-1,9.816670654E0
1.631669023E0,-9.804591179E0,-1.959123611E-1,-4.091726840E-1,9.815080852E0
1.634112304E0,-9.802198410E0,-2.006980032E-1,-4.235295951E-1,9.813396490E0
1.636556471E0,-9.799804688E0,-1.863410622E-1,-4.043870270E-1,9.809914565E0
1.639001367E0,-9.806983948E0,-1.863410622E-1,-4.019941986E-1,9.816988157E0
1.641445482E0,-9.816555023E0,-1.863410622E-1,-3.900300860E-1,9.826067320E0
1.643888763E0,-9.802198410E0,-1.863410622E-1,-3.852444589E-1,9.811535555E0
1.646332929E0,-9.814162254E0,-1.791625917E-1,-4.259224236E-1,9.825033837E0
1.648777825E0,-9.811769485E0,-1.839482337E-1,-4.067798555E-1,9.821920751E0
1.651221940E0,-9.814162254E0,-1.887338907E-1,-4.115654826E-1,9.824601131E0
1.653665169E0,-9.816555023E0,-1.863410622E-1,-4.019941986E-1,9.826549489E0
1.656109336E0,-9.816555023E0,-1.935195327E-1,-3.948157430E-1,9.826397193E0
1.658554284E0,-9.806983948E0,-1.983051747E-1,-4.019941986E-1,9.817222542E0
1.660998294E0,-9.818947792E0,-1.887338907E-1,-3.996013701E-1,9.828887907E0
1.663441627E0,-9.802198410E0,-1.576271951E-1,-3.972085714E-1,9.811509295E0
1.665885794E0,-9.811769485E0,-1.552343667E-1,-4.019941986E-1,9.821227901E0
1.668330690E0,-9.816555023E0,-1.719841212E-1,-4.043870270E-1,9.826385904E0
1.670774804E0,-9.806983948E0,-1.839482337E-1,-4.019941986E-1,9.816943029E0
1.673218086E0,-9.818947792E0,-1.863410622E-1,-3.972085714E-1,9.828745260E0
1.675662252E0,-9.811769485E0,-1.959123611E-1,-4.043870270E-1,9.822053296E0
1.678107148E0,-9.838089943E0,-1.935195327E-1,-3.996013701E-1,9.848103614E0
1.680551263E0,-9.821340561E0,-1.911267042E-1,-3.780659735E-1,9.830472710E0
1.682994544E0,-9.804591179E0,-1.959123611E-1,-4.019941986E-1,9.814784214E0
1.685438711E0,-9.795019150E0,-1.839482337E-1,-3.804588020E-1,9.804131068E0
1.687883607E0,-9.823733330E0,-1.719841212E-1,-4.163511395E-1,9.834056302E0
1.690327721E0,-9.816555023E0,-2.078764737E-1,-4.115654826E-1,9.827377641E0
1.692770950E0,-9.811769485E0,-1.863410622E-1,-4.067798555E-1,9.821965856E0
1.695215117E0,-9.806983948E0,-1.695913076E-1,-3.852444589E-1,9.816012870E0
1.697660013E0,-9.809376717E0,-1.791625917E-1,-3.828516304E-1,9.818479830E0
1.700104127E0,-9.818947792E0,-1.863410622E-1,-3.972085714E-1,9.828745260E0
1.702547409E0,-9.828518867E0,-2.150549293E-1,-3.996013701E-1,9.838989430E0
1.704991575E0,-9.818947792E0,-1.815554202E-1,-3.828516304E-1,9.828085952E0
1.707436471E0,-9.833304405E0,-1.911267042E-1,-3.876372576E-1,9.842797752E0
1.709880586E0,-9.818947792E0,-1.719841212E-1,-3.948157430E-1,9.828387139E0
1.712323867E0,-9.811769485E0,-1.935195327E-1,-4.043870270E-1,9.822005860E0
1.714768034E0,-9.818947792E0,-1.887338907E-1,-4.139583111E-1,9.829482067E0
1.717212929E0,-9.835697174E0,-1.839482337E-1,-3.996013701E-1,9.845529803E0
1.719657044E0,-9.826126099E0,-1.791625917E-1,-4.043870270E-1,9.836075549E0
1.722100273E0,-9.806983948E0,-1.959123611E-1,-3.996013701E-1,9.817076808E0
1.724544440E0,-9.833304405E0,-2.006980032E-1,-3.900300860E-1,9.843082783E0
1.726989336E0,-9.809376717E0,-1.815554202E-1,-4.043870270E-1,9.819387089E0
1.729433450E0,-9.816555023E0,-1.815554202E-1,-4.139583111E-1,9.826956618E0
1.731876732E0,-9.814162254E0,-1.959123611E-1,-4.067798555E-1,9.824542343E0
1.734320898E0,-9.802198410E0,-1.839482337E-1,-3.900300860E-1,9.811679473E0
1.736765794E0,-9.818947792E0,-1.791625917E-1,-3.972085714E-1,9.828611785E0
1.739209909E0,-9.814162254E0,-1.887338907E-1,-4.067798555E-1,9.824401818E0
1.741653190E0,-9.821340561E0,-1.863410622E-1,-3.996013701E-1,9.831232611E0
1.744097357E0,-9.804591179E0,-1.863410622E-1,-3.924229145E-1,9.814210458E0
1.746542252E0,-9.818947792E0,-1.935195327E-1,-4.115654826E-1,9.829474640E0
1.748986367E0,-9.814162254E0,-1.959123611E-1,-3.948157430E-1,9.824054249E0
1.751429596E0,-9.809376717E0,-2.006980032E-1,-4.043870270E-1,9.819759678E0
1.753873763E0,-9.821340561E0,-1.935195327E-1,-4.091726840E-1,9.831764974E0
1.756318711E0,-9.826126099E0,-1.983051747E-1,-3.852444589E-1,9.835674473E0
1.758762825E0,-9.809376717E0,-1.935195327E-1,-4.163511395E-1,9.820115562E0
1.761206054E0,-9.816555023E0,-1.935195327E-1,-4.019941986E-1,9.826688235E0
1.763650221E0,-9.795019150E0,-1.863410622E-1,-3.996013701E-1,9.804937756E0
1.766095117E0,-9.814162254E0,-1.815554202E-1,-4.163511395E-1,9.824667495E0
1.768539232E0,-9.816555023E0,-1.887338907E-1,-3.924229145E-1,9.826208259E0
1.770982513E0,-9.814162254E0,-1.935195327E-1,-4.043870270E-1,9.824396136E0
1.773426679E0,-9.790233612E0,-1.767697781E-1,-3.684946895E-1,9.798760639E0
1.775871575E0,-9.806983948E0,-1.719841212E-1,-3.948157430E-1,9.816434799E0
1.778315690E0,-9.821340561E0,-1.983051747E-1,-3.900300860E-1,9.831082281E0
1.780758971E0,-9.818947792E0,-2.030908167E-1,-3.924229145E-1,9.828884849E0
1.783203138E0,-9.806983948E0,-1.959123611E-1,-3.828516304E-1,9.816409281E0
1.785648034E0,-9.795019150E0,-1.815554202E-1,-4.043870270E-1,9.805044181E0
1.788092148E0,-9.823733330E0,-1.911267042E-1,-4.043870270E-1,9.833910454E0
1.790535377E0,-9.818947792E0,-1.863410622E-1,-4.043870270E-1,9.829037979E0
1.792979544E0,-9.830911636E0,-1.863410622E-1,-3.900300860E-1,9.840410056E0
1.795424440E0,-9.840482712E0,-1.767697781E-1,-4.043870270E-1,9.850374431E0
1.797868554E0,-9.818947792E0,-1.887338907E-1,-3.876372576E-1,9.828408766E0
1.800311836E0,-9.799804688E0,-1.887338907E-1,-4.043870270E-1,9.809960309E0
1.802756002E0,-9.818947792E0,-1.839482337E-1,-4.067798555E-1,9.829091644E0
1.805200898E0,-9.809376717E0,-1.911267042E-1,-4.115654826E-1,9.819866961E0
1.807645013E0,-9.809376717E0,-1.935195327E-1,-3.972085714E-1,9.819322585E0
1.810088294E0,-9.792626381E0,-1.887338907E-1,-4.139583111E-1,9.803188940E0
1.812532461E0,-9.826126099E0,-1.839482337E-1,-3.804588020E-1,9.835209198E0
1.814977357E0,-9.833304405E0,-1.887338907E-1,-4.067798555E-1,9.843524057E0
1.817421471E0,-9.830911636E0,-2.006980032E-1,-4.019941986E-1,9.841173844E0
1.819864700E0,-9.799804688E0,-1.887338907E-1,-4.115654826E-1,9.810258842E0
1.822308867E0,-9.806983948E0,-1.983051747E-1,-4.163511395E-1,9.817820907E0
1.824753815E0,-9.804591179E0,-2.054836452E-1,-4.067798555E-1,9.815177103E0
1.827197825E0,-9.811769485E0,-1.648056656E-1,-3.972085714E-1,9.821189133E0
1.829641159E0,-9.828518867E0,-1.839482337E-1,-4.163511395E-1,9.839053224E0
1.832085325E0,-9.811769485E0,-1.863410622E-1,-4.091726840E-1,9.822065247E0
1.834530221E0,-9.802198410E0,-2.006980032E-1,-3.948157430E-1,9.812199184E0
1.836974336E0,-9.806983948E0,-1.935195327E-1,-4.043870270E-1,9.817225312E0
1.839417617E0,-9.814162254E0,-1.887338907E-1,-3.852444589E-1,9.823533709E0
1.841861784E0,-9.802198410E0,-1.863410622E-1,-4.043870270E-1,9.812305821E0
1.844306679E0,-9.799804688E0,-1.863410622E-1,-4.163511395E-1,9.810415036E0
1.846750794E0,-9.804591179E0,-1.791625917E-1,-4.019941986E-1,9.814464160E0
1.849194075E0,-9.811769485E0,-1.791625917E-1,-3.852444589E-1,9.820963953E0
1.851638242E0,-9.795019150E0,-1.839482337E-1,-3.996013701E-1,9.804892572E0
1.854083138E0,-9.809376717E0,-1.935195327E-1,-3.876372576E-1,9.818940066E0
1.856527252E0,-9.809376717E0,-1.863410622E-1,-3.996013701E-1,9.819280820E0
1.858970482E0,-9.814162254E0,-1.959123611E-1,-4.019941986E-1,9.824345360E0
1.861414648E0,-9.818947792E0,-1.887338907E-1,-4.067798555E-1,9.829182371E0
1.863859544E0,-9.847661972E0,-1.887338907E-1,-3.996013701E-1,9.857573132E0
1.866303659E0,-9.818947792E0,-1.839482337E-1,-3.852444589E-1,9.828223949E0
1.868746940E0,-9.816555023E0,-1.791625917E-1,-4.115654826E-1,9.826812194E0
1.871191107E0,-9.833304405E0,-2.078764737E-1,-3.996013701E-1,9.843615667E0
1.873636002E0,-9.809376717E0,-1.959123611E-1,-3.828516304E-1,9.818799753E0
1.876080117E0,-9.809376717E0,-1.935195327E-1,-4.091726840E-1,9.819813830E0
1.878523398E0,-9.821340561E0,-1.791625917E-1,-4.115654826E-1,9.831592739E0
1.880967565E0,-9.811769485E0,-1.935195327E-1,-4.019941986E-1,9.821907635E0
1.883412461E0,-9.785448074E0,-1.743769497E-1,-4.067798555E-1,9.795451556E0
1.885856575E0,-9.802198410E0,-1.887338907E-1,-3.996013701E-1,9.812155492E0
1.888299804E0,-9.818947792E0,-2.006980032E-1,-3.948157430E-1,9.828931524E0
1.890743971E0,-9.804591179E0,-1.887338907E-1,-3.780659735E-1,9.813692605E0
1.893188919E0,-9.804591179E0,-1.959123611E-1,-3.900300860E-1,9.814301468E0
1.895633034E0,-9.833304405E0,-1.959123611E-1,-4.043870270E-1,9.843565718E0
1.898076263E0,-9.818947792E0,-2.006980032E-1,-4.187439680E-1,9.829921767E0
1.900520429E0,-9.814162254E0,-1.959123611E-1,-3.972085714E-1,9.824150704E0
1.902965325E0,-9.809376717E0,-1.791625917E-1,-3.780659735E-1,9.818294388E0
1.905409440E0,-9.811769485E0,-2.030908167E-1,-3.972085714E-1,9.821906178E0
1.907852721E0,-9.799804688E0,-1.863410622E-1,-3.972085714E-1,9.809621275E0
1.910296888E0,-9.814162254E0,-1.911267042E-1,-3.852444589E-1,9.823579972E0
1.912741784E0,-9.809376717E0,-1.743769497E-1,-3.852444589E-1,9.818487265E0
1.915185898E0,-9.816555023E0,-1.959123611E-1,-4.019941986E-1,9.826735649E0
1.917629179E0,-9.818947792E0,-1.767697781E-1,-3.924229145E-1,9.828376216E0
1.920073294E0,-9.811769485E0,-1.935195327E-1,-4.139583111E-1,9.822404580E0
1.922518242E0,-9.799804688E0,-1.743769497E-1,-4.067798555E-1,9.809793529E0
1.924962357E0,-9.792626381E0,-1.887338907E-1,-3.972085714E-1,9.802495936E0
1.927405586E0,-9.799804688E0,-1.695913076E-1,-4.211367965E-1,9.810315455E0
1.929849752E0,-9.799804688E0,-1.719841212E-1,-4.043870270E-1,9.809652355E0
1.932294648E0,-9.818947792E0,-1.983051747E-1,-4.019941986E-1,9.829173924E0
1.934738763E0,-9.809376717E0,-1.815554202E-1,-3.900300860E-1,9.818806313E0
1.937182044E0,-9.811769485E0,-1.935195327E-1,-4.019941986E-1,9.821907635E0
1.939626211E0,-9.823733330E0,-1.791625917E-1,-4.043870270E-1,9.833685201E0
1.942071107E0,-9.797411919E0,-1.935195327E-1,-3.996013701E-1,9.807467123E0
1.944515221E0,-9.818947792E0,-1.671984792E-1,-3.996013701E-1,9.828497969E0
1.946958502E0,-9.809376717E0,-1.887338907E-1,-3.924229145E-1,9.819037009E0
1.949402669E0,-9.811769485E0,-1.863410622E-1,-3.996013701E-1,9.821671176E0
1.951847565E0,-9.804591179E0,-2.030908167E-1,-3.996013701E-1,9.814832414E0
1.954291679E0,-9.804591179E0,-1.839482337E-1,-4.283152521E-1,9.815666004E0
1.956734909E0,-9.811769485E0,-1.648056656E-1,-3.900300860E-1,9.820901426E0
1.959179075E0,-9.806983948E0,-1.983051747E-1,-3.828516304E-1,9.816457328E0
1.961624023E0,-9.821340561E0,-2.030908167E-1,-4.235295951E-1,9.832565973E0
1.964068138E0,-9.830911636E0,-1.839482337E-1,-3.876372576E-1,9.840270484E0
1.966511367E0,-9.833304405E0,-1.719841212E-1,-3.732803464E-1,9.841889670E0
1.968955534E0,-9.826126099E0,-1.983051747E-1,-3.948157430E-1,9.836054012E0
1.971400429E0,-9.802198410E0,-1.887338907E-1,-3.972085714E-1,9.812058337E0
1.973844544E0,-9.821340561E0,-1.767697781E-1,-3.684946895E-1,9.829840604E0
1.976287825E0,-9.804591179E0,-1.887338907E-1,-4.067798555E-1,9.814840728E0
1.978731992E0,-9.802198410E0,-1.815554202E-1,-3.900300860E-1,9.811634905E0
1.981176888E0,-9.835697174E0,-1.743769497E-1,-4.067798555E-1,9.845649601E0
1.983621002E0,-9.811769485E0,-1.743769497E-1,-3.972085714E-1,9.821354408E0
1.986064284E0,-9.814162254E0,-1.887338907E-1,-4.019941986E-1,9.824204832E0
1.988508450E0,-9.821340561E0,-1.791625917E-1,-3.948157430E-1,9.830905814E0
1.990953346E0,-9.811769485E0,-1.959123611E-1,-3.996013701E-1,9.821857428E0
1.993397461E0,-9.830911636E0,-1.887338907E-1,-4.139583111E-1,9.841433105E0
1.995840690E0,-9.816555023E0,-1.839482337E-1,-3.996013701E-1,9.826406807E0
1.998284857E0,-9.816555023E0,-1.815554202E-1,-3.996013701E-1,9.826362305E0
2.000729752E0,-9.821340561E0,-1.767697781E-1,-3.924229145E-1,9.830766690E0
2.003173867E0,-9.814162254E0,-1.791625917E-1,-4.163511395E-1,9.824623568E0
2.005617148E0,-9.809376717E0,-1.671984792E-1,-4.139583111E-1,9.819530966E0
2.008061315E0,-9.806983948E0,-1.887338907E-1,-4.187439680E-1,9.817734013E0
2.010506211E0,-9.838089943E0,-1.839482337E-1,-4.091726840E-1,9.848313204E0
2.012950325E0,-9.814162254E0,-1.911267042E-1,-3.876372576E-1,9.823674100E0
2.015393607E0,-9.814162254E0,-1.959123611E-1,-3.852444589E-1,9.823674246E0
2.017837773E0,-9.821340561E0,-1.911267042E-1,-4.043870270E-1,9.831520162E0
2.020282669E0,-9.826126099E0,-2.054836452E-1,-4.091726840E-1,9.836788090E0
2.022726784E0,-9.804591179E0,-2.030908167E-1,-4.043870270E-1,9.815028422E0
2.025170013E0,-9.814162254E0,-1.815554202E-1,-4.043870270E-1,9.824167751E0
2.027614232E0,-9.799804688E0,-1.767697781E-1,-4.067798555E-1,9.809836355E0
2.030059127E0,-9.830911636E0,-1.743769497E-1,-4.043870270E-1,9.840770284E0
2.032503242E0,-9.818947792E0,-1.743769497E-1,-4.187439680E-1,9.829419595E0
2.034946471E0,-9.792626381E0,-1.983051747E-1,-3.876372576E-1,9.802301721E0
2.037390638E0,-9.818947792E0,-1.839482337E-1,-3.828516304E-1,9.828130446E0
2.039835586E0,-9.806983948E0,-1.695913076E-1,-3.996013701E-1,9.816586811E0
2.042279596E0,-9.816555023E0,-1.815554202E-1,-3.972085714E-1,9.826265290E0
2.044722929E0,-9.806983948E0,-1.959123611E-1,-4.139583111E-1,9.817671684E0
2.047167096E0,-9.804591179E0,-1.791625917E-1,-3.948157430E-1,9.814172756E0
2.049611992E0,-9.809376717E0,-1.863410622E-1,-3.996013701E-1,9.819280820E0
2.052056107E0,-9.799804688E0,-1.887338907E-1,-3.924229145E-1,9.809474407E0
2.054499388E0,-9.795019150E0,-1.983051747E-1,-3.661018610E-1,9.803864323E0
2.056943554E0,-9.811769485E0,-1.624128371E-1,-3.876372576E-1,9.820766824E0
2.059388450E0,-9.802198410E0,-1.743769497E-1,-4.115654826E-1,9.812384376E0
2.061832565E0,-9.816555023E0,-1.935195327E-1,-3.780659735E-1,9.825738456E0
2.064275846E0,-9.814162254E0,-1.863410622E-1,-3.996013701E-1,9.824061533E0
2.066720013E0,-9.799804688E0,-1.767697781E-1,-3.852444589E-1,9.808966957E0
2.069164909E0,-9.804591179E0,-1.791625917E-1,-4.043870270E-1,9.814562460E0
2.071609023E0,-9.811769485E0,-1.863410622E-1,-3.852444589E-1,9.821097531E0
2.074052252E0,-9.809376717E0,-1.815554202E-1,-3.804588020E-1,9.818430773E0
2.076496419E0,-9.830911636E0,-1.935195327E-1,-3.948157430E-1,9.840739448E0
2.078941315E0,-9.823733330E0,-1.863410622E-1,-3.948157430E-1,9.833429666E0
2.081385429E0,-9.802198410E0,-2.078764737E-1,-3.876372576E-1,9.812062420E0
2.083828711E0,-9.818947792E0,-1.839482337E-1,-4.043870270E-1,9.828992907E0
2.086272877E0,-9.821340561E0,-1.839482337E-1,-3.756731451E-1,9.830244029E0
2.088717773E0,-9.818947792E0,-1.815554202E-1,-3.996013701E-1,9.828752686E0
2.091161888E0,-9.818947792E0,-1.767697781E-1,-3.900300860E-1,9.828280967E0
2.093605169E0,-9.818947792E0,-1.887338907E-1,-3.996013701E-1,9.828887907E0
2.096049336E0,-9.804591179E0,-1.815554202E-1,-4.019941986E-1,9.814508133E0
2.098494232E0,-9.816555023E0,-1.959123611E-1,-4.163511395E-1,9.827333435E0
2.100938346E0,-9.828518867E0,-1.911267042E-1,-3.900300860E-1,9.838111405E0
2.103381575E0,-9.809376717E0,-1.863410622E-1,-3.996013701E-1,9.819280820E0
2.105825742E0,-9.806983948E0,-2.054836452E-1,-4.067798555E-1,9.817567292E0
2.108270690E0,-9.797411919E0,-1.911267042E-1,-4.235295951E-1,9.808424289E0
2.110714700E0,-9.811769485E0,-1.911267042E-1,-3.948157430E-1,9.821569596E0
2.113158034E0,-9.811769485E0,-1.743769497E-1,-4.139583111E-1,9.822046082E0
2.115602200E0,-9.811769485E0,-1.959123611E-1,-4.139583111E-1,9.822452014E0
2.118047096E0,-9.790233612E0,-1.863410622E-1,-4.067798555E-1,9.800452389E0
2.120491211E0,-9.809376717E0,-1.767697781E-1,-3.900300860E-1,9.818718989E0
2.122934492E0,-9.806983948E0,-1.791625917E-1,-3.948157430E-1,9.816563190E0
2.125378659E0,-9.797411919E0,-1.815554202E-1,-3.924229145E-1,9.806948476E0
2.127823554E0,-9.809376717E0,-1.911267042E-1,-4.115654826E-1,9.819866961E0
2.130267669E0,-9.816555023E0,-1.911267042E-1,-4.067798555E-1,9.826838342E0
2.132710950E0,-9.806983948E0,-1.959123611E-1,-3.852444589E-1,9.816502896E0
2.135155117E0,-9.804591179E0,-1.983051747E-1,-4.139583111E-1,9.815329572E0
2.137600013E0,-9.811769485E0,-1.815554202E-1,-3.876372576E-1,9.821102049E0
2.140044127E0,-9.821340561E0,-1.815554202E-1,-4.091726840E-1,9.831536760E0
2.142487357E0,-9.821340561E0,-1.887338907E-1,-3.996013701E-1,9.831278256E0
2.144931523E0,-9.799804688E0,-2.054836452E-1,-4.043870270E-1,9.810296851E0
2.147376471E0,-9.814162254E0,-1.911267042E-1,-4.043870270E-1,9.824349293E0
2.149820586E0,-9.809376717E0,-1.767697781E-1,-4.091726840E-1,9.819498022E0
2.152263815E0,-9.814162254E0,-1.719841212E-1,-4.115654826E-1,9.824293636E0
2.154707982E0,-9.818947792E0,-1.863410622E-1,-4.019941986E-1,9.828939824E0
2.157152877E0,-9.811769485E0,-1.935195327E-1,-3.948157430E-1,9.821616451E0
2.159596992E0,-9.799804688E0,-1.959123611E-1,-3.924229145E-1,9.809615146E0
2.162040273E0,-9.814162254E0,-1.959123611E-1,-3.804588020E-1,9.823487736E0
2.164484440E0,-9.826126099E0,-1.839482337E-1,-4.211367965E-1,9.836866740E0
2.166929336E0,-9.833304405E0,-1.863410622E-1,-3.996013701E-1,9.843184432E0
2.169373450E0,-9.826126099E0,-1.815554202E-1,-3.972085714E-1,9.835826916E0
2.171816732E0,-9.811769485E0,-1.983051747E-1,-3.996013701E-1,9.821905448E0
2.174260898E0,-9.802198410E0,-1.863410622E-1,-4.163511395E-1,9.812806170E0
2.176705794E0,-9.799804688E0,-1.839482337E-1,-4.043870270E-1,9.809869405E0
2.179149909E0,-9.802198410E0,-1.815554202E-1,-4.115654826E-1,9.812514570E0
2.181593138E0,-9.821340561E0,-1.911267042E-1,-3.924229145E-1,9.831035326E0
2.184037304E0,-9.809376717E0,-1.767697781E-1,-3.924229145E-1,9.818814331E0
2.186482252E0,-9.823733330E0,-1.815554202E-1,-4.043870270E-1,9.833729088E0
2.188926367E0,-9.795019150E0,-1.887338907E-1,-4.091726840E-1,9.805378265E0
2.191369596E0,-9.823733330E0,-2.054836452E-1,-4.019941986E-1,9.834101860E0
2.193813763E0,-9.823733330E0,-1.719841212E-1,-3.876372576E-1,9.832882472E0
2.196258659E0,-9.802198410E0,-1.695913076E-1,-3.972085714E-1,9.811708798E0
2.198702773E0,-9.818947792E0,-1.743769497E-1,-3.852444589E-1,9.828049469E0
2.201146054E0,-9.818947792E0,-1.671984792E-1,-3.924229145E-1,9.828208729E0
2.203590221E0,-9.811769485E0,-1.959123611E-1,-4.211367965E-1,9.822757163E0
2.206035117E0,-9.816555023E0,-1.695913076E-1,-3.924229145E-1,9.825859223E0
2.208479232E0,-9.814162254E0,-1.815554202E-1,-4.115654826E-1,9.824465852E0
2.210922513E0,-9.802198410E0,-1.863410622E-1,-3.996013701E-1,9.812109759E0
2.213366679E0,-9.835697174E0,-1.983051747E-1,-3.804588020E-1,9.845050165E0
2.215811575E0,-9.806983948E0,-1.959123611E-1,-3.852444589E-1,9.816502896E0
2.218255690E0,-9.792626381E0,-1.863410622E-1,-4.115654826E-1,9.803042414E0
2.220698971E0,-9.814162254E0,-1.935195327E-1,-4.235295951E-1,9.825202689E0
2.223143086E0,-9.821340561E0,-1.911267042E-1,-3.972085714E-1,9.831227516E0
2.225588034E0,-9.826126099E0,-1.839482337E-1,-4.067798555E-1,9.836262548E0
2.228032148E0,-9.799804688E0,-1.983051747E-1,-4.115654826E-1,9.810447645E0
2.230475377E0,-9.811769485E0,-2.102692872E-1,-3.996013701E-1,9.822154288E0
2.232919544E0,-9.821340561E0,-2.102692872E-1,-3.924229145E-1,9.831426109E0
2.235364440E0,-9.814162254E0,-1.743769497E-1,-4.139583111E-1,9.824436348E0
2.237808554E0,-9.818947792E0,-1.815554202E-1,-4.091726840E-1,9.829146474E0
2.240251836E0,-9.795019150E0,-1.695913076E-1,-4.067798555E-1,9.804928924E0
2.242696002E0,-9.814162254E0,-1.839482337E-1,-4.283152521E-1,9.825226291E0
2.245140898E0,-9.811769485E0,-1.911267042E-1,-4.067798555E-1,9.822057814E0
2.247585013E0,-9.816555023E0,-1.791625917E-1,-4.043870270E-1,9.826514165E0
2.250028294E0,-9.818947792E0,-1.695913076E-1,-3.924229145E-1,9.828249727E0
2.252472461E0,-9.804591179E0,-1.767697781E-1,-3.804588020E-1,9.813562281E0
2.254917357E0,-9.811769485E0,-1.671984792E-1,-3.732803464E-1,9.820290932E0
2.257361471E0,-9.816555023E0,-1.839482337E-1,-3.876372576E-1,9.825927545E0
2.259804700E0,-9.823733330E0,-1.959123611E-1,-3.876372576E-1,9.833330099E0
2.262248867E0,-9.821340561E0,-1.887338907E-1,-3.996013701E-1,9.831278256E0
2.264693815E0,-9.802198410E0,-1.863410622E-1,-3.948157430E-1,9.811916028E0
2.267137929E0,-9.814162254E0,-1.743769497E-1,-4.163511395E-1,9.824537462E0
2.269581159E0,-9.811769485E0,-2.006980032E-1,-3.852444589E-1,9.821380423E0
2.272025325E0,-9.826126099E0,-1.911267042E-1,-4.043870270E-1,9.836300747E0
2.274470221E0,-9.816555023E0,-1.935195327E-1,-3.996013701E-1,9.826590639E0
2.276914336E0,-9.823733330E0,-1.911267042E-1,-3.780659735E-1,9.832863257E0
2.279357617E0,-9.811769485E0,-1.887338907E-1,-3.948157430E-1,9.821523323E0
2.281801784E0,-9.840482712E0,-1.959123611E-1,-3.900300860E-1,9.850157619E0
2.284246679E0,-9.811769485E0,-1.791625917E-1,-3.924229145E-1,9.821248160E0
2.286690794E0,-9.797411919E0,-1.983051747E-1,-4.019941986E-1,9.807660505E0
2.289134075E0,-9.814162254E0,-1.791625917E-1,-3.852444589E-1,9.823354482E0
2.291578242E0,-9.814162254E0,-1.959123611E-1,-3.948157430E-1,9.824054249E0
2.294023138E0,-9.826126099E0,-1.887338907E-1,-3.972085714E-1,9.835962039E0
2.296467252E0,-9.830911636E0,-1.743769497E-1,-4.235295951E-1,9.841575496E0
2.298910534E0,-9.809376717E0,-1.815554202E-1,-3.972085714E-1,9.819094082E0
2.301354648E0,-9.799804688E0,-1.911267042E-1,-3.972085714E-1,9.809713348E0
2.303799596E0,-9.818947792E0,-1.839482337E-1,-4.139583111E-1,9.829391343E0
2.306243607E0,-9.818947792E0,-1.743769497E-1,-3.876372576E-1,9.828143553E0
2.308686940E0,-9.823733330E0,-1.959123611E-1,-3.900300860E-1,9.833424717E0
2.311131107E0,-9.818947792E0,-1.743769497E-1,-3.876372576E-1,9.828143553E0
2.313576002E0,-9.809376717E0,-1.887338907E-1,-3.924229145E-1,9.819037009E0
2.316020117E0,-9.811769485E0,-1.767697781E-1,-4.067798555E-1,9.821788933E0
2.318463398E0,-9.821340561E0,-1.935195327E-1,-4.019941986E-1,9.831468840E0
2.320907565E0,-9.809376717E0,-1.863410622E-1,-3.900300860E-1,9.818895968E0
2.323352461E0,-9.811769485E0,-1.791625917E-1,-3.780659735E-1,9.820684984E0
2.325796575E0,-9.797411919E0,-1.935195327E-1,-3.876372576E-1,9.806986936E0
2.328239857E0,-9.804591179E0,-1.791625917E-1,-4.019941986E-1,9.814464160E0
2.330684023E0,-9.809376717E0,-1.815554202E-1,-3.876372576E-1,9.818711554E0
2.333128919E0,-9.830911636E0,-1.935195327E-1,-3.852444589E-1,9.840360090E0
2.335573034E0,-9.814162254E0,-1.767697781E-1,-4.283152521E-1,9.825094517E0
2.338016315E0,-9.833304405E0,-1.935195327E-1,-4.163511395E-1,9.844017148E0
2.340460429E0,-9.821340561E0,-2.006980032E-1,-3.972085714E-1,9.831418247E0
2.342905377E0,-9.797411919E0,-1.719841212E-1,-4.235295951E-1,9.808069951E0
2.345349492E0,-9.811769485E0,-1.911267042E-1,-4.043870270E-1,9.821959006E0
2.347792721E0,-9.809376717E0,-1.911267042E-1,-3.996013701E-1,9.819372803E0
2.350236888E0,-9.811769485E0,-1.983051747E-1,-3.804588020E-1,9.821145263E0
2.352681784E0,-9.811769485E0,-1.959123611E-1,-3.900300860E-1,9.821472678E0
2.355125898E0,-9.816555023E0,-1.911267042E-1,-4.091726840E-1,9.826937683E0
2.357569179E0,-9.816555023E0,-1.791625917E-1,-4.043870270E-1,9.826514165E0
2.360013346E0,-9.802198410E0,-1.911267042E-1,-4.139583111E-1,9.812796980E0
2.362458242E0,-9.818947792E0,-1.743769497E-1,-4.163511395E-1,9.829317949E0
2.364902357E0,-9.811769485E0,-1.815554202E-1,-3.924229145E-1,9.821292102E0
2.367345638E0,-9.811769485E0,-2.006980032E-1,-3.948157430E-1,9.821760514E0
2.369789804E0,-9.797411919E0,-1.863410622E-1,-3.948157430E-1,9.807134279E0
2.372234700E0,-9.826126099E0,-1.959123611E-1,-4.139583111E-1,9.836793036E0
2.374678815E0,-9.814162254E0,-1.839482337E-1,-4.163511395E-1,9.824712005E0
2.377122096E0,-9.811769485E0,-1.911267042E-1,-4.115654826E-1,9.822257174E0
2.379566263E0,-9.816555023E0,-1.959123611E-1,-3.972085714E-1,9.826541041E0
2.382011159E0,-9.802198410E0,-1.767697781E-1,-3.972085714E-1,9.811835500E0
2.384455273E0,-9.826126099E0,-1.911267042E-1,-4.067798555E-1,9.836399411E0
2.386898502E0,-9.816555023E0,-1.839482337E-1,-3.996013701E-1,9.826406807E0
2.389342669E0,-9.814162254E0,-1.767697781E-1,-3.900300860E-1,9.823499976E0
2.391787617E0,-9.818947792E0,-1.839482337E-1,-4.067798555E-1,9.829091644E0
2.394231732E0,-9.818947792E0,-1.863410622E-1,-3.972085714E-1,9.828745260E0
2.396674961E0,-9.835697174E0,-1.959123611E-1,-4.019941986E-1,9.845858007E0
2.399119127E0,-9.804591179E0,-1.767697781E-1,-3.972085714E-1,9.814225919E0
2.401564023E0,-9.806983948E0,-1.887338907E-1,-4.067798555E-1,9.817230999E0
2.404008138E0,-9.823733330E0,-1.815554202E-1,-3.924229145E-1,9.833244360E0
2.406451419E0,-9.790233612E0,-1.743769497E-1,-4.043870270E-1,9.800133181E0
2.408895586E0,-9.799804688E0,-1.791625917E-1,-4.139583111E-1,9.810180051E0
2.411340482E0,-9.830911636E0,-1.791625917E-1,-4.067798555E-1,9.840954867E0
2.413784596E0,-9.797411919E0,-1.911267042E-1,-3.852444589E-1,9.806845722E0
2.416227877E0,-9.799804688E0,-1.743769497E-1,-4.115654826E-1,9.809993139E0
2.418672044E0,-9.806983948E0,-1.624128371E-1,-4.115654826E-1,9.816959724E0
2.421116940E0,-9.785448074E0,-1.863410622E-1,-4.019941986E-1,9.795474279E0
2.423561054E0,-9.804591179E0,-1.767697781E-1,-3.900300860E-1,9.813938007E0
2.426004336E0,-9.823733330E0,-1.767697781E-1,-3.948157430E-1,9.833252949E0
2.428448502E0,-9.802198410E0,-1.887338907E-1,-4.043870270E-1,9.812351554E0
2.430893398E0,-9.816555023E0,-1.815554202E-1,-4.067798555E-1,9.826656845E0
2.433337513E0,-9.816555023E0,-1.839482337E-1,-3.972085714E-1,9.826309792E0
2.435780742E0,-9.828518867E0,-1.863410622E-1,-4.067798555E-1,9.838697880E0
2.438224909E0,-9.816555023E0,-1.911267042E-1,-3.900300860E-1,9.826159240E0
2.440669804E0,-9.818947792E0,-2.006980032E-1,-4.091726840E-1,9.829518692E0
2.443113919E0,-9.826126099E0,-1.815554202E-1,-4.067798555E-1,9.836218091E0
2.445557200E0,-9.799804688E0,-1.863410622E-1,-3.972085714E-1,9.809621275E0
2.448001367E0,-9.816555023E0,-1.983051747E-1,-3.972085714E-1,9.826589038E0
2.450446263E0,-9.809376717E0,-1.983051747E-1,-4.067798555E-1,9.819809894E0
2.452890377E0,-9.821340561E0,-2.030908167E-1,-4.211367965E-1,9.832463196E0
2.455333659E0,-9.823733330E0,-1.863410622E-1,-3.996013701E-1,9.833622973E0
2.457777825E0,-9.799804688E0,-1.815554202E-1,-4.067798555E-1,9.809923758E0
2.460222721E0,-9.828518867E0,-1.695913076E-1,-4.091726840E-1,9.838494124E0
2.462666836E0,-9.826126099E0,-1.648056656E-1,-4.019941986E-1,9.835726427E0
2.465110117E0,-9.818947792E0,-1.600200087E-1,-4.187439680E-1,9.829175380E0
2.467554284E0,-9.840482712E0,-1.815554202E-1,-4.235295951E-1,9.851265893E0
2.469999179E0,-9.809376717E0,-1.767697781E-1,-3.924229145E-1,9.818814331E0
2.472443294E0,-9.799804688E0,-1.719841212E-1,-4.043870270E-1,9.809652355E0
2.474886523E0,-9.814162254E0,-1.815554202E-1,-3.996013701E-1,9.823971925E0
2.477330690E0,-9.845269203E0,-1.815554202E-1,-4.019941986E-1,9.855145224E0
2.479775638E0,-9.821340561E0,-1.648056656E-1,-4.115654826E-1,9.831341590E0
2.482219752E0,-9.804591179E0,-1.815554202E-1,-3.804588020E-1,9.813649650E0
2.484662982E0,-9.804591179E0,-1.695913076E-1,-3.900300860E-1,9.813811332E0
2.487107148E0,-9.814162254E0,-1.863410622E-1,-4.019941986E-1,9.824159154E0
2.489552044E0,-9.828518867E0,-1.839482337E-1,-4.163511395E-1,9.839053224E0
2.491996159E0,-9.809376717E0,-1.863410622E-1,-3.972085714E-1,9.819183734E0
2.494439440E0,-9.811769485E0,-1.695913076E-1,-3.972085714E-1,9.821270605E0
2.496883607E0,-9.799804688E0,-1.791625917E-1,-4.043870270E-1,9.809780834E0
2.499328502E0,-9.799804688E0,-1.767697781E-1,-3.852444589E-1,9.808966957E0
2.501772617E0,-9.811769485E0,-1.959123611E-1,-3.996013701E-1,9.821857428E0
2.504215898E0,-9.799804688E0,-1.815554202E-1,-3.876372576E-1,9.809148634E0
2.506660065E0,-9.826126099E0,-1.791625917E-1,-4.043870270E-1,9.836075549E0
2.509104961E0,-9.806983948E0,-1.911267042E-1,-4.331009090E-1,9.818403127E0
2.511549075E0,-9.821340561E0,-1.863410622E-1,-3.828516304E-1,9.830566046E0
2.513992357E0,-9.833304405E0,-1.911267042E-1,-3.972085714E-1,9.843179344E0
2.516436471E0,-9.826126099E0,-1.935195327E-1,-3.948157430E-1,9.835958692E0
2.518881419E0,-9.809376717E0,-1.959123611E-1,-3.948157430E-1,9.819273532E0
2.521325534E0,-9.809376717E0,-1.887338907E-1,-3.900300860E-1,9.818941670E0
2.523768763E0,-9.814162254E0,-1.743769497E-1,-3.948157430E-1,9.823648383E0
2.526212929E0,-9.814162254E0,-1.791625917E-1,-4.043870270E-1,9.824123821E0
2.528657877E0,-9.811769485E0,-1.695913076E-1,-3.900300860E-1,9.820982900E0
2.531101888E0,-9.809376717E0,-1.695913076E-1,-4.163511395E-1,9.819673164E0
2.533545221E0,-9.809376717E0,-1.695913076E-1,-4.115654826E-1,9.819471418E0
2.535989388E0,-9.811769485E0,-2.030908167E-1,-4.139583111E-1,9.822597813E0
2.538434284E0,-9.833304405E0,-1.815554202E-1,-4.019941986E-1,9.843192431E0
2.540878398E0,-9.828518867E0,-1.911267042E-1,-3.948157430E-1,9.838302293E0
2.543321679E0,-9.816555023E0,-1.983051747E-1,-4.019941986E-1,9.826783645E0
2.545765846E0,-9.809376717E0,-1.935195327E-1,-3.900300860E-1,9.819034823E0
2.548210742E0,-9.816555023E0,-1.863410622E-1,-4.115654826E-1,9.826945693E0
2.550654857E0,-9.804591179E0,-1.863410622E-1,-3.684946895E-1,9.813282810E0
2.553098138E0,-9.799804688E0,-2.078764737E-1,-3.924229145E-1,9.809861380E0
2.555542304E0,-9.809376717E0,-1.911267042E-1,-4.019941986E-1,9.819470471E0
2.557987200E0,-9.804591179E0,-1.767697781E-1,-3.900300860E-1,9.813938007E0
2.560431315E0,-9.823733330E0,-1.815554202E-1,-3.852444589E-1,9.832960500E0
2.562874596E0,-9.814162254E0,-1.767697781E-1,-3.972085714E-1,9.823787608E0
2.565318763E0,-9.814162254E0,-1.767697781E-1,-3.996013701E-1,9.823884647E0
2.567763659E0,-9.826126099E0,-1.839482337E-1,-3.900300860E-1,9.835584097E0
2.570207773E0,-9.790233612E0,-1.648056656E-1,-4.235295951E-1,9.800776112E0
2.572651002E0,-9.816555023E0,-1.839482337E-1,-4.067798555E-1,9.826701345E0
2.575095169E0,-9.802198410E0,-1.935195327E-1,-4.067798555E-1,9.812543673E0
2.577540065E0,-9.802198410E0,-1.839482337E-1,-4.091726840E-1,9.812459065E0
2.579984179E0,-9.814162254E0,-1.839482337E-1,-3.828516304E-1,9.823349382E0
2.582427461E0,-9.806983948E0,-1.671984792E-1,-3.948157430E-1,9.816352121E0
2.584871627E0,-9.804591179E0,-1.791625917E-1,-3.996013701E-1,9.814366443E0
2.587316523E0,-9.818947792E0,-1.815554202E-1,-3.996013701E-1,9.828752686E0
2.589760638E0,-9.802198410E0,-1.767697781E-1,-3.900300860E-1,9.811547518E0
2.592203919E0,-9.816555023E0,-1.863410622E-1,-3.852444589E-1,9.825878526E0
2.594648086E0,-9.799804688E0,-1.576271951E-1,-3.948157430E-1,9.809021242E0
2.597092982E0,-9.811769485E0,-1.719841212E-1,-4.235295951E-1,9.822411939E0
2.599537096E0,-9.816555023E0,-1.791625917E-1,-3.924229145E-1,9.826029081E0
2.601980377E0,-9.811769485E0,-1.983051747E-1,-3.828516304E-1,9.821238249E0
2.604424544E0,-9.816555023E0,-1.719841212E-1,-3.924229145E-1,9.825900814E0
2.606869440E0,-9.806983948E0,-1.743769497E-1,-4.139583111E-1,9.817265554E0
2.609313554E0,-9.795019150E0,-1.959123611E-1,-4.091726840E-1,9.805519062E0
2.611756784E0,-9.804591179E0,-1.839482337E-1,-4.091726840E-1,9.814849333E0
2.614200950E0,-9.833304405E0,-1.911267042E-1,-3.972085714E-1,9.843179344E0
2.616645898E0,-9.811769485E0,-1.791625917E-1,-3.948157430E-1,9.821344060E0
2.619090013E0,-9.811769485E0,-1.767697781E-1,-3.972085714E-1,9.821397184E0
2.621533242E0,-9.814162254E0,-1.839482337E-1,-3.972085714E-1,9.823919399E0
2.623977409E0,-9.806983948E0,-1.935195327E-1,-3.924229145E-1,9.816739770E0
2.626422304E0,-9.802198410E0,-1.935195327E-1,-3.900300860E-1,9.811863582E0
2.628866419E0,-9.814162254E0,-2.102692872E-1,-4.067798555E-1,9.824839122E0
2.631309700E0,-9.828518867E0,-1.887338907E-1,-4.139583111E-1,9.839042895E0
2.633753867E0,-9.804591179E0,-1.983051747E-1,-3.804588020E-1,9.813973814E0
2.636198763E0,-9.792626381E0,-1.959123611E-1,-4.019941986E-1,9.802831857E0
2.638642877E0,-9.799804688E0,-1.935195327E-1,-4.091726840E-1,9.810251985E0
2.641086159E0,-9.797411919E0,-1.959123611E-1,-3.996013701E-1,9.807514630E0
2.643530325E0,-9.811769485E0,-1.911267042E-1,-3.828516304E-1,9.821095928E0
2.645975221E0,-9.806983948E0,-2.030908167E-1,-3.900300860E-1,9.816837755E0
2.648419336E0,-9.816555023E0,-1.767697781E-1,-3.972085714E-1,9.826178033E0
2.650862617E0,-9.809376717E0,-1.815554202E-1,-4.235295951E-1,9.820194054E0
2.653306784E0,-9.778269768E0,-1.983051747E-1,-4.019941986E-1,9.788538396E0
2.655751679E0,-9.811769485E0,-1.983051747E-1,-3.996013701E-1,9.821905448E0
2.658195794E0,-9.826126099E0,-1.983051747E-1,-3.900300860E-1,9.835863079E0
2.660639023E0,-9.818947792E0,-1.935195327E-1,-3.948157430E-1,9.828787566E0
2.663083190E0,-9.809376717E0,-1.719841212E-1,-4.139583111E-1,9.819613617E0
2.665528138E0,-9.821340561E0,-1.935195327E-1,-4.259224236E-1,9.832476297E0
2.667972252E0,-9.802198410E0,-1.935195327E-1,-4.163511395E-1,9.812945111E0
2.670415482E0,-9.818947792E0,-1.743769497E-1,-3.876372576E-1,9.828143553E0
2.672859648E0,-9.809376717E0,-1.767697781E-1,-4.091726840E-1,9.819498022E0
2.675304544E0,-9.823733330E0,-1.791625917E-1,-4.067798555E-1,9.833783891E0
2.677748659E0,-9.847661972E0,-1.791625917E-1,-3.876372576E-1,9.856916769E0
2.680191940E0,-9.818947792E0,-1.791625917E-1,-3.996013701E-1,9.828708777E0
2.682636107E0,-9.818947792E0,-1.863410622E-1,-4.139583111E-1,9.829436414E0
2.685081002E0,-9.818947792E0,-1.863410622E-1,-4.139583111E-1,9.829436414E0
2.687525117E0,-9.802198410E0,-1.791625917E-1,-4.019941986E-1,9.812073799E0
2.689968398E0,-9.804591179E0,-1.671984792E-1,-3.948157430E-1,9.813961636E0
2.692412565E0,-9.799804688E0,-1.983051747E-1,-4.019941986E-1,9.810050774E0
2.694857461E0,-9.811769485E0,-1.935195327E-1,-4.091726840E-1,9.822204057E0
2.697301575E0,-9.804591179E0,-1.839482337E-1,-4.091726840E-1,9.814849333E0
2.699744857E0,-9.799804688E0,-1.839482337E-1,-3.948157430E-1,9.809479514E0
2.702189023E0,-9.816555023E0,-1.935195327E-1,-3.828516304E-1,9.825923758E0
2.704633919E0,-9.816555023E0,-1.695913076E-1,-3.948157430E-1,9.825955079E0
2.707078034E0,-9.816555023E0,-1.887338907E-1,-3.996013701E-1,9.826497558E0
2.709521263E0,-9.814162254E0,-1.863410622E-1,-4.163511395E-1,9.824757097E0
2.711965429E0,-9.826126099E0,-1.983051747E-1,-4.067798555E-1,9.836541511E0
2.714410377E0,-9.804591179E0,-1.839482337E-1,-4.091726840E-1,9.814849333E0
2.716854492E0,-9.816555023E0,-2.078764737E-1,-4.043870270E-1,9.827079628E0
2.719297721E0,-9.828518867E0,-1.839482337E-1,-3.924229145E-1,9.838069720E0
2.721741888E0,-9.804591179E0,-1.815554202E-1,-4.163511395E-1,9.815106664E0
2.724186784E0,-9.811769485E0,-1.887338907E-1,-4.043870270E-1,9.821912736E0
2.726630898E0,-9.797411919E0,-1.791625917E-1,-4.043870270E-1,9.807390499E0
2.729074179E0,-9.823733330E0,-1.815554202E-1,-4.091726840E-1,9.833927048E0
2.731518346E0,-9.806983948E0,-1.863410622E-1,-3.924229145E-1,9.816600883E0
2.733963242E0,-9.802198410E0,-1.911267042E-1,-4.115654826E-1,9.812696328E0
2.736407357E0,-9.823733330E0,-1.791625917E-1,-4.019941986E-1,9.833587092E0
2.738850638E0,-9.806983948E0,-1.887338907E-1,-4.043870270E-1,9.817132142E0
2.741294804E0,-9.811769485E0,-1.911267042E-1,-3.900300860E-1,9.821378382E0
2.743739700E0,-9.806983948E0,-1.791625917E-1,-3.756731451E-1,9.815811922E0
2.746183815E0,-9.814162254E0,-1.719841212E-1,-3.876372576E-1,9.823320311E0
2.748627096E0,-9.814162254E0,-1.887338907E-1,-3.948157430E-1,9.823913716E0
2.751071263E0,-9.802198410E0,-2.054836452E-1,-3.804588020E-1,9.811731045E0
2.753516159E0,-9.806983948E0,-1.719841212E-1,-3.924229145E-1,9.816338851E0
2.755960273E0,-9.838089943E0,-1.983051747E-1,-4.043870270E-1,9.848394160E0
2.758403554E0,-9.828518867E0,-1.935195327E-1,-4.043870270E-1,9.838737816E0
2.760847669E0,-9.821340561E0,-1.863410622E-1,-4.067798555E-1,9.831527005E0
2.763292617E0,-9.821340561E0,-1.935195327E-1,-3.972085714E-1,9.831274326E0
2.765736732E0,-9.806983948E0,-1.959123611E-1,-4.067798555E-1,9.817371627E0
2.768179961E0,-9.821340561E0,-1.983051747E-1,-3.948157430E-1,9.831273306E0
2.770624127E0,-9.809376717E0,-1.887338907E-1,-4.187439680E-1,9.820124162E0
2.773069075E0,-9.816555023E0,-1.863410622E-1,-4.067798555E-1,9.826746428E0
2.775513086E0,-9.799804688E0,-2.078764737E-1,-4.019941986E-1,9.810248920E0
2.777956419E0,-9.823733330E0,-1.959123611E-1,-3.996013701E-1,9.833809000E0
2.780400586E0,-9.823733330E0,-1.911267042E-1,-4.259224236E-1,9.834819564E0
2.782845482E0,-9.816555023E0,-1.815554202E-1,-3.972085714E-1,9.826265290E0
2.785289596E0,-9.799804688E0,-1.767697781E-1,-3.972085714E-1,9.809444129E0
2.787732877E0,-9.830911636E0,-1.911267042E-1,-3.996013701E-1,9.840885848E0
2.790177044E0,-9.799804688E0,-1.863410622E-1,-3.732803464E-1,9.808681518E0
2.792621940E0,-9.816555023E0,-1.839482337E-1,-3.972085714E-1,9.826309792E0
2.795066054E0,-9.806983948E0,-1.887338907E-1,-3.876372576E-1,9.816456452E0
2.797509336E0,-9.802198410E0,-1.911267042E-1,-3.948157430E-1,9.812008080E0
2.799953502E0,-9.818947792E0,-1.863410622E-1,-4.043870270E-1,9.829037979E0
2.802398398E0,-9.830911636E0,-1.911267042E-1,-4.091726840E-1,9.841279150E0
2.804842513E0,-9.814162254E0,-1.959123611E-1,-4.139583111E-1,9.824842181E0
2.807285794E0,-9.799804688E0,-1.671984792E-1,-4.115654826E-1,9.809868164E0
2.809729961E0,-9.802198410E0,-1.791625917E-1,-3.924229145E-1,9.811686330E0
2.812174857E0,-9.840482712E0,-1.815554202E-1,-3.708875179E-1,9.849143106E0
2.814618971E0,-9.809376717E0,-1.863410622E-1,-4.067798555E-1,9.819575572E0
2.817062200E0,-9.821340561E0,-1.911267042E-1,-3.876372576E-1,9.830845461E0
2.819506367E0,-9.826126099E0,-1.767697781E-1,-3.876372576E-1,9.835357864E0
2.821951315E0,-9.814162254E0,-1.911267042E-1,-3.804588020E-1,9.823393460E0
2.824395429E0,-9.806983948E0,-1.959123611E-1,-3.804588020E-1,9.816316249E0
2.826838659E0,-9.797411919E0,-1.887338907E-1,-4.163511395E-1,9.808070608E0
2.829282825E0,-9.814162254E0,-1.648056656E-1,-3.900300860E-1,9.823291970E0
2.831727721E0,-9.811769485E0,-1.911267042E-1,-3.852444589E-1,9.821189498E0
2.834171836E0,-9.802198410E0,-1.767697781E-1,-3.948157430E-1,9.811738923E0
2.836615117E0,-9.799804688E0,-1.911267042E-1,-3.876372576E-1,9.809330455E0
2.839059284E0,-9.811769485E0,-1.719841212E-1,-4.115654826E-1,9.821903335E0
2.841504179E0,-9.802198410E0,-1.935195327E-1,-3.972085714E-1,9.812151554E0
2.843948294E0,-9.814162254E0,-1.887338907E-1,-3.828516304E-1,9.823440162E0
2.846391575E0,-9.818947792E0,-1.719841212E-1,-4.067798555E-1,9.828875019E0
2.848835742E0,-9.802198410E0,-1.887338907E-1,-4.067798555E-1,9.812450459E0
2.851280638E0,-9.818947792E0,-1.935195327E-1,-3.900300860E-1,9.828596493E0
2.853724752E0,-9.814162254E0,-1.935195327E-1,-3.900300860E-1,9.823815655E0
2.856168034E0,-9.818947792E0,-1.959123611E-1,-4.091726840E-1,9.829422144E0
2.858612200E0,-9.811769485E0,-1.767697781E-1,-4.019941986E-1,9.821591894E0
2.861057096E0,-9.826126099E0,-1.815554202E-1,-3.948157430E-1,9.835730575E0
2.863501211E0,-9.823733330E0,-1.863410622E-1,-4.163511395E-1,9.834317861E0
2.865944492E0,-9.830911636E0,-1.767697781E-1,-4.163511395E-1,9.841311875E0
2.868388659E0,-9.799804688E0,-2.030908167E-1,-4.067798555E-1,9.810345949E0
2.870833554E0,-9.804591179E0,-1.863410622E-1,-3.948157430E-1,9.814306427E0
2.873277669E0,-9.806983948E0,-1.911267042E-1,-3.661018610E-1,9.815675939E0
2.875720898E0,-9.806983948E0,-1.935195327E-1,-3.852444589E-1,9.816455432E0
2.878165065E0,-9.799804688E0,-1.887338907E-1,-3.996013701E-1,9.809764199E0
2.880610013E0,-9.814162254E0,-1.695913076E-1,-3.828516304E-1,9.823091028E0
2.883054023E0,-9.804591179E0,-1.671984792E-1,-4.067798555E-1,9.814450233E0
2.885497357E0,-9.821340561E0,-1.791625917E-1,-3.972085714E-1,9.831002202E0
2.887941523E0,-9.811769485E0,-1.959123611E-1,-4.163511395E-1,9.822553149E0
2.890386419E0,-9.809376717E0,-1.935195327E-1,-4.115654826E-1,9.819913825E0
2.892830534E0,-9.809376717E0,-1.959123611E-1,-3.780659735E-1,9.818614317E0
2.895273815E0,-9.806983948E0,-1.911267042E-1,-4.115654826E-1,9.817476749E0
2.897717982E0,-9.811769485E0,-1.959123611E-1,-4.091726840E-1,9.822251492E0
2.900162877E0,-9.802198410E0,-1.743769497E-1,-4.043870270E-1,9.812085908E0
2.902606992E0,-9.804591179E0,-1.911267042E-1,-4.043870270E-1,9.814788152E0
2.905050273E0,-9.814162254E0,-2.006980032E-1,-4.139583111E-1,9.824938775E0
2.907494440E0,-9.809376717E0,-1.983051747E-1,-4.043870270E-1,9.819711064E0
2.909939336E0,-9.821340561E0,-1.911267042E-1,-3.900300860E-1,9.830940102E0
2.912383450E0,-9.802198410E0,-1.887338907E-1,-3.996013701E-1,9.812155492E0
2.914826732E0,-9.826126099E0,-1.863410622E-1,-3.972085714E-1,9.835916416E0
2.917270898E0,-9.823733330E0,-1.839482337E-1,-3.996013701E-1,9.833577922E0
2.919715794E0,-9.809376717E0,-2.006980032E-1,-3.876372576E-1,9.819084168E0
2.922159909E0,-9.795019150E0,-1.839482337E-1,-4.067798555E-1,9.805187757E0
2.924603138E0,-9.809376717E0,-1.815554202E-1,-4.211367965E-1,9.820091147E0
2.927047304E0,-9.806983948E0,-1.887338907E-1,-4.139583111E-1,9.817531060E0
2.929492252E0,-9.799804688E0,-1.935195327E-1,-3.972085714E-1,9.809760261E0
2.931936367E0,-9.816555023E0,-1.911267042E-1,-4.139583111E-1,9.827138110E0
2.934379596E0,-9.809376717E0,-1.743769497E-1,-4.139583111E-1,9.819655817E0
2.936823763E0,-9.811769485E0,-1.839482337E-1,-3.900300860E-1,9.821241309E0
2.939268659E0,-9.806983948E0,-1.887338907E-1,-3.852444589E-1,9.816362255E0
2.941712773E0,-9.809376717E0,-1.863410622E-1,-3.948157430E-1,9.819087230E0
2.944156054E0,-9.818947792E0,-1.600200087E-1,-4.115654826E-1,9.828872178E0
2.946600221E0,-9.806983948E0,-1.887338907E-1,-4.067798555E-1,9.817230999E0
2.949045117E0,-9.795019150E0,-2.054836452E-1,-4.091726840E-1,9.805714964E0
2.951489232E0,-9.816555023E0,-1.839482337E-1,-3.948157430E-1,9.826213357E0
2.953932513E0,-9.806983948E0,-1.911267042E-1,-4.067798555E-1,9.817277292E0
2.956376679E0,-9.814162254E0,-1.839482337E-1,-4.019941986E-1,9.824114059E0
2.958821575E0,-9.816555023E0,-1.911267042E-1,-4.067798555E-1,9.826838342E0
2.961265690E0,-9.799804688E0,-1.719841212E-1,-3.924229145E-1,9.809166437E0
2.963708971E0,-9.809376717E0,-1.767697781E-1,-4.043870270E-1,9.819299771E0
2.966153138E0,-9.795019150E0,-1.887338907E-1,-3.876372576E-1,9.804503214E0
2.968598034E0,-9.816555023E0,-1.983051747E-1,-4.067798555E-1,9.826980580E0
2.971042148E0,-9.818947792E0,-1.624128371E-1,-3.972085714E-1,9.828320727E0
2.973485429E0,-9.826126099E0,-1.767697781E-1,-3.804588020E-1,9.835077557E0
2.975929596E0,-9.802198410E0,-1.863410622E-1,-3.876372576E-1,9.811629799E0
2.978374492E0,-9.828518867E0,-1.935195327E-1,-3.900300860E-1,9.838158182E0
2.980818607E0,-9.806983948E0,-1.839482337E-1,-3.972085714E-1,9.816748227E0
2.983261836E0,-9.818947792E0,-1.863410622E-1,-4.091726840E-1,9.829236034E0
2.985706054E0,-9.806983948E0,-1.959123611E-1,-4.163511395E-1,9.817772867E0
2.988150950E0,-9.802198410E0,-1.935195327E-1,-3.972085714E-1,9.812151554E0
2.990595065E0,-9.804591179E0,-1.863410622E-1,-3.972085714E-1,9.814402979E0
2.993038294E0,-9.802198410E0,-1.624128371E-1,-3.828516304E-1,9.811016612E0
2.995482461E0,-9.821340561E0,-1.887338907E-1,-4.163511395E-1,9.831973310E0
2.997927409E0,-9.826126099E0,-1.935195327E-1,-3.924229145E-1,9.835862934E0
3.000371419E0,-9.797411919E0,-1.767697781E-1,-4.019941986E-1,9.807248707E0
3.002814752E0,-9.790233612E0,-1.791625917E-1,-3.972085714E-1,9.799925921E0
3.005258919E0,-9.823733330E0,-1.911267042E-1,-3.996013701E-1,9.833714822E0
3.007703815E0,-9.811769485E0,-1.839482337E-1,-4.043870270E-1,9.821821942E0
3.010147929E0,-9.804591179E0,-1.791625917E-1,-4.019941986E-1,9.814464160E0
3.012591211E0,-9.830911636E0,-2.054836452E-1,-4.067798555E-1,9.841469249E0
3.015035377E0,-9.809376717E0,-2.078764737E-1,-4.211367965E-1,9.820613036E0
3.017480273E0,-9.816555023E0,-2.006980032E-1,-4.043870270E-1,9.826930400E0
3.019924388E0,-9.802198410E0,-1.911267042E-1,-3.900300860E-1,9.811816680E0
3.022367669E0,-9.809376717E0,-1.863410622E-1,-4.019941986E-1,9.819378488E0
3.024811836E0,-9.799804688E0,-1.911267042E-1,-3.900300860E-1,9.809425304E0
3.027256732E0,-9.826126099E0,-2.054836452E-1,-3.852444589E-1,9.835821823E0
3.029700846E0,-9.818947792E0,-1.815554202E-1,-3.996013701E-1,9.828752686E0
3.032144127E0,-9.816555023E0,-1.767697781E-1,-3.876372576E-1,9.825795781E0
3.034588294E0,-9.804591179E0,-2.006980032E-1,-4.067798555E-1,9.815078080E0
3.037033190E0,-9.816555023E0,-1.671984792E-1,-4.067798555E-1,9.826402073E0
3.039477304E0,-9.811769485E0,-1.887338907E-1,-3.924229145E-1,9.821427425E0
3.041920586E0,-9.811769485E0,-1.839482337E-1,-3.828516304E-1,9.820958851E0
3.044364752E0,-9.818947792E0,-2.078764737E-1,-3.996013701E-1,9.829274115E0
3.046809648E0,-9.823733330E0,-1.911267042E-1,-3.996013701E-1,9.833714822E0
3.049253763E0,-9.792626381E0,-1.911267042E-1,-4.019941986E-1,9.802737382E0
3.051696992E0,-9.799804688E0,-2.078764737E-1,-4.067798555E-1,9.810446187E0
3.054141159E0,-9.804591179E0,-1.911267042E-1,-4.235295951E-1,9.815595495E0
3.056586054E0,-9.818947792E0,-1.887338907E-1,-3.972085714E-1,9.828790916E0
3.059030221E0,-9.814162254E0,-1.935195327E-1,-3.852444589E-1,9.823626818E0
3.061473450E0,-9.816555023E0,-1.911267042E-1,-3.972085714E-1,9.826446794E0
3.063917617E0,-9.802198410E0,-1.935195327E-1,-4.139583111E-1,9.812843877E0
3.066362513E0,-9.790233612E0,-1.767697781E-1,-4.019941986E-1,9.800077605E0
3.068806627E0,-9.804591179E0,-1.983051747E-1,-3.732803464E-1,9.813698148E0
3.071249909E0,-9.811769485E0,-1.839482337E-1,-3.900300860E-1,9.821241309E0
3.073694075E0,-9.806983948E0,-1.815554202E-1,-3.996013701E-1,9.816800791E0
3.076138971E0,-9.821340561E0,-1.863410622E-1,-4.091726840E-1,9.831626299E0
3.078583086E0,-9.823733330E0,-1.671984792E-1,-3.900300860E-1,9.832894555E0
3.081026367E0,-9.845269203E0,-1.743769497E-1,-3.996013701E-1,9.854918278E0
3.083470534E0,-9.811769485E0,-1.959123611E-1,-4.043870270E-1,9.822053296E0
3.085915429E0,-9.840482712E0,-1.911267042E-1,-4.067798555E-1,9.850741052E0
3.088359544E0,-9.814162254E0,-1.815554202E-1,-3.996013701E-1,9.823971925E0
3.090802825E0,-9.814162254E0,-1.815554202E-1,-3.900300860E-1,9.823587257E0
3.093246992E0,-9.830911636E0,-2.006980032E-1,-3.948157430E-1,9.840883231E0
3.095691888E0,-9.809376717E0,-2.054836452E-1,-4.187439680E-1,9.820460356E0
3.098136002E0,-9.823733330E0,-1.839482337E-1,-4.139583111E-1,9.834171799E0
3.100579284E0,-9.821340561E0,-1.887338907E-1,-4.043870270E-1,9.831473936E0
3.103023450E0,-9.811769485E0,-1.935195327E-1,-4.091726840E-1,9.822204057E0
3.105468346E0,-9.814162254E0,-1.959123611E-1,-4.115654826E-1,9.824741653E0
3.107912461E0,-9.811769485E0,-1.959123611E-1,-4.115654826E-1,9.822351462E0
3.110355690E0,-9.816555023E0,-1.911267042E-1,-3.948157430E-1,9.826350361E0
3.112799909E0,-9.804591179E0,-1.959123611E-1,-4.019941986E-1,9.814784214E0
3.115244804E0,-9.830911636E0,-1.911267042E-1,-4.283152521E-1,9.842093628E0
3.117688919E0,-9.816555023E0,-1.767697781E-1,-3.900300860E-1,9.825890471E0
3.120132148E0,-9.828518867E0,-1.815554202E-1,-3.876372576E-1,9.837835542E0
3.122576315E0,-9.802198410E0,-1.815554202E-1,-3.996013701E-1,9.812020042E0
3.125021263E0,-9.790233612E0,-2.102692872E-1,-4.019941986E-1,9.800739089E0
3.127465377E0,-9.816555023E0,-1.815554202E-1,-3.732803464E-1,9.825327125E0
3.129908607E0,-9.826126099E0,-1.959123611E-1,-3.876372576E-1,9.835720533E0
3.132352773E0,-9.804591179E0,-1.911267042E-1,-3.948157430E-1,9.814398457E0
3.134797669E0,-9.816555023E0,-1.887338907E-1,-4.043870270E-1,9.826693334E0
3.137241784E0,-9.826126099E0,-1.887338907E-1,-4.043870270E-1,9.836254544E0
3.139685065E0,-9.818947792E0,-2.030908167E-1,-4.211367965E-1,9.830073134E0
3.142129232E0,-9.814162254E0,-2.054836452E-1,-4.091726840E-1,9.824837229E0
3.144574127E0,-9.804591179E0,-1.887338907E-1,-4.163511395E-1,9.815242072E0
3.147018242E0,-9.795019150E0,-1.863410622E-1,-3.972085714E-1,9.804840528E0
3.149461523E0,-9.811769485E0,-1.815554202E-1,-4.091726840E-1,9.821975621E0
3.151905690E0,-9.814162254E0,-1.935195327E-1,-4.163511395E-1,9.824895869E0
3.154350586E0,-9.826126099E0,-1.863410622E-1,-3.948157430E-1,9.835820076E0
3.156794700E0,-9.821340561E0,-1.887338907E-1,-4.067798555E-1,9.831572649E0
3.159237982E0,-9.830911636E0,-1.815554202E-1,-4.139583111E-1,9.841298057E0
3.161682148E0,-9.799804688E0,-1.719841212E-1,-4.187439680E-1,9.810254684E0
3.164127044E0,-9.833304405E0,-1.743769497E-1,-4.091726840E-1,9.843358427E0
3.166571159E0,-9.816555023E0,-1.887338907E-1,-3.900300860E-1,9.826112989E0
3.169014440E0,-9.809376717E0,-1.887338907E-1,-3.948157430E-1,9.819132931E0
3.171458607E0,-9.816555023E0,-1.839482337E-1,-4.067798555E-1,9.826701345E0
3.173903502E0,-9.818947792E0,-1.983051747E-1,-4.043870270E-1,9.829272076E0
3.176347617E0,-9.804591179E0,-2.054836452E-1,-3.804588020E-1,9.814121490E0
3.178790898E0,-9.804591179E0,-1.815554202E-1,-4.043870270E-1,9.814606432E0
3.181235013E0,-9.811769485E0,-2.078764737E-1,-4.019941986E-1,9.822200996E0
3.183679961E0,-9.806983948E0,-1.911267042E-1,-3.948157430E-1,9.816788835E0
3.186124075E0,-9.814162254E0,-1.935195327E-1,-4.091726840E-1,9.824594284E0
3.188567304E0,-9.792626381E0,-1.839482337E-1,-3.996013701E-1,9.802502213E0
3.191011471E0,-9.809376717E0,-1.815554202E-1,-4.067798555E-1,9.819485923E0
3.193456419E0,-9.823733330E0,-1.791625917E-1,-4.019941986E-1,9.833587092E0
3.195900534E0,-9.811769485E0,-1.863410622E-1,-3.996013701E-1,9.821671176E0
3.198343763E0,-9.826126099E0,-2.054836452E-1,-4.091726840E-1,9.836788090E0
3.200787929E0,-9.809376717E0,-1.887338907E-1,-4.211367965E-1,9.820226487E0
3.203232825E0,-9.814162254E0,-1.863410622E-1,-3.900300860E-1,9.823676868E0
3.205676940E0,-9.802198410E0,-1.791625917E-1,-4.163511395E-1,9.812672479E0
3.208120221E0,-9.809376717E0,-1.863410622E-1,-4.187439680E-1,9.820078466E0
3.210564388E0,-9.821340561E0,-1.839482337E-1,-4.019941986E-1,9.831285099E0
3.213009284E0,-9.802198410E0,-1.839482337E-1,-3.852444589E-1,9.811490402E0
3.215453398E0,-9.799804688E0,-2.006980032E-1,-3.972085714E-1,9.809904498E0
3.217896679E0,-9.792626381E0,-1.959123611E-1,-3.972085714E-1,9.802636775E0
3.220340846E0,-9.787840843E0,-2.006980032E-1,-3.996013701E-1,9.798050281E0
3.222785742E0,-9.806983948E0,-1.935195327E-1,-3.924229145E-1,9.816739770E0
3.225229857E0,-9.814162254E0,-1.863410622E-1,-4.187439680E-1,9.824858791E0
3.227673138E0,-9.823733330E0,-1.911267042E-1,-4.019941986E-1,9.833812348E0
3.230117304E0,-9.814162254E0,-1.863410622E-1,-4.019941986E-1,9.824159154E0
3.232562200E0,-9.828518867E0,-1.815554202E-1,-3.996013701E-1,9.838314223E0
3.235006315E0,-9.806983948E0,-1.839482337E-1,-4.163511395E-1,9.817541412E0
3.237449596E0,-9.828518867E0,-1.791625917E-1,-4.019941986E-1,9.838367837E0
3.239893711E0,-9.823733330E0,-2.054836452E-1,-4.067798555E-1,9.834298649E0
3.242338659E0,-9.814162254E0,-2.030908167E-1,-4.067798555E-1,9.824688111E0
3.244782773E0,-9.821340561E0,-1.863410622E-1,-3.900300860E-1,9.830848228E0
3.247226054E0,-9.809376717E0,-1.983051747E-1,-4.019941986E-1,9.819612816E0
3.249670221E0,-9.809376717E0,-1.839482337E-1,-3.876372576E-1,9.818756090E0
3.252115117E0,-9.797411919E0,-1.959123611E-1,-4.307080805E-1,9.808831297E0
3.254559232E0,-9.814162254E0,-1.815554202E-1,-4.235295951E-1,9.824974323E0
3.257002461E0,-9.795019150E0,-2.006980032E-1,-3.924229145E-1,9.804931187E0
3.259446627E0,-9.804591179E0,-1.671984792E-1,-4.067798555E-1,9.814450233E0
3.261891575E0,-9.823733330E0,-2.054836452E-1,-3.948157430E-1,9.833811038E0
3.264335690E0,-9.809376717E0,-1.863410622E-1,-3.996013701E-1,9.819280820E0
3.266778919E0,-9.802198410E0,-1.695913076E-1,-4.043870270E-1,9.812002026E0
3.269223086E0,-9.797411919E0,-1.887338907E-1,-4.043870270E-1,9.807570018E0
3.271667982E0,-9.816555023E0,-2.078764737E-1,-3.972085714E-1,9.826786850E0
3.274112096E0,-9.811769485E0,-1.983051747E-1,-3.972085714E-1,9.821808389E0
3.276555377E0,-9.826126099E0,-1.815554202E-1,-3.924229145E-1,9.835634815E0
3.278999544E0,-9.806983948E0,-1.839482337E-1,-3.852444589E-1,9.816271410E0
3.281444440E0,-9.811769485E0,-1.791625917E-1,-3.996013701E-1,9.821537605E0
3.283888554E0,-9.804591179E0,-2.006980032E-1,-4.067798555E-1,9.815078080E0
3.286331836E0,-9.823733330E0,-1.863410622E-1,-3.876372576E-1,9.833144063E0
3.288776002E0,-9.809376717E0,-1.648056656E-1,-3.852444589E-1,9.818321943E0
3.291220898E0,-9.818947792E0,-1.839482337E-1,-4.115654826E-1,9.829290862E0
3.293665013E0,-9.816555023E0,-1.863410622E-1,-3.972085714E-1,9.826354877E0
3.296108294E0,-9.816555023E0,-1.863410622E-1,-4.067798555E-1,9.826746428E0
3.298552461E0,-9.806983948E0,-1.767697781E-1,-4.019941986E-1,9.816811144E0
3.300997357E0,-9.806983948E0,-1.743769497E-1,-3.900300860E-1,9.816285700E0
3.303441471E0,-9.811769485E0,-2.030908167E-1,-4.019941986E-1,9.822100878E0
3.305884752E0,-9.818947792E0,-1.959123611E-1,-4.235295951E-1,9.830030250E0
3.308328919E0,-9.826126099E0,-1.648056656E-1,-3.996013701E-1,9.835628921E0
3.310773815E0,-9.818947792E0,-1.911267042E-1,-3.948157430E-1,9.828740745E0
3.313217929E0,-9.804591179E0,-1.935195327E-1,-4.091726840E-1,9.815033382E0
3.315661211E0,-9.804591179E0,-2.030908167E-1,-3.948157430E-1,9.814638737E0
3.318105377E0,-9.809376717E0,-1.791625917E-1,-3.948157430E-1,9.818953624E0
3.320550273E0,-9.816555023E0,-1.959123611E-1,-4.019941986E-1,9.826735649E0
3.322994388E0,-9.797411919E0,-1.935195327E-1,-3.852444589E-1,9.806892648E0
3.325437617E0,-9.814162254E0,-1.767697781E-1,-3.852444589E-1,9.823311132E0
3.327881836E0,-9.797411919E0,-1.839482337E-1,-3.900300860E-1,9.806897610E0
3.330326732E0,-9.804591179E0,-1.911267042E-1,-3.900300860E-1,9.814207103E0
3.332770846E0,-9.814162254E0,-1.815554202E-1,-4.091726840E-1,9.824365904E0
3.335214075E0,-9.818947792E0,-1.887338907E-1,-3.876372576E-1,9.828408766E0
3.337658242E0,-9.804591179E0,-2.078764737E-1,-3.948157430E-1,9.814738931E0
3.340103190E0,-9.821340561E0,-1.791625917E-1,-3.972085714E-1,9.831002202E0
3.342547304E0,-9.818947792E0,-1.959123611E-1,-4.187439680E-1,9.829825223E0
3.344990534E0,-9.823733330E0,-1.863410622E-1,-4.091726840E-1,9.834016566E0
3.347434700E0,-9.816555023E0,-1.887338907E-1,-3.900300860E-1,9.826112989E0
3.349879596E0,-9.806983948E0,-1.767697781E-1,-3.804588020E-1,9.815952863E0
3.352323711E0,-9.811769485E0,-1.935195327E-1,-4.163511395E-1,9.822505715E0
3.354766992E0,-9.802198410E0,-1.839482337E-1,-4.235295951E-1,9.813068223E0
3.357211159E0,-9.809376717E0,-1.719841212E-1,-4.163511395E-1,9.819714781E0
3.359656054E0,-9.802198410E0,-1.863410622E-1,-3.828516304E-1,9.811441894E0
3.362100169E0,-9.806983948E0,-1.863410622E-1,-3.972085714E-1,9.816793356E0
3.364543450E0,-9.823733330E0,-1.959123611E-1,-3.996013701E-1,9.833809000E0
3.366987617E0,-9.806983948E0,-1.815554202E-1,-4.067798555E-1,9.817095618E0
3.369432513E0,-9.809376717E0,-1.815554202E-1,-4.115654826E-1,9.819685335E0
3.371876627E0,-9.811769485E0,-2.006980032E-1,-3.948157430E-1,9.821760514E0
3.374319909E0,-9.814162254E0,-1.863410622E-1,-4.067798555E-1,9.824356142E0
3.376764075E0,-9.809376717E0,-1.887338907E-1,-3.924229145E-1,9.819037009E0
3.379208971E0,-9.821340561E0,-1.863410622E-1,-4.043870270E-1,9.831428293E0
3.381653086E0,-9.799804688E0,-2.006980032E-1,-4.115654826E-1,9.810496305E0
3.384096367E0,-9.792626381E0,-2.006980032E-1,-4.019941986E-1,9.802928668E0
3.386540534E0,-9.823733330E0,-1.815554202E-1,-3.948157430E-1,9.833340143E0
3.388985429E0,-9.828518867E0,-1.911267042E-1,-4.091726840E-1,9.838888902E0
3.391429544E0,-9.806983948E0,-1.791625917E-1,-3.972085714E-1,9.816659719E0
3.393872825E0,-9.823733330E0,-1.863410622E-1,-4.019941986E-1,9.833720499E0
3.396316992E0,-9.818947792E0,-1.815554202E-1,-4.091726840E-1,9.829146474E0
3.398761888E0,-9.814162254E0,-1.839482337E-1,-4.139583111E-1,9.824610893E0
3.401206002E0,-9.811769485E0,-2.102692872E-1,-3.924229145E-1,9.821864861E0
3.403649284E0,-9.816555023E0,-1.959123611E-1,-3.852444589E-1,9.826064699E0
3.406093450E0,-9.802198410E0,-1.887338907E-1,-4.019941986E-1,9.812253232E0
3.408538346E0,-9.797411919E0,-1.791625917E-1,-4.043870270E-1,9.807390499E0
3.410982461E0,-9.806983948E0,-1.887338907E-1,-4.019941986E-1,9.817033868E0
3.413425690E0,-9.838089943E0,-1.719841212E-1,-4.067798555E-1,9.847997873E0
3.415869857E0,-9.814162254E0,-1.863410622E-1,-3.972085714E-1,9.823964495E0
3.418314804E0,-9.804591179E0,-1.695913076E-1,-4.067798555E-1,9.814491288E0
3.420758919E0,-9.814162254E0,-1.815554202E-1,-3.924229145E-1,9.823682551E0
3.423202148E0,-9.804591179E0,-1.767697781E-1,-3.876372576E-1,9.813843201E0
3.425646315E0,-9.814162254E0,-1.743769497E-1,-3.996013701E-1,9.823841882E0
3.428091263E0,-9.811769485E0,-1.791625917E-1,-3.972085714E-1,9.821440542E0
3.430535377E0,-9.811769485E0,-1.887338907E-1,-3.996013701E-1,9.821716865E0
3.432978607E0,-9.823733330E0,-1.983051747E-1,-4.139583111E-1,9.834450821E0
3.435422773E0,-9.811769485E0,-2.126621157E-1,-3.852444589E-1,9.821632191E0
3.437867669E0,-9.804591179E0,-1.911267042E-1,-3.900300860E-1,9.814207103E0
3.440311784E0,-9.802198410E0,-1.935195327E-1,-3.972085714E-1,9.812151554E0
3.442755065E0,-9.804591179E0,-1.719841212E-1,-4.163511395E-1,9.814934284E0
3.445199232E0,-9.790233612E0,-1.839482337E-1,-4.067798555E-1,9.800407185E0
3.447644127E0,-9.828518867E0,-1.719841212E-1,-4.187439680E-1,9.838938366E0
3.450088242E0,-9.821340561E0,-1.935195327E-1,-4.115654826E-1,9.831864847E0
3.452531523E0,-9.835697174E0,-2.006980032E-1,-4.139583111E-1,9.846450125E0
3.454975690E0,-9.818947792E0,-1.791625917E-1,-3.924229145E-1,9.828419543E0
3.457420586E0,-9.792626381E0,-1.863410622E-1,-4.019941986E-1,9.802645243E0
3.459864700E0,-9.814162254E0,-2.054836452E-1,-3.948157430E-1,9.824249781E0
3.462307982E0,-9.814162254E0,-1.935195327E-1,-4.067798555E-1,9.824494919E0
3.464752148E0,-9.806983948E0,-2.054836452E-1,-3.924229145E-1,9.816982908E0
3.467197044E0,-9.816555023E0,-1.935195327E-1,-3.924229145E-1,9.826301343E0
3.469641159E0,-9.809376717E0,-2.006980032E-1,-3.876372576E-1,9.819084168E0
3.472084440E0,-9.811769485E0,-1.863410622E-1,-3.900300860E-1,9.821286418E0
3.474528607E0,-9.802198410E0,-1.863410622E-1,-3.996013701E-1,9.812109759E0
3.476973502E0,-9.816555023E0,-1.695913076E-1,-4.019941986E-1,9.826246133E0
3.479417617E0,-9.821340561E0,-1.839482337E-1,-4.211367965E-1,9.832086430E0
3.481860898E0,-9.799804688E0,-2.054836452E-1,-3.852444589E-1,9.809526428E0
3.484305065E0,-9.826126099E0,-1.648056656E-1,-4.235295951E-1,9.836630131E0
3.486749961E0,-9.823733330E0,-1.959123611E-1,-3.948157430E-1,9.833615696E0
3.489194075E0,-9.816555023E0,-1.959123611E-1,-3.996013701E-1,9.826638053E0
3.491637357E0,-9.818947792E0,-1.887338907E-1,-4.115654826E-1,9.829381586E0
3.494081523E0,-9.816555023E0,-1.863410622E-1,-4.163511395E-1,9.827147286E0
3.496526419E0,-9.795019150E0,-1.911267042E-1,-4.163511395E-1,9.805726788E0
3.498970534E0,-9.799804688E0,-1.887338907E-1,-3.948157430E-1,9.809570422E0
3.501413815E0,-9.814162254E0,-1.983051747E-1,-4.043870270E-1,9.824491568E0
3.503857982E0,-9.797411919E0,-1.887338907E-1,-4.211367965E-1,9.808274924E0
3.506302877E0,-9.806983948E0,-1.791625917E-1,-4.043870270E-1,9.816952799E0
3.508746992E0,-9.835697174E0,-1.839482337E-1,-3.924229145E-1,9.845241063E0
3.511190221E0,-9.838089943E0,-1.911267042E-1,-3.780659735E-1,9.847206559E0
3.513634388E0,-9.823733330E0,-1.815554202E-1,-4.067798555E-1,9.833827777E0
3.516079336E0,-9.804591179E0,-1.983051747E-1,-3.900300860E-1,9.814349525E0
3.518523450E0,-9.816555023E0,-1.959123611E-1,-4.043870270E-1,9.826833826E0
3.520966679E0,-9.804591179E0,-1.791625917E-1,-3.804588020E-1,9.813605674E0
3.523410846E0,-9.797411919E0,-1.935195327E-1,-4.067798555E-1,9.807762230E0
3.525855794E0,-9.823733330E0,-2.078764737E-1,-4.019941986E-1,9.834152149E0
3.528299804E0,-9.821340561E0,-1.791625917E-1,-3.924229145E-1,9.830810007E0
3.530743138E0,-9.816555023E0,-1.959123611E-1,-3.972085714E-1,9.826541041E0
3.533187304E0,-9.814162254E0,-2.102692872E-1,-3.924229145E-1,9.824255171E0
3.535632200E0,-9.799804688E0,-2.078764737E-1,-3.924229145E-1,9.809861380E0
3.538076315E0,-9.818947792E0,-2.054836452E-1,-3.876372576E-1,9.828744676E0
3.540519596E0,-9.806983948E0,-1.983051747E-1,-3.876372576E-1,9.816645137E0
3.542963763E0,-9.811769485E0,-1.959123611E-1,-4.043870270E-1,9.822053296E0
3.545408659E0,-9.799804688E0,-1.959123611E-1,-4.067798555E-1,9.810199968E0
3.547852773E0,-9.809376717E0,-1.983051747E-1,-3.972085714E-1,9.819418066E0
3.550296054E0,-9.802198410E0,-1.743769497E-1,-3.996013701E-1,9.811889841E0
3.552740221E0,-9.799804688E0,-1.839482337E-1,-3.948157430E-1,9.809479514E0
3.555185117E0,-9.809376717E0,-1.959123611E-1,-4.115654826E-1,9.819961271E0
3.557629232E0,-9.806983948E0,-1.983051747E-1,-3.828516304E-1,9.816457328E0
3.560072513E0,-9.826126099E0,-1.983051747E-1,-4.019941986E-1,9.836344767E0
3.562516679E0,-9.799804688E0,-1.887338907E-1,-3.948157430E-1,9.809570422E0
3.564961575E0,-9.802198410E0,-1.767697781E-1,-4.091726840E-1,9.812327120E0
3.567405690E0,-9.816555023E0,-1.911267042E-1,-4.067798555E-1,9.826838342E0
3.569848971E0,-9.797411919E0,-1.911267042E-1,-4.067798555E-1,9.807715308E0
3.572293138E0,-9.802198410E0,-1.719841212E-1,-3.948157430E-1,9.811653871E0
3.574738034E0,-9.814162254E0,-1.935195327E-1,-3.972085714E-1,9.824103278E0
3.577182148E0,-9.806983948E0,-1.815554202E-1,-4.043870270E-1,9.816996760E0
3.579625429E0,-9.811769485E0,-1.743769497E-1,-4.019941986E-1,9.821549119E0
3.582069596E0,-9.826126099E0,-1.839482337E-1,-3.876372576E-1,9.835489500E0
3.584514492E0,-9.826126099E0,-1.839482337E-1,-3.924229145E-1,9.835679275E0
3.586958607E0,-9.816555023E0,-1.959123611E-1,-3.852444589E-1,9.826064699E0
3.589401888E0,-9.826126099E0,-1.935195327E-1,-3.900300860E-1,9.835767758E0
3.591846054E0,-9.818947792E0,-1.911267042E-1,-4.139583111E-1,9.829528302E0
3.594290950E0,-9.792626381E0,-1.935195327E-1,-3.996013701E-1,9.802686494E0
3.596735065E0,-9.795019150E0,-1.815554202E-1,-4.019941986E-1,9.804945785E0
3.599178346E0,-9.804591179E0,-1.863410622E-1,-3.924229145E-1,9.814210458E0
3.601622461E0,-9.795019150E0,-1.791625917E-1,-3.804588020E-1,9.804042446E0
3.604067409E0,-9.797411919E0,-1.911267042E-1,-4.187439680E-1,9.808218810E0
3.606511523E0,-9.792626381E0,-2.102692872E-1,-3.996013701E-1,9.803031463E0
3.608954752E0,-9.795019150E0,-1.887338907E-1,-3.996013701E-1,9.804983523E0
3.611398919E0,-9.804591179E0,-1.791625917E-1,-3.756731451E-1,9.813421306E0
3.613843867E0,-9.814162254E0,-1.959123611E-1,-3.852444589E-1,9.823674246E0
3.616287982E0,-9.806983948E0,-1.815554202E-1,-4.091726840E-1,9.817195058E0
3.618731211E0,-9.802198410E0,-1.815554202E-1,-3.876372576E-1,9.811540077E0
3.621175377E0,-9.823733330E0,-1.791625917E-1,-3.780659735E-1,9.832637980E0
3.623620325E0,-9.814162254E0,-1.839482337E-1,-3.972085714E-1,9.823919399E0
3.626064440E0,-9.809376717E0,-1.743769497E-1,-3.972085714E-1,9.818963975E0
3.628507669E0,-9.821340561E0,-1.863410622E-1,-3.948157430E-1,9.831039257E0
3.630951836E0,-9.797411919E0,-1.959123611E-1,-4.187439680E-1,9.808313233E0
3.633396784E0,-9.826126099E0,-1.911267042E-1,-4.067798555E-1,9.836399411E0
3.635840794E0,-9.806983948E0,-1.863410622E-1,-3.852444589E-1,9.816316541E0
3.638284127E0,-9.814162254E0,-1.839482337E-1,-4.019941986E-1,9.824114059E0
3.640728294E0,-9.795019150E0,-1.815554202E-1,-4.139583111E-1,9.805443590E0
3.643173242E0,-9.814162254E0,-1.839482337E-1,-4.043870270E-1,9.824212262E0
3.645617252E0,-9.811769485E0,-1.983051747E-1,-4.043870270E-1,9.822101315E0
3.648060586E0,-9.826126099E0,-1.815554202E-1,-3.900300860E-1,9.835539637E0
3.650504752E0,-9.814162254E0,-1.935195327E-1,-3.972085714E-1,9.824103278E0
3.652949648E0,-9.790233612E0,-1.935195327E-1,-3.996013701E-1,9.800296181E0
3.655393763E0,-9.814162254E0,-1.911267042E-1,-3.661018610E-1,9.822847894E0
3.657837044E0,-9.806983948E0,-1.743769497E-1,-4.139583111E-1,9.817265554E0
3.660281211E0,-9.792626381E0,-1.671984792E-1,-3.972085714E-1,9.802104948E0
3.662726107E0,-9.814162254E0,-1.839482337E-1,-3.924229145E-1,9.823727065E0
3.665170221E0,-9.809376717E0,-1.911267042E-1,-3.852444589E-1,9.818799024E0
3.667613502E0,-9.811769485E0,-1.815554202E-1,-4.091726840E-1,9.821975621E0
3.670057669E0,-9.811769485E0,-1.935195327E-1,-4.450650215E-1,9.823764712E0
3.672502565E0,-9.802198410E0,-2.078764737E-1,-4.043870270E-1,9.812738413E0
3.674946679E0,-9.785448074E0,-1.887338907E-1,-4.187439680E-1,9.796221772E0
3.677389961E0,-9.806983948E0,-1.959123611E-1,-4.139583111E-1,9.817671684E0
3.679834127E0,-9.821340561E0,-2.078764737E-1,-3.780659735E-1,9.830812628E0
3.682279023E0,-9.840482712E0,-1.983051747E-1,-3.900300860E-1,9.850205501E0
3.684723138E0,-9.809376717E0,-1.695913076E-1,-3.996013701E-1,9.818977240E0
3.687166419E0,-9.816555023E0,-1.648056656E-1,-4.139583111E-1,9.826661433E0
3.689610586E0,-9.833304405E0,-1.911267042E-1,-4.139583111E-1,9.843869484E0
3.692055482E0,-9.826126099E0,-1.959123611E-1,-3.924229145E-1,9.835910304E0
3.694499596E0,-9.790233612E0,-1.887338907E-1,-3.900300860E-1,9.799817250E0
3.696942877E0,-9.806983948E0,-1.887338907E-1,-3.708875179E-1,9.815809298E0
3.699387044E0,-9.830911636E0,-1.959123611E-1,-3.780659735E-1,9.840129020E0
3.701831940E0,-9.814162254E0,-1.767697781E-1,-4.019941986E-1,9.823982270E0
3.704276054E0,-9.823733330E0,-1.959123611E-1,-4.115654826E-1,9.834302433E0
3.706719336E0,-9.814162254E0,-1.671984792E-1,-4.043870270E-1,9.823912915E0
3.709163502E0,-9.809376717E0,-1.815554202E-1,-4.067798555E-1,9.819485923E0
3.711608398E0,-9.809376717E0,-1.911267042E-1,-4.091726840E-1,9.819766966E0
3.714052513E0,-9.809376717E0,-1.959123611E-1,-4.019941986E-1,9.819564785E0
3.716495794E0,-9.823733330E0,-1.791625917E-1,-3.924229145E-1,9.833200471E0
3.718939961E0,-9.818947792E0,-1.935195327E-1,-4.115654826E-1,9.829474640E0
3.721384857E0,-9.811769485E0,-1.863410622E-1,-4.115654826E-1,9.822165218E0
3.723828971E0,-9.806983948E0,-1.959123611E-1,-4.067798555E-1,9.817371627E0
3.726272200E0,-9.809376717E0,-1.767697781E-1,-4.187439680E-1,9.819901508E0
3.728716367E0,-9.811769485E0,-1.959123611E-1,-4.259224236E-1,9.822963504E0
3.731161315E0,-9.816555023E0,-1.863410622E-1,-4.115654826E-1,9.826945693E0
3.733605429E0,-9.809376717E0,-1.815554202E-1,-3.900300860E-1,9.818806313E0
3.736048659E0,-9.806983948E0,-1.935195327E-1,-4.091726840E-1,9.817423605E0
3.738492825E0,-9.799804688E0,-1.839482337E-1,-4.139583111E-1,9.810268618E0
3.740937773E0,-9.811769485E0,-1.935195327E-1,-4.019941986E-1,9.821907635E0
3.743381888E0,-9.833304405E0,-1.863410622E-1,-4.283152521E-1,9.844391930E0
3.745825117E0,-9.814162254E0,-1.791625917E-1,-4.091726840E-1,9.824321975E0
3.748269284E0,-9.792626381E0,-1.767697781E-1,-3.828516304E-1,9.801701605E0
3.750714232E0,-9.804591179E0,-1.719841212E-1,-4.139583111E-1,9.814833071E0
3.753158242E0,-9.818947792E0,-1.911267042E-1,-3.828516304E-1,9.828267423E0
3.755601575E0,-9.806983948E0,-2.006980032E-1,-3.972085714E-1,9.817076372E0
3.758045742E0,-9.804591179E0,-1.863410622E-1,-3.972085714E-1,9.814402979E0
3.760490638E0,-9.802198410E0,-1.911267042E-1,-3.828516304E-1,9.811533950E0
3.762934752E0,-9.823733330E0,-1.863410622E-1,-3.852444589E-1,9.833050026E0
3.765378034E0,-9.828518867E0,-1.767697781E-1,-3.900300860E-1,9.837842962E0
3.767822200E0,-9.804591179E0,-1.935195327E-1,-3.948157430E-1,9.814445347E0
3.770267096E0,-9.826126099E0,-1.839482337E-1,-3.924229145E-1,9.835679275E0
3.772711211E0,-9.823733330E0,-1.791625917E-1,-3.876372576E-1,9.833010648E0
3.775154492E0,-9.833304405E0,-1.863410622E-1,-4.163511395E-1,9.843878646E0
3.777598659E0,-9.823733330E0,-2.006980032E-1,-4.139583111E-1,9.834499362E0
3.780043554E0,-9.809376717E0,-1.911267042E-1,-3.996013701E-1,9.819372803E0
3.782487669E0,-9.821340561E0,-1.863410622E-1,-3.996013701E-1,9.831232611E0
3.784930950E0,-9.816555023E0,-1.983051747E-1,-4.019941986E-1,9.826783645E0
3.787375117E0,-9.811769485E0,-1.887338907E-1,-4.091726840E-1,9.822110934E0
3.789820013E0,-9.823733330E0,-1.911267042E-1,-3.924229145E-1,9.833425735E0
3.792264127E0,-9.823733330E0,-1.983051747E-1,-3.972085714E-1,9.833760020E0
3.794707409E0,-9.809376717E0,-1.911267042E-1,-3.924229145E-1,9.819083294E0
3.797151575E0,-9.797411919E0,-2.030908167E-1,-3.948157430E-1,9.807466832E0
3.799596471E0,-9.811769485E0,-1.935195327E-1,-4.091726840E-1,9.822204057E0
3.802040586E0,-9.797411919E0,-2.078764737E-1,-3.852444589E-1,9.807186458E0
3.804483867E0,-9.811769485E0,-1.959123611E-1,-4.019941986E-1,9.821955071E0
3.806928034E0,-9.821340561E0,-1.815554202E-1,-3.996013701E-1,9.831143069E0
3.809372929E0,-9.802198410E0,-1.791625917E-1,-3.900300860E-1,9.811590920E0
3.811817044E0,-9.804591179E0,-1.935195327E-1,-4.043870270E-1,9.814835040E0
3.814260325E0,-9.811769485E0,-1.983051747E-1,-3.804588020E-1,9.821145263E0
3.816704492E0,-9.811769485E0,-1.839482337E-1,-4.115654826E-1,9.822120114E0
3.819149388E0,-9.816555023E0,-1.767697781E-1,-4.139583111E-1,9.826869367E0
3.821593502E0,-9.809376717E0,-1.863410622E-1,-3.924229145E-1,9.818991308E0
3.824036784E0,-9.799804688E0,-1.863410622E-1,-3.996013701E-1,9.809718455E0
3.826480950E0,-9.806983948E0,-1.791625917E-1,-4.067798555E-1,9.817051657E0
3.828925846E0,-9.804591179E0,-1.935195327E-1,-4.163511395E-1,9.815335260E0
3.831369961E0,-9.811769485E0,-1.743769497E-1,-4.235295951E-1,9.822454127E0
3.833813242E0,-9.797411919E0,-2.126621157E-1,-3.924229145E-1,9.807573666E0
3.836257409E0,-9.814162254E0,-1.983051747E-1,-4.043870270E-1,9.824491568E0
3.838702304E0,-9.811769485E0,-1.959123611E-1,-3.804588020E-1,9.821097240E0
3.841146419E0,-9.806983948E0,-1.887338907E-1,-3.924229145E-1,9.816646595E0
3.843589700E0,-9.814162254E0,-1.959123611E-1,-4.067798555E-1,9.824542343E0
3.846033867E0,-9.816555023E0,-2.030908167E-1,-3.924229145E-1,9.826494499E0
3.848478763E0,-9.814162254E0,-1.839482337E-1,-4.139583111E-1,9.824610893E0
3.850922877E0,-9.816555023E0,-1.863410622E-1,-3.948157430E-1,9.826258443E0
3.853366159E0,-9.792626381E0,-1.815554202E-1,-4.163511395E-1,9.803154700E0
3.855810273E0,-9.816555023E0,-2.054836452E-1,-3.900300860E-1,9.826448978E0
3.858255221E0,-9.802198410E0,-1.911267042E-1,-4.019941986E-1,9.812299548E0
3.860699336E0,-9.799804688E0,-1.911267042E-1,-4.163511395E-1,9.810507102E0
3.863142565E0,-9.790233612E0,-1.911267042E-1,-3.852444589E-1,9.799674326E0
3.865586732E0,-9.792626381E0,-2.006980032E-1,-3.876372576E-1,9.802350421E0
3.868031679E0,-9.806983948E0,-2.054836452E-1,-4.235295951E-1,9.818275561E0
3.870475794E0,-9.811769485E0,-1.983051747E-1,-3.948157430E-1,9.821711910E0
3.872919023E0,-9.826126099E0,-1.791625917E-1,-4.115654826E-1,9.836373289E0
3.875363190E0,-9.790233612E0,-1.983051747E-1,-4.067798555E-1,9.800687168E0
3.877808138E0,-9.818947792E0,-1.911267042E-1,-4.019941986E-1,9.829031717E0
3.880252252E0,-9.802198410E0,-2.054836452E-1,-3.996013701E-1,9.812491959E0
3.882695482E0,-9.787840843E0,-1.959123611E-1,-3.876372576E-1,9.797472769E0
3.885139648E0,-9.792626381E0,-1.887338907E-1,-4.043870270E-1,9.802789439E0
3.887584596E0,-9.811769485E0,-1.767697781E-1,-4.115654826E-1,9.821988299E0
3.890028711E0,-9.804591179E0,-1.911267042E-1,-3.972085714E-1,9.814495007E0
3.892471940E0,-9.797411919E0,-2.006980032E-1,-3.924229145E-1,9.807321537E0
3.894916107E0,-9.806983948E0,-1.887338907E-1,-3.828516304E-1,9.816268640E0
3.897361002E0,-9.799804688E0,-1.911267042E-1,-3.900300860E-1,9.809425304E0
3.899805169E0,-9.804591179E0,-1.839482337E-1,-4.091726840E-1,9.814849333E0
3.902248398E0,-9.809376717E0,-1.935195327E-1,-3.900300860E-1,9.819034823E0
3.904692565E0,-9.783055305E0,-1.863410622E-1,-4.115654826E-1,9.793481518E0
3.907137461E0,-9.811769485E0,-2.006980032E-1,-4.331009090E-1,9.823373989E0
3.909581575E0,-9.799804688E0,-1.911267042E-1,-4.211367965E-1,9.810711367E0
3.912024857E0,-9.818947792E0,-1.887338907E-1,-4.019941986E-1,9.828985480E0
3.914469023E0,-9.821340561E0,-1.887338907E-1,-3.876372576E-1,9.830799232E0
3.916913919E0,-9.814162254E0,-1.983051747E-1,-4.091726840E-1,9.824689714E0
