"Time (s)","Acceleration x (m/s^2)","Acceleration y (m/s^2)","Acceleration z (m/s^2)","Absolute acceleration (m/s^2)"
2.437803800E-2,9.941879272E0,-2.126621157E-1,2.874378264E-1,9.948306848E0
2.682137100E-2,9.939486504E0,-2.341975123E-1,3.113660514E-1,9.947119646E0
2.926559000E-2,9.946664810E0,-2.174477577E-1,2.898306549E-1,9.953262087E0
3.170980900E-2,9.951450348E0,-2.198405862E-1,2.970091105E-1,9.958308507E0
3.415397500E-2,9.929914474E0,-2.126621157E-1,2.874378264E-1,9.936349790E0
3.659892300E-2,9.941879272E0,-1.911267042E-1,3.089732230E-1,9.948515333E0
3.904225700E-2,9.958628654E0,-2.102692872E-1,3.041875660E-1,9.965491856E0
4.148652700E-2,9.951450348E0,-2.126621157E-1,2.874378264E-1,9.957871746E0
4.393147500E-2,9.929914474E0,-2.222333997E-1,2.946162820E-1,9.936769491E0
4.637480900E-2,9.956235886E0,-2.054836452E-1,3.041875660E-1,9.963000884E0
4.881902700E-2,9.941879272E0,-2.102692872E-1,2.994019389E-1,9.948608856E0
5.126324600E-2,9.961021423E0,-2.030908167E-1,3.161516786E-1,9.968106418E0
5.370741300E-2,9.944272041E0,-2.222333997E-1,3.113660514E-1,9.951627150E0
5.615241300E-2,9.929914474E0,-2.054836452E-1,3.065803945E-1,9.936770931E0
5.859574600E-2,9.929914474E0,-2.054836452E-1,3.137588799E-1,9.936995000E0
6.103996500E-2,9.929914474E0,-2.126621157E-1,3.113660514E-1,9.937070769E0
6.348491300E-2,9.927521706E0,-2.341975123E-1,2.970091105E-1,9.934724460E0
6.592824600E-2,9.944272041E0,-2.198405862E-1,3.041875660E-1,9.951351988E0
6.837251700E-2,9.946664810E0,-2.030908167E-1,2.898306549E-1,9.952958783E0
7.081668400E-2,9.927521706E0,-2.150549293E-1,3.017947674E-1,9.934435863E0
7.326085000E-2,9.934700966E0,-2.150549293E-1,2.922234535E-1,9.941324180E0
7.570585000E-2,9.937093735E0,-2.030908167E-1,2.994019389E-1,9.943677353E0
7.814918400E-2,9.920343399E0,-2.126621157E-1,2.994019389E-1,9.927138553E0
8.059340200E-2,9.939486504E0,-2.126621157E-1,2.802593410E-1,9.945710755E0
8.303840200E-2,9.946664810E0,-2.198405862E-1,3.161516786E-1,9.954115863E0
8.548168400E-2,9.934700966E0,-2.030908167E-1,3.017947674E-1,9.941358521E0
8.792595500E-2,9.927521706E0,-2.150549293E-1,2.946162820E-1,9.934220382E0
9.037012100E-2,9.946664810E0,-2.078764737E-1,3.137588799E-1,9.953783105E0
9.281428800E-2,9.929914474E0,-1.959123611E-1,2.946162820E-1,9.936215672E0
9.525928800E-2,9.939486504E0,-2.078764737E-1,3.041875660E-1,9.946312616E0
9.770262100E-2,9.939486504E0,-2.150549293E-1,2.874378264E-1,9.945967076E0
1.001468400E-1,9.939486504E0,-2.222333997E-1,2.946162820E-1,9.946334923E0
1.025918400E-1,9.937093735E0,-1.959123611E-1,2.802593410E-1,9.942975352E0
1.050351730E-1,9.937093735E0,-2.126621157E-1,3.233301640E-1,9.944626663E0
1.074793920E-1,9.934700966E0,-2.270190418E-1,2.994019389E-1,9.941803782E0
1.099235590E-1,9.953843117E0,-2.222333997E-1,2.826521695E-1,9.960334971E0
1.123677770E-1,9.934700966E0,-2.150549293E-1,3.113660514E-1,9.941905286E0
1.148127250E-1,9.944272041E0,-2.174477577E-1,3.137588799E-1,9.951596585E0
1.172560590E-1,9.939486504E0,-2.054836452E-1,2.946162820E-1,9.945974776E0
1.197002770E-1,9.937093735E0,-2.150549293E-1,2.850449979E-1,9.943506985E0
1.221452770E-1,9.927521706E0,-2.174477577E-1,3.017947674E-1,9.934487950E0
1.245886110E-1,9.939486504E0,-2.054836452E-1,3.089732230E-1,9.946410405E0
1.270328300E-1,9.932307243E0,-2.054836452E-1,2.970091105E-1,9.938871421E0
1.294770480E-1,9.934700966E0,-2.006980032E-1,3.017947674E-1,9.941309926E0
1.319212150E-1,9.953843117E0,-2.054836452E-1,3.041875660E-1,9.960609740E0
1.343661630E-1,9.937093735E0,-2.126621157E-1,2.970091105E-1,9.943805684E0
1.368094960E-1,9.939486504E0,-2.078764737E-1,3.257229924E-1,9.946994524E0
1.392537670E-1,9.951450348E0,-2.030908167E-1,2.874378264E-1,9.957671937E0
1.416987150E-1,9.932307243E0,-2.198405862E-1,3.161516786E-1,9.939769059E0
1.441420480E-1,9.939486504E0,-1.959123611E-1,2.802593410E-1,9.945366705E0
1.465862670E-1,9.917950630E0,-2.054836452E-1,3.113660514E-1,9.924964335E0
1.490304860E-1,9.925128937E0,-1.959123611E-1,2.874378264E-1,9.931222813E0
1.514746520E-1,9.939486504E0,-2.102692872E-1,2.970091105E-1,9.946145964E0
1.539196000E-1,9.944272041E0,-2.102692872E-1,3.161516786E-1,9.951518049E0
1.563629340E-1,9.941879272E0,-1.911267042E-1,2.994019389E-1,9.948222676E0
1.588072050E-1,9.932307243E0,-2.078764737E-1,2.850449979E-1,9.938570846E0
1.612521520E-1,9.961021423E0,-2.198405862E-1,2.850449979E-1,9.967523681E0
1.636954860E-1,9.941879272E0,-1.959123611E-1,3.041875660E-1,9.948460946E0
1.661397050E-1,9.941879272E0,-2.294118702E-1,3.041875660E-1,9.949177019E0
1.685839230E-1,9.925128937E0,-2.054836452E-1,2.970091105E-1,9.931697858E0
1.710280900E-1,9.934700966E0,-2.078764737E-1,3.041875660E-1,9.941530364E0
1.734730900E-1,9.934700966E0,-2.222333997E-1,3.209373355E-1,9.942367512E0
1.759164230E-1,9.925128937E0,-2.030908167E-1,3.041875660E-1,9.931865906E0
1.783606420E-1,9.951450348E0,-2.078764737E-1,2.970091105E-1,9.958051570E0
1.808055900E-1,9.927521706E0,-1.983051747E-1,3.017947674E-1,9.934087388E0
1.832489230E-1,9.929914474E0,-1.935195327E-1,2.946162820E-1,9.936168780E0
1.856931940E-1,9.961021423E0,-2.102692872E-1,3.041875660E-1,9.967882977E0
1.881373610E-1,9.929914474E0,-2.150549293E-1,3.065803945E-1,9.936973464E0
1.905815270E-1,9.949057579E0,-2.150549293E-1,3.161516786E-1,9.956402323E0
1.930265270E-1,9.946664810E0,-2.126621157E-1,3.113660514E-1,9.953809062E0
1.954698610E-1,9.941879272E0,-2.126621157E-1,2.802593410E-1,9.948102027E0
1.979140800E-1,9.944272041E0,-2.150549293E-1,3.065803945E-1,9.951320847E0
2.003590800E-1,9.965806961E0,-2.030908167E-1,2.898306549E-1,9.972088852E0
2.028024130E-1,9.953843117E0,-2.270190418E-1,2.754737139E-1,9.960241774E0
2.052466320E-1,9.951450348E0,-2.078764737E-1,2.802593410E-1,9.957566066E0
2.076907980E-1,9.944272041E0,-2.126621157E-1,3.089732230E-1,9.951343430E0
2.101349650E-1,9.939486504E0,-2.078764737E-1,2.946162820E-1,9.946024499E0
2.125799650E-1,9.939486504E0,-2.174477577E-1,2.994019389E-1,9.946372052E0
2.150232980E-1,9.929914474E0,-2.030908167E-1,3.137588799E-1,9.936945808E0
2.174675170E-1,9.934700966E0,-2.054836452E-1,2.802593410E-1,9.940777239E0
2.199125170E-1,9.949057579E0,-2.246262282E-1,3.137588799E-1,9.956537967E0
2.223558500E-1,9.956235886E0,-2.006980032E-1,3.113660514E-1,9.963125088E0
2.248000690E-1,9.932307243E0,-2.126621157E-1,3.041875660E-1,9.939239530E0
2.272442360E-1,9.941879272E0,-2.126621157E-1,3.113660514E-1,9.949026961E0
2.296884550E-1,9.929914474E0,-2.270190418E-1,3.065803945E-1,9.937239589E0
2.321334020E-1,9.941879272E0,-2.006980032E-1,2.994019389E-1,9.948411163E0
2.345767360E-1,9.939486504E0,-1.935195327E-1,3.161516786E-1,9.946396013E0
2.370209550E-1,9.934700966E0,-2.270190418E-1,3.017947674E-1,9.941876131E0
2.394659550E-1,9.963414192E0,-2.222333997E-1,3.089732230E-1,9.970680744E0
2.419092880E-1,9.949057579E0,-1.959123611E-1,3.065803945E-1,9.955707906E0
2.443535070E-1,9.934700966E0,-2.078764737E-1,3.185445070E-1,9.941980010E0
2.467977250E-1,9.956235886E0,-1.911267042E-1,2.970091105E-1,9.962498524E0
2.492418920E-1,9.939486504E0,-2.174477577E-1,3.089732230E-1,9.946664764E0
2.516868400E-1,9.932307243E0,-2.270190418E-1,3.185445070E-1,9.940006812E0
2.541301730E-1,9.920343399E0,-2.222333997E-1,3.257229924E-1,9.928176887E0
2.565744440E-1,9.939486504E0,-2.054836452E-1,2.946162820E-1,9.945974776E0
2.590193920E-1,9.953843117E0,-2.102692872E-1,2.994019389E-1,9.960564617E0
2.614627250E-1,9.949057579E0,-2.102692872E-1,2.946162820E-1,9.955639539E0
2.639069440E-1,9.934700966E0,-2.198405862E-1,3.113660514E-1,9.942009957E0
2.663511630E-1,9.934700966E0,-2.150549293E-1,2.994019389E-1,9.941537780E0
2.687953300E-1,9.944272041E0,-2.126621157E-1,2.994019389E-1,9.951050855E0
2.712402770E-1,9.946664810E0,-2.198405862E-1,3.161516786E-1,9.954115863E0
2.736836630E-1,9.958628654E0,-2.318046987E-1,3.089732230E-1,9.966116724E0
2.761278820E-1,9.937093735E0,-2.389831543E-1,3.161516786E-1,9.944993551E0
2.785728300E-1,9.913165092E0,-2.126621157E-1,3.113660514E-1,9.920333469E0
2.810161630E-1,9.929914474E0,-2.246262282E-1,3.185445070E-1,9.937561523E0
2.834604340E-1,9.929914474E0,-2.006980032E-1,3.233301640E-1,9.937204011E0
2.859046000E-1,9.944272041E0,-2.198405862E-1,2.826521695E-1,9.950716987E0
2.883487670E-1,9.949057579E0,-2.222333997E-1,2.970091105E-1,9.955970511E0
2.907937670E-1,9.963414192E0,-2.198405862E-1,3.209373355E-1,9.971005617E0
2.932371000E-1,9.958628654E0,-2.150549293E-1,3.305086195E-1,9.966432122E0
2.956813190E-1,9.946664810E0,-2.102692872E-1,2.826521695E-1,9.952901399E0
2.981263190E-1,9.953843117E0,-2.078764737E-1,2.922234535E-1,9.960301199E0
3.005696520E-1,9.937093735E0,-2.150549293E-1,3.113660514E-1,9.944296322E0
3.030138710E-1,9.941879272E0,-2.054836452E-1,2.994019389E-1,9.948508859E0
3.054580380E-1,9.946664810E0,-2.198405862E-1,3.065803945E-1,9.953816467E0
3.079022050E-1,9.946664810E0,-2.198405862E-1,3.209373355E-1,9.954269009E0
3.103472050E-1,9.949057579E0,-2.126621157E-1,3.209373355E-1,9.956504038E0
3.127905380E-1,9.937093735E0,-2.030908167E-1,3.185445070E-1,9.944272139E0
3.152347570E-1,9.946664810E0,-2.078764737E-1,3.113660514E-1,9.953707967E0
3.176797570E-1,9.953843117E0,-2.078764737E-1,3.065803945E-1,9.960732752E0
3.201230900E-1,9.946664810E0,-2.222333997E-1,2.946162820E-1,9.953508290E0
3.225673090E-1,9.941879272E0,-1.935195327E-1,2.922234535E-1,9.948055480E0
3.250114750E-1,9.937093735E0,-1.911267042E-1,2.922234535E-1,9.943226632E0
3.274556940E-1,9.941879272E0,-2.198405862E-1,2.946162820E-1,9.948672882E0
3.299006420E-1,9.946664810E0,-2.126621157E-1,2.946162820E-1,9.953299190E0
3.323439750E-1,9.922736168E0,-2.150549293E-1,2.874378264E-1,9.929227673E0
3.347881940E-1,9.929914474E0,-1.959123611E-1,2.898306549E-1,9.936074926E0
3.372331940E-1,9.941879272E0,-2.222333997E-1,3.041875660E-1,9.949014083E0
3.396765270E-1,9.951450348E0,-2.222333997E-1,3.041875660E-1,9.958578301E0
3.421207460E-1,9.939486504E0,-2.102692872E-1,2.970091105E-1,9.946145964E0
3.445649650E-1,9.932307243E0,-2.126621157E-1,2.898306549E-1,9.938810500E0
3.470091320E-1,9.937093735E0,-2.174477577E-1,3.065803945E-1,9.944199664E0
3.494540800E-1,9.949057579E0,-2.078764737E-1,3.089732230E-1,9.956024497E0
3.518974130E-1,9.956235886E0,-2.126621157E-1,3.209373355E-1,9.963676980E0
3.543416840E-1,9.925128937E0,-2.078764737E-1,2.994019389E-1,9.931819499E0
3.567866320E-1,9.934700966E0,-2.126621157E-1,3.089732230E-1,9.941779162E0
3.592299650E-1,9.929914474E0,-2.341975123E-1,2.850449979E-1,9.936765097E0
3.616741840E-1,9.939486504E0,-2.126621157E-1,2.898306549E-1,9.945985066E0
3.641184020E-1,9.932307243E0,-2.102692872E-1,3.017947674E-1,9.939115677E0
3.665625690E-1,9.949057579E0,-2.150549293E-1,2.994019389E-1,9.955884534E0
3.690075690E-1,9.937093735E0,-2.102692872E-1,3.017947674E-1,9.943898891E0
3.714509020E-1,9.927521706E0,-2.030908167E-1,2.994019389E-1,9.934111667E0
3.738951210E-1,9.946664810E0,-1.863410622E-1,2.898306549E-1,9.952631092E0
3.763400690E-1,9.956235886E0,-1.935195327E-1,2.802593410E-1,9.962059432E0
3.787834020E-1,9.941879272E0,-2.150549293E-1,2.946162820E-1,9.948568281E0
3.812276730E-1,9.961021423E0,-2.054836452E-1,3.017947674E-1,9.967710440E0
3.836718400E-1,9.946664810E0,-1.959123611E-1,2.898306549E-1,9.952814894E0
3.861160070E-1,9.949057579E0,-2.126621157E-1,2.994019389E-1,9.955833135E0
3.885610070E-1,9.927521706E0,-2.054836452E-1,3.041875660E-1,9.934306258E0
3.910043400E-1,9.946664810E0,-2.270190418E-1,3.041875660E-1,9.953904187E0
3.934485590E-1,9.941879272E0,-2.174477577E-1,2.994019389E-1,9.948763165E0
3.958935590E-1,9.944272041E0,-2.006980032E-1,3.041875660E-1,9.950947502E0
3.983368920E-1,9.953843117E0,-1.935195327E-1,3.017947674E-1,9.960297319E0
4.007811110E-1,9.922736168E0,-2.150549293E-1,2.898306549E-1,9.929297230E0
4.032252770E-1,9.953843117E0,-2.126621157E-1,3.017947674E-1,9.960687629E0
4.056694440E-1,9.927521706E0,-2.294118702E-1,3.017947674E-1,9.934757023E0
4.081144440E-1,9.941879272E0,-2.126621157E-1,3.041875660E-1,9.948804889E0
4.105577770E-1,9.941879272E0,-2.006980032E-1,2.850449979E-1,9.947989435E0
4.130019960E-1,9.949057579E0,-2.150549293E-1,3.137588799E-1,9.956326630E0
4.154469960E-1,9.929914474E0,-2.222333997E-1,3.017947674E-1,9.936984917E0
4.178903300E-1,9.951450348E0,-2.222333997E-1,2.922234535E-1,9.958220035E0
4.203345480E-1,9.927521706E0,-2.150549293E-1,2.946162820E-1,9.934220382E0
4.227787150E-1,9.944272041E0,-2.222333997E-1,3.089732230E-1,9.951552571E0
4.252229340E-1,9.941879272E0,-2.054836452E-1,3.065803945E-1,9.948727483E0
4.276678820E-1,9.944272041E0,-2.054836452E-1,2.898306549E-1,9.950616653E0
4.301112150E-1,9.927521706E0,-2.054836452E-1,3.113660514E-1,9.934528653E0
4.325554340E-1,9.915557861E0,-2.102692872E-1,3.137588799E-1,9.922748889E0
4.350004340E-1,9.939486504E0,-1.911267042E-1,3.209373355E-1,9.946503011E0
4.374437670E-1,9.932307243E0,-2.102692872E-1,3.065803945E-1,9.939262140E0
4.398879860E-1,9.949057579E0,-2.150549293E-1,2.826521695E-1,9.955394898E0
4.423322050E-1,9.949057579E0,-2.054836452E-1,3.376871049E-1,9.956907292E0
4.447763710E-1,9.920343399E0,-2.318046987E-1,3.065803945E-1,9.927786164E0
4.472213190E-1,9.941879272E0,-2.054836452E-1,2.778665423E-1,9.947884037E0
4.496646520E-1,9.941879272E0,-2.102692872E-1,2.898306549E-1,9.948325409E0
4.521089230E-1,9.939486504E0,-2.006980032E-1,2.826521695E-1,9.945529845E0
4.545538710E-1,9.939486504E0,-2.222333997E-1,3.041875660E-1,9.946623031E0
4.569972050E-1,9.937093735E0,-2.054836452E-1,3.161516786E-1,9.944244934E0
4.594414230E-1,9.937093735E0,-2.078764737E-1,3.089732230E-1,9.944069035E0
4.618856420E-1,9.944272041E0,-2.006980032E-1,2.826521695E-1,9.950312476E0
4.643298090E-1,9.941879272E0,-2.102692872E-1,3.113660514E-1,9.948976101E0
4.667748090E-1,9.941879272E0,-2.054836452E-1,3.041875660E-1,9.948654033E0
4.692181420E-1,9.920343399E0,-2.078764737E-1,2.850449979E-1,9.926614550E0
4.716623610E-1,9.920343399E0,-2.150549293E-1,2.898306549E-1,9.926906043E0
4.741073090E-1,9.925128937E0,-2.078764737E-1,3.065803945E-1,9.932038491E0
4.765506420E-1,9.951450348E0,-2.198405862E-1,3.209373355E-1,9.959050893E0
4.789949130E-1,9.934700966E0,-2.198405862E-1,3.065803945E-1,9.941861229E0
4.814390800E-1,9.937093735E0,-2.054836452E-1,2.970091105E-1,9.943654752E0
4.838832460E-1,9.937093735E0,-2.174477577E-1,2.946162820E-1,9.943838000E0
4.863282460E-1,9.939486504E0,-2.174477577E-1,3.065803945E-1,9.946590724E0
4.887715800E-1,9.939486504E0,-2.246262282E-1,2.874378264E-1,9.946178633E0
4.912157980E-1,9.925128937E0,-2.222333997E-1,3.041875660E-1,9.932275780E0
4.936607980E-1,9.951450348E0,-2.030908167E-1,3.065803945E-1,9.958242889E0
4.961041320E-1,9.932307243E0,-2.174477577E-1,3.161516786E-1,9.939716424E0
4.985483500E-1,9.937093735E0,-2.222333997E-1,3.065803945E-1,9.944305462E0
5.009925170E-1,9.949057579E0,-2.150549293E-1,3.185445070E-1,9.956478591E0
5.034366840E-1,9.951450348E0,-2.078764737E-1,3.137588799E-1,9.958565222E0
5.058816840E-1,9.958628654E0,-2.198405862E-1,3.065803945E-1,9.965771726E0
5.083250170E-1,9.939486504E0,-2.126621157E-1,3.041875660E-1,9.946413786E0
5.107692360E-1,9.929914474E0,-2.102692872E-1,3.137588799E-1,9.937095113E0
5.132142360E-1,9.929914474E0,-2.222333997E-1,2.970091105E-1,9.936840724E0
5.156575690E-1,9.944272041E0,-2.054836452E-1,2.898306549E-1,9.950616653E0
5.181017880E-1,9.934700966E0,-1.983051747E-1,3.137588799E-1,9.941632304E0
5.205459550E-1,9.929914474E0,-2.150549293E-1,3.209373355E-1,9.937426773E0
5.229901730E-1,9.937093735E0,-2.102692872E-1,3.017947674E-1,9.943898891E0
5.254351210E-1,9.927521706E0,-2.078764737E-1,3.185445070E-1,9.934806010E0
5.278784550E-1,9.929914474E0,-2.126621157E-1,3.161516786E-1,9.937221872E0
5.303227250E-1,9.939486504E0,-2.030908167E-1,3.233301640E-1,9.946817593E0
5.327676730E-1,9.932307243E0,-1.935195327E-1,2.970091105E-1,9.938631264E0
5.352110070E-1,9.949057579E0,-2.246262282E-1,2.994019389E-1,9.956095880E0
5.376552250E-1,9.946664810E0,-2.102692872E-1,3.233301640E-1,9.954139662E0
5.400994440E-1,9.934700966E0,-2.126621157E-1,3.281157911E-1,9.942392490E0
5.425436110E-1,9.949057579E0,-2.150549293E-1,2.970091105E-1,9.955812862E0
5.449885590E-1,9.937093735E0,-2.246262282E-1,2.970091105E-1,9.944068747E0
5.474319440E-1,9.953843117E0,-2.150549293E-1,2.874378264E-1,9.960314348E0
5.498761630E-1,9.934700966E0,-1.959123611E-1,3.041875660E-1,9.941287392E0
5.523211110E-1,9.929914474E0,-1.863410622E-1,3.089732230E-1,9.936467628E0
5.547644440E-1,9.934700966E0,-2.150549293E-1,2.946162820E-1,9.941394804E0
5.572087150E-1,9.956235886E0,-2.102692872E-1,2.970091105E-1,9.962884150E0
5.596528820E-1,9.937093735E0,-2.222333997E-1,3.089732230E-1,9.944379520E0
5.620970480E-1,9.941879272E0,-2.174477577E-1,3.185445070E-1,9.949357648E0
5.645420480E-1,9.937093735E0,-1.959123611E-1,3.137588799E-1,9.943975974E0
5.669853820E-1,9.941879272E0,-2.126621157E-1,3.089732230E-1,9.948952362E0
5.694296000E-1,9.939486504E0,-2.222333997E-1,3.137588799E-1,9.946920341E0
5.718746000E-1,9.920343399E0,-2.078764737E-1,3.113660514E-1,9.927405230E0
5.743179340E-1,9.958628654E0,-2.078764737E-1,3.041875660E-1,9.965441655E0
5.767621520E-1,9.951450348E0,-2.246262282E-1,2.898306549E-1,9.958203793E0
5.792063190E-1,9.951450348E0,-2.174477577E-1,2.922234535E-1,9.958114385E0
5.816504860E-1,9.949057579E0,-2.030908167E-1,2.970091105E-1,9.955561612E0
5.840954860E-1,9.929914474E0,-2.222333997E-1,2.970091105E-1,9.936840724E0
5.865388190E-1,9.934700966E0,-2.198405862E-1,3.017947674E-1,9.941714804E0
5.889830380E-1,9.932307243E0,-2.102692872E-1,3.017947674E-1,9.939115677E0
5.914280380E-1,9.932307243E0,-2.246262282E-1,3.065803945E-1,9.939576231E0
5.938713710E-1,9.941879272E0,-2.054836452E-1,3.017947674E-1,9.948581159E0
5.963155900E-1,9.925128937E0,-2.198405862E-1,3.113660514E-1,9.932444972E0
5.987597570E-1,9.917950630E0,-2.150549293E-1,3.017947674E-1,9.924871455E0
6.012039750E-1,9.939486504E0,-2.006980032E-1,3.041875660E-1,9.946165177E0
6.036489230E-1,9.953843117E0,-2.054836452E-1,2.946162820E-1,9.960322037E0
6.060922570E-1,9.934700966E0,-1.983051747E-1,2.682952285E-1,9.940301331E0
6.085364750E-1,9.939486504E0,-2.054836452E-1,2.946162820E-1,9.945974776E0
6.109814750E-1,9.961021423E0,-1.983051747E-1,3.185445070E-1,9.968086243E0
6.134248090E-1,9.937093735E0,-2.174477577E-1,3.089732230E-1,9.944273723E0
6.158690270E-1,9.922736168E0,-2.078764737E-1,2.826521695E-1,9.928937402E0
6.183131940E-1,9.925128937E0,-1.887338907E-1,3.089732230E-1,9.931730431E0
6.207574130E-1,9.944272041E0,-1.935195327E-1,2.946162820E-1,9.950517323E0
6.232023610E-1,9.941879272E0,-2.030908167E-1,3.065803945E-1,9.948678349E0
6.256456940E-1,9.946664810E0,-2.054836452E-1,3.065803945E-1,9.953509728E0
6.280899650E-1,9.946664810E0,-1.983051747E-1,2.970091105E-1,9.953073907E0
6.305349130E-1,9.951450348E0,-2.030908167E-1,2.850449979E-1,9.957603153E0
6.329782460E-1,9.953843117E0,-2.030908167E-1,3.041875660E-1,9.960560664E0
6.354225170E-1,9.917950630E0,-2.030908167E-1,2.898306549E-1,9.924262813E0
6.378666840E-1,9.949057579E0,-2.294118702E-1,2.994019389E-1,9.956205002E0
6.403108500E-1,9.939486504E0,-2.318046987E-1,3.017947674E-1,9.946768594E0
6.427558500E-1,9.953843117E0,-2.054836452E-1,2.970091105E-1,9.960393101E0
6.451991840E-1,9.941879272E0,-2.054836452E-1,3.137588799E-1,9.948951283E0
6.476434020E-1,9.944272041E0,-2.030908167E-1,3.089732230E-1,9.951143490E0
6.500883500E-1,9.922736168E0,-1.815554202E-1,3.185445070E-1,9.929507844E0
6.525316840E-1,9.927521706E0,-2.150549293E-1,3.113660514E-1,9.934731232E0
6.549759550E-1,9.939486504E0,-2.150549293E-1,2.970091105E-1,9.946248287E0
6.574201210E-1,9.937093735E0,-2.030908167E-1,2.682952285E-1,9.942789352E0
6.598642880E-1,9.937093735E0,-1.911267042E-1,2.994019389E-1,9.943440191E0
6.623092880E-1,9.958628654E0,-2.102692872E-1,2.994019389E-1,9.965346927E0
6.647526210E-1,9.951450348E0,-2.006980032E-1,3.089732230E-1,9.958268332E0
6.671968400E-1,9.922736168E0,-2.222333997E-1,3.161516786E-1,9.930258437E0
6.696418400E-1,9.934700966E0,-2.102692872E-1,3.041875660E-1,9.941580686E0
6.720851730E-1,9.949057579E0,-2.078764737E-1,2.946162820E-1,9.955589289E0
6.745293920E-1,9.941879272E0,-2.222333997E-1,3.185445070E-1,9.949463390E0
6.769735590E-1,9.925128937E0,-2.198405862E-1,3.305086195E-1,9.933063487E0
6.794177770E-1,9.932307243E0,-2.054836452E-1,3.185445070E-1,9.939538284E0
6.818627250E-1,9.932307243E0,-2.078764737E-1,2.922234535E-1,9.938779319E0
6.843060590E-1,9.939486504E0,-2.150549293E-1,2.898306549E-1,9.946036516E0
6.867502770E-1,9.951450348E0,-2.270190418E-1,2.898306549E-1,9.958258055E0
6.891952770E-1,9.937093735E0,-1.935195327E-1,3.089732230E-1,9.943779269E0
6.916386110E-1,9.941879272E0,-1.983051747E-1,3.041875660E-1,9.948508355E0
6.940828300E-1,9.927521706E0,-2.030908167E-1,3.185445070E-1,9.934707026E0
6.965269960E-1,9.961021423E0,-2.054836452E-1,2.946162820E-1,9.967495677E0
6.989712150E-1,9.949057579E0,-2.174477577E-1,3.017947674E-1,9.956008755E0
7.014161630E-1,9.956235886E0,-2.126621157E-1,3.089732230E-1,9.963298783E0
7.038594960E-1,9.946664810E0,-2.102692872E-1,3.233301640E-1,9.954139662E0
7.063037670E-1,9.941879272E0,-2.054836452E-1,3.041875660E-1,9.948654033E0
7.087487150E-1,9.927521706E0,-2.030908167E-1,3.041875660E-1,9.934257052E0
7.111920480E-1,9.949057579E0,-2.341975123E-1,3.065803945E-1,9.956534875E0
7.136363190E-1,9.934700966E0,-2.150549293E-1,2.922234535E-1,9.941324180E0
7.160804860E-1,9.934700966E0,-2.078764737E-1,2.778665423E-1,9.940759816E0
7.185246520E-1,9.949057579E0,-2.246262282E-1,2.946162820E-1,9.955953114E0
7.209696520E-1,9.965806961E0,-2.078764737E-1,3.017947674E-1,9.972542359E0
7.234129860E-1,9.932307243E0,-1.983051747E-1,3.113660514E-1,9.939165002E0
7.258572050E-1,9.932307243E0,-2.150549293E-1,3.137588799E-1,9.939588544E0
7.283021520E-1,9.939486504E0,-1.983051747E-1,3.017947674E-1,9.946044288E0
7.307454860E-1,9.946664810E0,-2.006980032E-1,3.065803945E-1,9.953412082E0
7.331897570E-1,9.944272041E0,-2.318046987E-1,3.305086195E-1,9.952462801E0
7.356339230E-1,9.944272041E0,-2.150549293E-1,3.041875660E-1,9.951247416E0
7.380780900E-1,9.949057579E0,-2.102692872E-1,3.065803945E-1,9.956000775E0
7.405230900E-1,9.937093735E0,-2.222333997E-1,3.137588799E-1,9.944529361E0
7.429664230E-1,9.939486504E0,-2.054836452E-1,3.041875660E-1,9.946262894E0
7.454106420E-1,9.956235886E0,-2.102692872E-1,3.161516786E-1,9.963473193E0
7.478556420E-1,9.944272041E0,-2.198405862E-1,3.185445070E-1,9.951801190E0
7.502989750E-1,9.944272041E0,-2.078764737E-1,2.826521695E-1,9.950459854E0
7.527431940E-1,9.944272041E0,-2.270190418E-1,2.826521695E-1,9.950878169E0
7.551873610E-1,9.946664810E0,-1.935195327E-1,3.017947674E-1,9.953123667E0
7.576315800E-1,9.941879272E0,-2.126621157E-1,2.922234535E-1,9.948446270E0
7.600765270E-1,9.963414192E0,-2.126621157E-1,3.017947674E-1,9.970252134E0
7.625198610E-1,9.937093735E0,-2.102692872E-1,3.113660514E-1,9.944193979E0
7.649640800E-1,9.941879272E0,-2.294118702E-1,2.946162820E-1,9.948888985E0
7.674090800E-1,9.917950630E0,-2.126621157E-1,3.185445070E-1,9.925343343E0
7.698524130E-1,9.937093735E0,-2.078764737E-1,3.257229924E-1,9.944603561E0
7.722966320E-1,9.941879272E0,-2.270190418E-1,3.089732230E-1,9.949269600E0
7.747408500E-1,9.927521706E0,-2.198405862E-1,2.874378264E-1,9.934114837E0
7.771850170E-1,9.956235886E0,-2.174477577E-1,3.017947674E-1,9.963182053E0
7.796299650E-1,9.941879272E0,-2.102692872E-1,2.922234535E-1,9.948395408E0
7.820732980E-1,9.941879272E0,-1.983051747E-1,3.185445070E-1,9.948957685E0
7.845175690E-1,9.913165092E0,-2.102692872E-1,2.922234535E-1,9.919700090E0
7.869625170E-1,9.944272041E0,-2.054836452E-1,2.778665423E-1,9.950275362E0
7.894058500E-1,9.956235886E0,-2.078764737E-1,3.041875660E-1,9.963050522E0
7.918501210E-1,9.951450348E0,-2.246262282E-1,3.017947674E-1,9.958559185E0
7.942942880E-1,9.939486504E0,-2.174477577E-1,3.089732230E-1,9.946664764E0
7.967384550E-1,9.922736168E0,-2.054836452E-1,3.305086195E-1,9.930365176E0
7.991834550E-1,9.951450348E0,-2.030908167E-1,3.233301640E-1,9.958772630E0
8.016267880E-1,9.939486504E0,-2.102692872E-1,2.730808854E-1,9.945460185E0
8.040710070E-1,9.944272041E0,-2.174477577E-1,3.089732230E-1,9.951446850E0
8.065159550E-1,9.934700966E0,-2.102692872E-1,2.970091105E-1,9.941363632E0
8.089592880E-1,9.937093735E0,-2.102692872E-1,3.065803945E-1,9.944045284E0
8.114035590E-1,9.932307243E0,-2.078764737E-1,2.970091105E-1,9.938921180E0
8.138477250E-1,9.937093735E0,-2.054836452E-1,2.898306549E-1,9.943442926E0
8.162918920E-1,9.946664810E0,-2.078764737E-1,2.970091105E-1,9.953269206E0
8.187368920E-1,9.944272041E0,-2.078764737E-1,2.898306549E-1,9.950666353E0
8.211802250E-1,9.937093735E0,-1.887338907E-1,3.041875660E-1,9.943539734E0
8.236244440E-1,9.961021423E0,-2.078764737E-1,3.089732230E-1,9.967979980E0
8.260694440E-1,9.939486504E0,-1.959123611E-1,2.706880569E-1,9.945101590E0
8.285127770E-1,9.939486504E0,-2.150549293E-1,2.970091105E-1,9.946248287E0
8.309569960E-1,9.937093735E0,-2.102692872E-1,2.922234535E-1,9.943613006E0
8.334011630E-1,9.925128937E0,-2.150549293E-1,2.802593410E-1,9.931413713E0
8.358453820E-1,9.941879272E0,-2.198405862E-1,3.089732230E-1,9.949108392E0
8.382903300E-1,9.934700966E0,-1.935195327E-1,3.041875660E-1,9.941240525E0
8.407336630E-1,9.925128937E0,-2.174477577E-1,2.922234535E-1,9.931810635E0
8.431778820E-1,9.932307243E0,-2.222333997E-1,3.017947674E-1,9.939375984E0
8.456228820E-1,9.932307243E0,-2.006980032E-1,2.874378264E-1,9.938492208E0
8.480662150E-1,9.934700966E0,-2.054836452E-1,3.041875660E-1,9.941480618E0
8.505104340E-1,9.939486504E0,-2.102692872E-1,3.113660514E-1,9.946585039E0
8.529546520E-1,9.944272041E0,-2.126621157E-1,2.826521695E-1,9.950560982E0
8.553988190E-1,9.958628654E0,-2.006980032E-1,3.113660514E-1,9.965516203E0
8.578437670E-1,9.937093735E0,-2.389831543E-1,2.970091105E-1,9.944403414E0
8.602871000E-1,9.939486504E0,-2.174477577E-1,3.017947674E-1,9.946444368E0
8.627313710E-1,9.946664810E0,-2.174477577E-1,3.089732230E-1,9.953837894E0
8.651763190E-1,9.951450348E0,-2.030908167E-1,3.089732230E-1,9.958316844E0
8.676196520E-1,9.934700966E0,-1.959123611E-1,3.017947674E-1,9.941214464E0
8.700638710E-1,9.963414192E0,-2.126621157E-1,3.065803945E-1,9.970398140E0
8.725080900E-1,9.934700966E0,-2.078764737E-1,3.185445070E-1,9.941980010E0
8.749522570E-1,9.946664810E0,-1.983051747E-1,3.161516786E-1,9.953663530E0
8.773972570E-1,9.944272041E0,-1.983051747E-1,2.946162820E-1,9.950611545E0
8.798405900E-1,9.946664810E0,-2.150549293E-1,3.041875660E-1,9.953638508E0
8.822848090E-1,9.951450348E0,-2.270190418E-1,2.898306549E-1,9.958258055E0
8.847297570E-1,9.939486504E0,-2.030908167E-1,2.970091105E-1,9.945996795E0
8.871730900E-1,9.927521706E0,-2.006980032E-1,2.898306549E-1,9.933779176E0
8.896173610E-1,9.941879272E0,-2.030908167E-1,2.994019389E-1,9.948459723E0
8.920615270E-1,9.929914474E0,-2.198405862E-1,2.994019389E-1,9.936859306E0
8.945056940E-1,9.913165092E0,-1.983051747E-1,2.946162820E-1,9.919524477E0
8.969506940E-1,9.932307243E0,-2.078764737E-1,3.041875660E-1,9.939138287E0
8.993940270E-1,9.939486504E0,-2.174477577E-1,2.994019389E-1,9.946372052E0
9.018382460E-1,9.922736168E0,-2.150549293E-1,2.946162820E-1,9.929438072E0
9.042832460E-1,9.927521706E0,-2.126621157E-1,3.017947674E-1,9.934384353E0
9.067265800E-1,9.939486504E0,-2.198405862E-1,3.089732230E-1,9.946717363E0
9.091707980E-1,9.949057579E0,-2.078764737E-1,3.089732230E-1,9.956024497E0
9.116149650E-1,9.917950630E0,-2.150549293E-1,2.994019389E-1,9.924798983E0
9.140591840E-1,9.929914474E0,-2.102692872E-1,3.065803945E-1,9.936871046E0
9.165041320E-1,9.941879272E0,-2.006980032E-1,3.113660514E-1,9.948778416E0
9.189474650E-1,9.932307243E0,-2.102692872E-1,2.970091105E-1,9.938971514E0
9.213916840E-1,9.929914474E0,-2.102692872E-1,3.017947674E-1,9.936724547E0
9.238366840E-1,9.929914474E0,-2.078764737E-1,2.874378264E-1,9.936248518E0
9.262800170E-1,9.939486504E0,-2.222333997E-1,2.898306549E-1,9.946194320E0
9.287242360E-1,9.937093735E0,-2.270190418E-1,2.922234535E-1,9.943981300E0
9.311684550E-1,9.932307243E0,-2.246262282E-1,3.185445070E-1,9.939952451E0
9.336126210E-1,9.917950630E0,-2.222333997E-1,2.898306549E-1,9.924673002E0
9.360575690E-1,9.922736168E0,-2.078764737E-1,2.922234535E-1,9.929214482E0
9.385009550E-1,9.932307243E0,-2.030908167E-1,2.994019389E-1,9.938894032E0
9.409451730E-1,9.939486504E0,-2.054836452E-1,2.994019389E-1,9.946117685E0
9.433901210E-1,9.929914474E0,-2.150549293E-1,3.041875660E-1,9.936899927E0
9.458334550E-1,9.958628654E0,-2.054836452E-1,3.089732230E-1,9.965539256E0
9.482777250E-1,9.920343399E0,-2.150549293E-1,2.994019389E-1,9.927190101E0
9.507218920E-1,9.941879272E0,-2.150549293E-1,2.970091105E-1,9.948639430E0
9.531660590E-1,9.932307243E0,-2.126621157E-1,2.970091105E-1,9.939022425E0
9.556110590E-1,9.946664810E0,-2.341975123E-1,2.898306549E-1,9.953642104E0
9.580543920E-1,9.946664810E0,-2.246262282E-1,2.874378264E-1,9.953352113E0
9.604986110E-1,9.946664810E0,-1.959123611E-1,3.113660514E-1,9.953465292E0
9.629436110E-1,9.934700966E0,-2.198405862E-1,3.305086195E-1,9.942627878E0
9.653868920E-1,9.953843117E0,-2.078764737E-1,2.970091105E-1,9.960442753E0
9.678311630E-1,9.958628654E0,-2.054836452E-1,3.065803945E-1,9.965465355E0
9.702753300E-1,9.937093735E0,-2.126621157E-1,2.874378264E-1,9.943524404E0
9.727194960E-1,9.939486504E0,-2.174477577E-1,3.041875660E-1,9.946517258E0
9.751644960E-1,9.941879272E0,-2.150549293E-1,3.137588799E-1,9.949153568E0
9.776078300E-1,9.944272041E0,-2.126621157E-1,3.233301640E-1,9.951799536E0
9.800520480E-1,9.953843117E0,-2.150549293E-1,2.850449979E-1,9.960245583E0
9.824970480E-1,9.934700966E0,-2.102692872E-1,3.065803945E-1,9.941654188E0
9.849403820E-1,9.927521706E0,-2.078764737E-1,2.994019389E-1,9.934210656E0
9.873846000E-1,9.944272041E0,-2.102692872E-1,2.850449979E-1,9.950578388E0
9.898287670E-1,9.939486504E0,-2.150549293E-1,2.874378264E-1,9.945967076E0
9.922729860E-1,9.949057579E0,-1.959123611E-1,2.994019389E-1,9.955489435E0
9.947179340E-1,9.929914474E0,-2.054836452E-1,3.017947674E-1,9.936624431E0
9.971612670E-1,9.937093735E0,-2.078764737E-1,3.065803945E-1,9.943994975E0
9.996055380E-1,9.932307243E0,-2.102692872E-1,3.065803945E-1,9.939262140E0
1.002050486E0,9.941879272E0,-2.126621157E-1,3.233301640E-1,9.949408577E0
1.004493819E0,9.951450348E0,-2.174477577E-1,3.113660514E-1,9.958694511E0
1.006938038E0,9.953843117E0,-1.983051747E-1,3.113660514E-1,9.960686048E0
1.009382257E0,9.949057579E0,-2.102692872E-1,2.898306549E-1,9.955499068E0
1.011826423E0,9.956235886E0,-2.030908167E-1,3.017947674E-1,9.962879050E0
1.014271423E0,9.956235886E0,-1.983051747E-1,2.850449979E-1,9.962289325E0
1.016714757E0,9.941879272E0,-1.959123611E-1,3.113660514E-1,9.948683025E0
1.019158975E0,9.946664810E0,-2.030908167E-1,3.376871049E-1,9.954467304E0
1.021603923E0,9.929914474E0,-2.270190418E-1,3.161516786E-1,9.937539484E0
1.024047257E0,9.925128937E0,-2.102692872E-1,3.113660514E-1,9.932237734E0
1.026491527E0,9.944272041E0,-2.174477577E-1,3.065803945E-1,9.951372845E0
1.028935694E0,9.934700966E0,-2.054836452E-1,3.185445070E-1,9.941930266E0
1.031379861E0,9.949057579E0,-1.983051747E-1,3.089732230E-1,9.955829253E0
1.033824861E0,9.929914474E0,-2.102692872E-1,3.041875660E-1,9.936797508E0
1.036268194E0,9.934700966E0,-2.150549293E-1,2.850449979E-1,9.941115760E0
1.038712413E0,9.941879272E0,-2.030908167E-1,2.826521695E-1,9.947969722E0
1.041157413E0,9.917950630E0,-2.054836452E-1,3.041875660E-1,9.924741725E0
1.043600746E0,9.917950630E0,-2.150549293E-1,2.994019389E-1,9.924798983E0
1.046044965E0,9.944272041E0,-2.006980032E-1,2.994019389E-1,9.950802362E0
1.048489132E0,9.941879272E0,-2.174477577E-1,3.017947674E-1,9.948835463E0
1.050933298E0,9.939486504E0,-2.198405862E-1,3.113660514E-1,9.946791978E0
1.053378298E0,9.939486504E0,-2.078764737E-1,3.113660514E-1,9.946534743E0
1.055821632E0,9.937093735E0,-2.222333997E-1,3.017947674E-1,9.944159072E0
1.058265850E0,9.937093735E0,-2.198405862E-1,3.041875660E-1,9.944178792E0
1.060710850E0,9.937093735E0,-2.174477577E-1,2.946162820E-1,9.943838000E0
1.063154184E0,9.941879272E0,-2.365903407E-1,2.922234535E-1,9.948986532E0
1.065598402E0,9.949057579E0,-2.102692872E-1,3.041875660E-1,9.955927378E0
1.068042621E0,9.929914474E0,-2.126621157E-1,3.089732230E-1,9.936996080E0
1.070486788E0,9.932307243E0,-2.054836452E-1,3.089732230E-1,9.939236146E0
1.072931736E0,9.949057579E0,-2.054836452E-1,2.946162820E-1,9.955539613E0
1.075375069E0,9.922736168E0,-2.174477577E-1,3.113660514E-1,9.930001279E0
1.077819340E0,9.939486504E0,-2.198405862E-1,2.970091105E-1,9.946352912E0
1.080264288E0,9.932307243E0,-2.246262282E-1,3.113660514E-1,9.939724993E0
1.082707621E0,9.934700966E0,-2.006980032E-1,3.329014480E-1,9.942302869E0
1.085151892E0,9.929914474E0,-2.102692872E-1,3.113660514E-1,9.937019848E0
1.087596059E0,9.956235886E0,-2.030908167E-1,3.041875660E-1,9.962951820E0
1.090040225E0,9.937093735E0,-2.222333997E-1,2.970091105E-1,9.944014983E0
1.092485225E0,9.939486504E0,-2.078764737E-1,2.898306549E-1,9.945883892E0
1.094928559E0,9.920343399E0,-2.126621157E-1,3.161516786E-1,9.927657841E0
1.097372777E0,9.941879272E0,-2.294118702E-1,2.970091105E-1,9.948960131E0
1.099817777E0,9.939486504E0,-2.246262282E-1,3.161516786E-1,9.947049853E0
1.102261111E0,9.937093735E0,-2.102692872E-1,2.922234535E-1,9.943613006E0
1.104705330E0,9.946664810E0,-2.198405862E-1,3.017947674E-1,9.953670218E0
1.107149496E0,9.944272041E0,-2.054836452E-1,2.850449979E-1,9.950478411E0
1.109593663E0,9.949057579E0,-1.959123611E-1,3.137588799E-1,9.955931549E0
1.112038663E0,9.939486504E0,-2.126621157E-1,3.089732230E-1,9.946561294E0
1.114481996E0,9.927521706E0,-2.126621157E-1,3.065803945E-1,9.934530886E0
1.116926215E0,9.927521706E0,-2.198405862E-1,2.970091105E-1,9.934396384E0
1.119371215E0,9.937093735E0,-2.270190418E-1,2.970091105E-1,9.944123086E0
1.121814548E0,9.937093735E0,-2.006980032E-1,3.089732230E-1,9.943921562E0
1.124258767E0,9.958628654E0,-2.413759828E-1,2.898306549E-1,9.965768854E0
1.126702934E0,9.929914474E0,-2.126621157E-1,3.113660514E-1,9.937070769E0
1.129147152E0,9.939486504E0,-2.150549293E-1,2.946162820E-1,9.946177121E0
1.131592100E0,9.925128937E0,-2.078764737E-1,3.113660514E-1,9.932187365E0
1.134035434E0,9.949057579E0,-1.983051747E-1,2.994019389E-1,9.955536810E0
1.136479652E0,9.949057579E0,-2.174477577E-1,2.994019389E-1,9.955936508E0
1.138924652E0,9.937093735E0,-2.150549293E-1,2.994019389E-1,9.943928903E0
1.141367986E0,9.927521706E0,-2.126621157E-1,3.089732230E-1,9.934605017E0
1.143812205E0,9.932307243E0,-2.006980032E-1,3.137588799E-1,9.939288279E0
1.146256423E0,9.925128937E0,-2.102692872E-1,3.017947674E-1,9.931942291E0
1.148700590E0,9.932307243E0,-2.030908167E-1,3.233301640E-1,9.939643628E0
1.151145590E0,9.934700966E0,-2.318046987E-1,2.850449979E-1,9.941492209E0
1.153588923E0,9.932307243E0,-2.270190418E-1,2.778665423E-1,9.938786376E0
1.156033142E0,9.946664810E0,-2.246262282E-1,2.874378264E-1,9.953352113E0
1.158478090E0,9.946664810E0,-2.102692872E-1,3.113660514E-1,9.953758227E0
1.160921423E0,9.934700966E0,-2.006980032E-1,2.898306549E-1,9.940953917E0
1.163365694E0,9.925128937E0,-1.815554202E-1,3.257229924E-1,9.932131808E0
1.165809861E0,9.939486504E0,-1.983051747E-1,3.089732230E-1,9.946264693E0
1.168254027E0,9.949057579E0,-2.078764737E-1,3.209373355E-1,9.956402971E0
1.170699027E0,9.946664810E0,-2.030908167E-1,3.137588799E-1,9.953684311E0
1.173142361E0,9.956235886E0,-2.102692872E-1,2.970091105E-1,9.962884150E0
1.175586580E0,9.939486504E0,-1.983051747E-1,3.113660514E-1,9.946339312E0
1.178031580E0,9.949057579E0,-2.198405862E-1,3.065803945E-1,9.956207518E0
1.180474913E0,9.953843117E0,-2.126621157E-1,3.017947674E-1,9.960687629E0
1.182919132E0,9.949057579E0,-2.030908167E-1,3.113660514E-1,9.956000272E0
1.185363298E0,9.934700966E0,-2.318046987E-1,2.874378264E-1,9.941561105E0
1.187807517E0,9.937093735E0,-2.006980032E-1,3.065803945E-1,9.943847501E0
1.190252465E0,9.934700966E0,-1.935195327E-1,2.874378264E-1,9.940742105E0
1.192695798E0,9.937093735E0,-2.006980032E-1,2.754737139E-1,9.942937058E0
1.195140017E0,9.956235886E0,-2.102692872E-1,2.970091105E-1,9.962884150E0
1.197585017E0,9.941879272E0,-2.150549293E-1,2.850449979E-1,9.948289438E0
1.200028350E0,9.944272041E0,-2.174477577E-1,2.898306549E-1,9.950870905E0
1.202472569E0,9.951450348E0,-2.078764737E-1,2.970091105E-1,9.958051570E0
1.204916788E0,9.934700966E0,-2.102692872E-1,3.089732230E-1,9.941728266E0
1.207360955E0,9.941879272E0,-2.126621157E-1,3.041875660E-1,9.948804889E0
1.209805902E0,9.944272041E0,-2.270190418E-1,3.065803945E-1,9.951586588E0
1.212249236E0,9.934700966E0,-2.102692872E-1,3.113660514E-1,9.941802919E0
1.214693507E0,9.925128937E0,-2.054836452E-1,3.065803945E-1,9.931988697E0
1.217138455E0,9.946664810E0,-2.174477577E-1,3.113660514E-1,9.953912456E0
1.219581788E0,9.970592499E0,-2.318046987E-1,3.017947674E-1,9.977851887E0
1.222026059E0,9.946664810E0,-2.030908167E-1,3.065803945E-1,9.953460618E0
1.224470225E0,9.929914474E0,-2.102692872E-1,3.017947674E-1,9.936724547E0
1.226914392E0,9.941879272E0,-2.078764737E-1,2.922234535E-1,9.948345121E0
1.229359392E0,9.932307243E0,-2.078764737E-1,3.185445070E-1,9.939588040E0
1.231802725E0,9.917950630E0,-2.102692872E-1,3.065803945E-1,9.924915587E0
1.234246944E0,9.932307243E0,-2.294118702E-1,3.161516786E-1,9.939985355E0
1.236691892E0,9.946664810E0,-2.078764737E-1,3.137588799E-1,9.953783105E0
1.239135277E0,9.953843117E0,-2.030908167E-1,3.065803945E-1,9.960634027E0
1.241579496E0,9.925128937E0,-2.126621157E-1,2.826521695E-1,9.931430000E0
1.244023663E0,9.949057579E0,-2.078764737E-1,3.161516786E-1,9.956249857E0
1.246467830E0,9.944272041E0,-2.102692872E-1,2.970091105E-1,9.950928299E0
1.248912830E0,9.929914474E0,-2.006980032E-1,3.185445070E-1,9.937049450E0
1.251356163E0,9.929914474E0,-2.174477577E-1,2.994019389E-1,9.936806656E0
1.253800382E0,9.927521706E0,-2.078764737E-1,3.017947674E-1,9.934283060E0
1.256245382E0,9.961021423E0,-2.150549293E-1,2.994019389E-1,9.967840184E0
1.258688715E0,9.953843117E0,-2.174477577E-1,3.089732230E-1,9.961011032E0
1.261132934E0,9.963414192E0,-2.102692872E-1,2.970091105E-1,9.970057670E0
1.263577100E0,9.951450348E0,-2.078764737E-1,3.017947674E-1,9.958195456E0
1.266021319E0,9.944272041E0,-2.126621157E-1,3.137588799E-1,9.951493166E0
1.268466267E0,9.941879272E0,-2.006980032E-1,3.017947674E-1,9.948483464E0
1.270909600E0,9.925128937E0,-2.222333997E-1,3.209373355E-1,9.932802871E0
1.273353871E0,9.939486504E0,-2.126621157E-1,3.113660514E-1,9.946635911E0
1.275798819E0,9.939486504E0,-2.126621157E-1,3.113660514E-1,9.946635911E0
1.278242152E0,9.939486504E0,-2.054836452E-1,3.113660514E-1,9.946485022E0
1.280686371E0,9.944272041E0,-2.126621157E-1,3.185445070E-1,9.951645201E0
1.283130590E0,9.929914474E0,-2.246262282E-1,2.994019389E-1,9.936966335E0
1.285574757E0,9.939486504E0,-2.102692872E-1,2.994019389E-1,9.946217706E0
1.288019757E0,9.953843117E0,-1.959123611E-1,3.137588799E-1,9.960713784E0
1.290463090E0,9.939486504E0,-2.270190418E-1,3.041875660E-1,9.946731105E0
1.292907309E0,9.941879272E0,-2.198405862E-1,3.041875660E-1,9.948960922E0
1.295352309E0,9.944272041E0,-2.030908167E-1,3.161516786E-1,9.951368961E0
1.297795642E0,9.934700966E0,-2.102692872E-1,2.970091105E-1,9.941363632E0
1.300239861E0,9.939486504E0,-2.294118702E-1,3.137588799E-1,9.947083311E0
1.302684027E0,9.939486504E0,-2.054836452E-1,3.041875660E-1,9.946262894E0
1.305128194E0,9.927521706E0,-2.078764737E-1,2.994019389E-1,9.934210656E0
1.307573194E0,9.946664810E0,-2.078764737E-1,3.113660514E-1,9.953707967E0
1.310016527E0,9.949057579E0,-1.983051747E-1,3.113660514E-1,9.955903800E0
1.312460746E0,9.927521706E0,-2.030908167E-1,3.017947674E-1,9.934184072E0
1.314905746E0,9.925128937E0,-2.126621157E-1,2.922234535E-1,9.931707010E0
1.317349080E0,9.946664810E0,-2.150549293E-1,2.994019389E-1,9.953493406E0
1.319793298E0,9.934700966E0,-2.126621157E-1,3.041875660E-1,9.941631583E0
1.322237517E0,9.927521706E0,-2.174477577E-1,3.113660514E-1,9.934783317E0
1.324681684E0,9.958628654E0,-2.102692872E-1,3.041875660E-1,9.965491856E0
1.327126632E0,9.953843117E0,-2.030908167E-1,2.970091105E-1,9.960344024E0
1.329569965E0,9.949057579E0,-2.126621157E-1,2.970091105E-1,9.955761463E0
1.332014236E0,9.951450348E0,-2.126621157E-1,2.994019389E-1,9.958224276E0
1.334459184E0,9.929914474E0,-2.054836452E-1,3.089732230E-1,9.936845045E0
1.336902517E0,9.944272041E0,-2.174477577E-1,2.946162820E-1,9.951011442E0
1.339346736E0,9.946664810E0,-2.222333997E-1,2.922234535E-1,9.953437752E0
1.341790955E0,9.934700966E0,-2.150549293E-1,3.089732230E-1,9.941830634E0
1.344235121E0,9.920343399E0,-2.102692872E-1,3.305086195E-1,9.928074450E0
1.346680121E0,9.939486504E0,-2.054836452E-1,3.233301640E-1,9.946866737E0
1.349123455E0,9.937093735E0,-2.246262282E-1,3.137588799E-1,9.944583122E0
1.351567673E0,9.953843117E0,-2.126621157E-1,2.994019389E-1,9.960615417E0
1.354012621E0,9.944272041E0,-2.102692872E-1,2.994019389E-1,9.951000006E0
1.356455955E0,9.949057579E0,-2.150549293E-1,2.754737139E-1,9.955193675E0
1.358900225E0,9.941879272E0,-2.246262282E-1,3.065803945E-1,9.949141267E0
1.361344392E0,9.946664810E0,-1.959123611E-1,3.041875660E-1,9.953243319E0
1.363788559E0,9.929914474E0,-2.078764737E-1,3.089732230E-1,9.936894814E0
1.366233559E0,9.932307243E0,-2.102692872E-1,3.113660514E-1,9.939410906E0
1.368676892E0,9.934700966E0,-1.983051747E-1,2.946162820E-1,9.941046574E0
1.371121111E0,9.946664810E0,-2.150549293E-1,3.017947674E-1,9.953565670E0
1.373566111E0,9.939486504E0,-2.246262282E-1,2.874378264E-1,9.946178633E0
1.376009444E0,9.944272041E0,-2.126621157E-1,3.113660514E-1,9.951418011E0
1.378453663E0,9.946664810E0,-2.174477577E-1,3.137588799E-1,9.953987593E0
1.380897830E0,9.939486504E0,-2.078764737E-1,2.826521695E-1,9.945677294E0
1.383342048E0,9.961021423E0,-2.078764737E-1,3.065803945E-1,9.967906097E0
1.385786996E0,9.944272041E0,-2.150549293E-1,3.185445070E-1,9.951696622E0
1.388230330E0,9.932307243E0,-2.102692872E-1,3.089732230E-1,9.939336235E0
1.390674600E0,9.944272041E0,-2.198405862E-1,2.970091105E-1,9.951135148E0
1.393119548E0,9.939486504E0,-2.126621157E-1,2.994019389E-1,9.946268579E0
1.395562882E0,9.953843117E0,-2.198405862E-1,3.089732230E-1,9.961063554E0
1.398007100E0,9.949057579E0,-2.126621157E-1,3.041875660E-1,9.955978202E0
1.400451319E0,9.949057579E0,-2.126621157E-1,3.065803945E-1,9.956051598E0
1.402895486E0,9.932307243E0,-2.102692872E-1,3.233301640E-1,9.939792892E0
1.405340486E0,9.949057579E0,-2.150549293E-1,2.970091105E-1,9.955812862E0
1.407783819E0,9.941879272E0,-2.078764737E-1,2.922234535E-1,9.948345121E0
1.410228038E0,9.934700966E0,-2.174477577E-1,3.041875660E-1,9.941735104E0
1.412672986E0,9.944272041E0,-2.054836452E-1,3.065803945E-1,9.951118605E0
1.415116319E0,9.939486504E0,-2.102692872E-1,3.137588799E-1,9.946660232E0
1.417560590E0,9.941879272E0,-2.006980032E-1,3.089732230E-1,9.948703816E0
1.420004757E0,9.958628654E0,-1.959123611E-1,2.898306549E-1,9.964771354E0
1.422448923E0,9.937093735E0,-2.150549293E-1,2.874378264E-1,9.943575867E0
1.424893923E0,9.927521706E0,-2.174477577E-1,3.041875660E-1,9.934560927E0
1.427337257E0,9.920343399E0,-2.270190418E-1,3.233301640E-1,9.928206948E0
1.429781475E0,9.944272041E0,-2.126621157E-1,3.041875660E-1,9.951195993E0
1.432226475E0,9.939486504E0,-2.078764737E-1,3.065803945E-1,9.946386083E0
1.434669809E0,9.946664810E0,-2.270190418E-1,3.017947674E-1,9.953831351E0
1.437114027E0,9.937093735E0,-2.102692872E-1,2.898306549E-1,9.943542974E0
1.439558194E0,9.939486504E0,-2.126621157E-1,3.041875660E-1,9.946413786E0
1.442002413E0,9.934700966E0,-2.174477577E-1,3.113660514E-1,9.941957334E0
1.444447361E0,9.946664810E0,-2.270190418E-1,3.209373355E-1,9.954430133E0
1.446890694E0,9.932307243E0,-2.174477577E-1,3.209373355E-1,9.939869792E0
1.449334913E0,9.941879272E0,-2.174477577E-1,2.778665423E-1,9.948138359E0
1.451779913E0,9.927521706E0,-2.222333997E-1,3.017947674E-1,9.934593851E0
1.454223246E0,9.939486504E0,-1.959123611E-1,3.017947674E-1,9.945996868E0
1.456667465E0,9.946664810E0,-2.030908167E-1,2.946162820E-1,9.953099290E0
1.459111684E0,9.932307243E0,-2.102692872E-1,3.113660514E-1,9.939410906E0
1.461555850E0,9.927521706E0,-2.006980032E-1,3.089732230E-1,9.934356112E0
1.464000798E0,9.949057579E0,-2.270190418E-1,3.065803945E-1,9.956368610E0
1.466444184E0,9.941879272E0,-2.150549293E-1,3.017947674E-1,9.948783452E0
1.468888402E0,9.944272041E0,-2.078764737E-1,2.850449979E-1,9.950528112E0
1.471333350E0,9.937093735E0,-2.150549293E-1,2.994019389E-1,9.943928903E0
1.473776684E0,9.951450348E0,-2.150549293E-1,2.826521695E-1,9.957786144E0
1.476220955E0,9.937093735E0,-2.150549293E-1,3.017947674E-1,9.944001237E0
1.478665121E0,9.961021423E0,-2.126621157E-1,2.970091105E-1,9.967717260E0
1.481109288E0,9.941879272E0,-2.102692872E-1,2.898306549E-1,9.948325409E0
1.483554288E0,9.951450348E0,-2.294118702E-1,3.041875660E-1,9.958741080E0
1.485997621E0,9.937093735E0,-2.126621157E-1,2.994019389E-1,9.943877442E0
1.488441840E0,9.939486504E0,-2.270190418E-1,3.113660514E-1,9.946953223E0
1.490886840E0,9.934700966E0,-2.078764737E-1,3.161516786E-1,9.941903630E0
1.493330173E0,9.946664810E0,-2.078764737E-1,3.113660514E-1,9.953707967E0
1.495774392E0,9.934700966E0,-1.983051747E-1,3.089732230E-1,9.941482418E0
1.498218559E0,9.944272041E0,-2.246262282E-1,3.089732230E-1,9.951606294E0
1.500662777E0,9.939486504E0,-2.150549293E-1,2.802593410E-1,9.945762207E0
1.503107725E0,9.951450348E0,-1.983051747E-1,2.970091105E-1,9.957856365E0
1.505551059E0,9.939486504E0,-1.983051747E-1,3.089732230E-1,9.946264693E0
1.507995277E0,9.937093735E0,-2.102692872E-1,3.041875660E-1,9.943971799E0
1.510440277E0,9.937093735E0,-2.078764737E-1,2.970091105E-1,9.943704487E0
1.512883611E0,9.932307243E0,-2.126621157E-1,3.376871049E-1,9.940321168E0
1.515327830E0,9.937093735E0,-2.198405862E-1,2.994019389E-1,9.944033553E0
1.517772048E0,9.946664810E0,-2.174477577E-1,2.970091105E-1,9.953473704E0
1.520216215E0,9.922736168E0,-2.102692872E-1,2.874378264E-1,9.929125175E0
1.522661163E0,9.922736168E0,-2.054836452E-1,3.089732230E-1,9.929671749E0
1.525104496E0,9.953843117E0,-2.198405862E-1,2.922234535E-1,9.960558078E0
1.527548767E0,9.927521706E0,-2.030908167E-1,3.017947674E-1,9.934184072E0
1.529993715E0,9.905986786E0,-2.198405862E-1,3.089732230E-1,9.913242080E0
1.532437048E0,9.937093735E0,-2.150549293E-1,3.305086195E-1,9.944914100E0
1.534881319E0,9.925128937E0,-1.935195327E-1,3.137588799E-1,9.931972556E0
1.537325486E0,9.934700966E0,-1.959123611E-1,3.089732230E-1,9.941434976E0
1.539769652E0,9.915557861E0,-1.959123611E-1,2.922234535E-1,9.921797413E0
1.542214652E0,9.939486504E0,-2.126621157E-1,3.017947674E-1,9.946340896E0
1.544657986E0,9.941879272E0,-2.030908167E-1,3.137588799E-1,9.948902150E0
1.547102205E0,9.939486504E0,-1.983051747E-1,3.065803945E-1,9.946190649E0
1.549547205E0,9.958628654E0,-1.959123611E-1,2.970091105E-1,9.964982727E0
1.551990538E0,9.939486504E0,-2.198405862E-1,3.185445070E-1,9.947019274E0
1.554434757E0,9.937093735E0,-2.054836452E-1,3.017947674E-1,9.943798847E0
1.556878923E0,9.937093735E0,-2.222333997E-1,2.994019389E-1,9.944086740E0
1.559323142E0,9.932307243E0,-2.294118702E-1,2.922234535E-1,9.939253067E0
1.561768090E0,9.939486504E0,-2.150549293E-1,3.185445070E-1,9.946914656E0
1.564211423E0,9.932307243E0,-1.911267042E-1,3.089732230E-1,9.938949695E0
1.566655642E0,9.970592499E0,-1.983051747E-1,2.850449979E-1,9.976637228E0
1.569100642E0,9.949057579E0,-2.054836452E-1,2.922234535E-1,9.955469089E0
1.571543975E0,9.946664810E0,-2.270190418E-1,2.994019389E-1,9.953759090E0
1.573988194E0,9.941879272E0,-2.006980032E-1,3.305086195E-1,9.949395917E0
1.576432413E0,9.937093735E0,-2.270190418E-1,3.065803945E-1,9.944413561E0
1.578876580E0,9.951450348E0,-2.126621157E-1,2.922234535E-1,9.958011034E0
1.581321527E0,9.949057579E0,-1.983051747E-1,3.041875660E-1,9.955681882E0
1.583764913E0,9.946664810E0,-2.222333997E-1,2.970091105E-1,9.953579403E0
1.586209132E0,9.941879272E0,-2.126621157E-1,3.065803945E-1,9.948878338E0
1.588654080E0,9.937093735E0,-2.078764737E-1,3.041875660E-1,9.943921490E0
1.591097413E0,9.941879272E0,-2.150549293E-1,2.970091105E-1,9.948639430E0
1.593541684E0,9.939486504E0,-2.174477577E-1,3.089732230E-1,9.946664764E0
1.595985850E0,9.941879272E0,-2.222333997E-1,3.137588799E-1,9.949311322E0
1.598430017E0,9.934700966E0,-2.270190418E-1,2.970091105E-1,9.941732009E0
1.600875017E0,9.937093735E0,-2.270190418E-1,3.065803945E-1,9.944413561E0
1.603318350E0,9.929914474E0,-2.150549293E-1,3.113660514E-1,9.937122265E0
1.605762569E0,9.946664810E0,-2.318046987E-1,3.113660514E-1,9.954236439E0
1.608207569E0,9.934700966E0,-2.174477577E-1,2.994019389E-1,9.941589829E0
1.610650902E0,9.949057579E0,-2.078764737E-1,2.898306549E-1,9.955448817E0
1.613095121E0,9.941879272E0,-2.054836452E-1,2.898306549E-1,9.948225410E0
1.615539288E0,9.944272041E0,-2.246262282E-1,2.946162820E-1,9.951170892E0
1.617983507E0,9.953843117E0,-2.222333997E-1,2.994019389E-1,9.960824363E0
1.620428455E0,9.932307243E0,-2.126621157E-1,3.185445070E-1,9.939689279E0
1.622871788E0,9.929914474E0,-2.198405862E-1,3.233301640E-1,9.937609056E0
1.625316059E0,9.929914474E0,-2.222333997E-1,2.994019389E-1,9.936912532E0
1.627761007E0,9.929914474E0,-2.102692872E-1,3.017947674E-1,9.936724547E0
1.630204340E0,9.939486504E0,-2.318046987E-1,2.994019389E-1,9.946696280E0
1.632648559E0,9.946664810E0,-2.006980032E-1,2.946162820E-1,9.953050753E0
1.635092777E0,9.929914474E0,-2.198405862E-1,3.161516786E-1,9.937378087E0
1.637536944E0,9.934700966E0,-2.198405862E-1,3.065803945E-1,9.941861229E0
1.639981944E0,9.941879272E0,-2.150549293E-1,3.017947674E-1,9.948783452E0
1.642425277E0,9.951450348E0,-2.174477577E-1,3.161516786E-1,9.958845286E0
1.644869496E0,9.937093735E0,-2.246262282E-1,2.970091105E-1,9.944068747E0
1.647314444E0,9.941879272E0,-2.030908167E-1,2.970091105E-1,9.948387998E0
1.649757777E0,9.937093735E0,-2.198405862E-1,2.922234535E-1,9.943820007E0
1.652202048E0,9.932307243E0,-1.959123611E-1,2.778665423E-1,9.938124503E0
1.654646215E0,9.953843117E0,-2.198405862E-1,3.017947674E-1,9.960843476E0
1.657090382E0,9.941879272E0,-2.054836452E-1,2.898306549E-1,9.948225410E0
1.659535382E0,9.932307243E0,-1.983051747E-1,3.041875660E-1,9.938942710E0
1.661978715E0,9.951450348E0,-2.222333997E-1,2.946162820E-1,9.958290539E0
1.664422934E0,9.939486504E0,-2.006980032E-1,3.065803945E-1,9.946238645E0
1.666867934E0,9.937093735E0,-2.126621157E-1,3.137588799E-1,9.944320072E0
1.669311267E0,9.939486504E0,-2.006980032E-1,3.113660514E-1,9.946387307E0
1.671755486E0,9.941879272E0,-2.150549293E-1,3.089732230E-1,9.949003797E0
1.674199652E0,9.958628654E0,-2.222333997E-1,3.137588799E-1,9.966048214E0
1.676643871E0,9.944272041E0,-2.126621157E-1,3.017947674E-1,9.951123137E0
1.679088819E0,9.941879272E0,-2.102692872E-1,3.113660514E-1,9.948976101E0
1.681532152E0,9.937093735E0,-2.030908167E-1,3.041875660E-1,9.943822597E0
1.683976371E0,9.934700966E0,-2.078764737E-1,3.137588799E-1,9.941827827E0
1.686421371E0,9.941879272E0,-2.054836452E-1,3.017947674E-1,9.948581159E0
1.688864705E0,9.925128937E0,-2.150549293E-1,2.946162820E-1,9.931829227E0
1.691308923E0,9.953843117E0,-2.246262282E-1,3.137588799E-1,9.961319911E0
1.693753142E0,9.951450348E0,-2.174477577E-1,2.922234535E-1,9.958114385E0
1.696197309E0,9.937093735E0,-2.078764737E-1,3.017947674E-1,9.943848581E0
1.698642309E0,9.951450348E0,-1.983051747E-1,2.970091105E-1,9.957856365E0
1.701085642E0,9.951450348E0,-2.222333997E-1,2.826521695E-1,9.957943762E0
1.703529861E0,9.927521706E0,-2.030908167E-1,2.994019389E-1,9.934111667E0
1.705974809E0,9.929914474E0,-1.887338907E-1,3.257229924E-1,9.937047722E0
1.708418142E0,9.944272041E0,-2.198405862E-1,2.970091105E-1,9.951135148E0
1.710862413E0,9.946664810E0,-2.054836452E-1,3.017947674E-1,9.953363475E0
1.713306580E0,9.951450348E0,-2.078764737E-1,2.898306549E-1,9.957840050E0
1.715750746E0,9.944272041E0,-2.006980032E-1,3.161516786E-1,9.951320415E0
1.718195746E0,9.951450348E0,-2.078764737E-1,2.874378264E-1,9.957770692E0
1.720639080E0,9.941879272E0,-2.150549293E-1,2.946162820E-1,9.948568281E0
1.723083298E0,9.958628654E0,-2.054836452E-1,3.113660514E-1,9.965613730E0
1.725528298E0,9.932307243E0,-2.102692872E-1,3.017947674E-1,9.939115677E0
1.727971632E0,9.961021423E0,-1.983051747E-1,2.874378264E-1,9.967140675E0
1.730415850E0,9.941879272E0,-1.983051747E-1,3.089732230E-1,9.948655832E0
1.732860017E0,9.929914474E0,-1.983051747E-1,3.209373355E-1,9.937078403E0
1.735304236E0,9.941879272E0,-1.935195327E-1,2.778665423E-1,9.947644098E0
1.737749184E0,9.951450348E0,-2.054836452E-1,2.850449979E-1,9.957652244E0
1.740192517E0,9.932307243E0,-2.126621157E-1,3.065803945E-1,9.939313049E0
1.742636788E0,9.922736168E0,-2.198405862E-1,2.898306549E-1,9.929402034E0
1.745081736E0,9.934700966E0,-1.983051747E-1,2.922234535E-1,9.940975947E0
1.747525069E0,9.939486504E0,-2.150549293E-1,3.017947674E-1,9.946392344E0
1.749969288E0,9.941879272E0,-2.102692872E-1,3.089732230E-1,9.948901502E0
1.752413507E0,9.953843117E0,-2.126621157E-1,3.041875660E-1,9.960760415E0
1.754857673E0,9.929914474E0,-1.959123611E-1,2.970091105E-1,9.936286909E0
1.757302673E0,9.934700966E0,-2.150549293E-1,3.137588799E-1,9.941980514E0
1.759746007E0,9.932307243E0,-2.174477577E-1,2.850449979E-1,9.938775647E0
1.762190225E0,9.946664810E0,-2.246262282E-1,3.065803945E-1,9.953923313E0
1.764635225E0,9.939486504E0,-2.054836452E-1,2.994019389E-1,9.946117685E0
1.767078559E0,9.946664810E0,-2.198405862E-1,3.113660514E-1,9.953965016E0
1.769522777E0,9.934700966E0,-2.222333997E-1,3.137588799E-1,9.942138382E0
1.771966944E0,9.932307243E0,-2.102692872E-1,2.946162820E-1,9.938900296E0
1.774411111E0,9.927521706E0,-2.102692872E-1,3.017947674E-1,9.934333419E0
1.776856111E0,9.941879272E0,-2.102692872E-1,3.209373355E-1,9.949280246E0
1.779299444E0,9.956235886E0,-2.078764737E-1,3.161516786E-1,9.963422982E0
1.781743663E0,9.941879272E0,-2.054836452E-1,2.922234535E-1,9.948295409E0
1.784188663E0,9.932307243E0,-2.054836452E-1,2.922234535E-1,9.938729559E0
1.786631996E0,9.951450348E0,-2.006980032E-1,3.137588799E-1,9.958417964E0
1.789076215E0,9.946664810E0,-2.102692872E-1,3.089732230E-1,9.953683663E0
1.791520382E0,9.956235886E0,-2.102692872E-1,3.161516786E-1,9.963473193E0
1.793964600E0,9.941879272E0,-2.150549293E-1,3.113660514E-1,9.949078395E0
1.796409548E0,9.946664810E0,-2.030908167E-1,3.017947674E-1,9.953314363E0
1.798852882E0,9.941879272E0,-2.174477577E-1,3.041875660E-1,9.948908336E0
1.801297152E0,9.937093735E0,-2.174477577E-1,2.994019389E-1,9.943980940E0
1.803742100E0,9.934700966E0,-2.150549293E-1,2.778665423E-1,9.940912519E0
1.806185434E0,9.934700966E0,-2.078764737E-1,2.946162820E-1,9.941242109E0
1.808629705E0,9.934700966E0,-1.887338907E-1,3.257229924E-1,9.941830779E0
1.811073871E0,9.941879272E0,-2.150549293E-1,3.017947674E-1,9.948783452E0
1.813518038E0,9.949057579E0,-2.078764737E-1,3.161516786E-1,9.956249857E0
1.815963038E0,9.941879272E0,-2.174477577E-1,3.257229924E-1,9.949590065E0
1.818406371E0,9.908379555E0,-2.174477577E-1,2.994019389E-1,9.915286705E0
1.820850590E0,9.920343399E0,-2.102692872E-1,3.017947674E-1,9.927160037E0
1.823295590E0,9.951450348E0,-2.030908167E-1,3.041875660E-1,9.958169510E0
1.825738923E0,9.977771759E0,-2.006980032E-1,2.994019389E-1,9.984280169E0
1.828183142E0,9.956235886E0,-2.102692872E-1,2.994019389E-1,9.962955771E0
1.830627309E0,9.917950630E0,-2.054836452E-1,2.922234535E-1,9.924382237E0
1.833071475E0,9.939486504E0,-2.030908167E-1,3.089732230E-1,9.946361259E0
1.835516475E0,9.937093735E0,-1.935195327E-1,2.922234535E-1,9.943272914E0
1.837959809E0,9.944272041E0,-1.983051747E-1,2.946162820E-1,9.950611545E0
1.840404027E0,9.932307243E0,-2.102692872E-1,2.994019389E-1,9.939043308E0
1.842849027E0,9.937093735E0,-2.246262282E-1,2.826521695E-1,9.943650290E0
1.845292361E0,9.946664810E0,-1.959123611E-1,3.065803945E-1,9.953316736E0
1.847736580E0,9.941879272E0,-2.150549293E-1,3.017947674E-1,9.948783452E0
1.850180798E0,9.949057579E0,-2.126621157E-1,3.137588799E-1,9.956275233E0
1.852624965E0,9.929914474E0,-2.150549293E-1,3.113660514E-1,9.937122265E0
1.855069913E0,9.944272041E0,-2.222333997E-1,2.970091105E-1,9.951188297E0
1.857513298E0,9.927521706E0,-1.983051747E-1,2.850449979E-1,9.933592644E0
1.859957517E0,9.937093735E0,-2.078764737E-1,2.898306549E-1,9.943492663E0
1.862402465E0,9.951450348E0,-2.198405862E-1,3.113660514E-1,9.958747046E0
1.864845798E0,9.929914474E0,-2.126621157E-1,3.089732230E-1,9.936996080E0
1.867290069E0,9.934700966E0,-2.294118702E-1,2.994019389E-1,9.941858710E0
1.869734236E0,9.929914474E0,-2.006980032E-1,2.970091105E-1,9.936382419E0
1.872178402E0,9.946664810E0,-2.126621157E-1,2.946162820E-1,9.953299190E0
1.874623402E0,9.910772324E0,-2.222333997E-1,2.946162820E-1,9.917640571E0
1.877066736E0,9.917950630E0,-2.222333997E-1,3.041875660E-1,9.925102642E0
1.879510955E0,9.939486504E0,-1.959123611E-1,2.922234535E-1,9.945711043E0
1.881955955E0,9.927521706E0,-1.887338907E-1,3.065803945E-1,9.934047475E0
1.884399288E0,9.951450348E0,-2.078764737E-1,3.089732230E-1,9.958415592E0
1.886843507E0,9.932307243E0,-2.030908167E-1,3.209373355E-1,9.939566079E0
1.889287673E0,9.949057579E0,-2.126621157E-1,3.017947674E-1,9.955905382E0
1.891731892E0,9.956235886E0,-2.174477577E-1,3.209373355E-1,9.963780272E0
1.894176840E0,9.953843117E0,-2.078764737E-1,3.113660514E-1,9.960881198E0
1.896620173E0,9.951450348E0,-2.246262282E-1,3.017947674E-1,9.958559185E0
1.899064444E0,9.941879272E0,-2.054836452E-1,3.113660514E-1,9.948876108E0
1.901509392E0,9.951450348E0,-2.126621157E-1,3.305086195E-1,9.959208058E0
1.903952725E0,9.934700966E0,-2.222333997E-1,3.209373355E-1,9.942367512E0
1.906396944E0,9.944272041E0,-2.198405862E-1,2.994019389E-1,9.951206853E0
1.908841163E0,9.939486504E0,-2.006980032E-1,3.017947674E-1,9.946092284E0
1.911285330E0,9.932307243E0,-2.078764737E-1,2.850449979E-1,9.938570846E0
1.913730330E0,9.932307243E0,-2.030908167E-1,3.161516786E-1,9.939412706E0
1.916173663E0,9.932307243E0,-2.246262282E-1,3.041875660E-1,9.939502714E0
1.918617882E0,9.944272041E0,-2.270190418E-1,3.017947674E-1,9.951440306E0
1.921062830E0,9.922736168E0,-2.174477577E-1,3.089732230E-1,9.929926537E0
1.923506215E0,9.932307243E0,-2.246262282E-1,3.041875660E-1,9.939502714E0
1.925950434E0,9.929914474E0,-2.006980032E-1,2.946162820E-1,9.936311182E0
1.928394600E0,9.946664810E0,-1.935195327E-1,3.137588799E-1,9.953493622E0
1.930838767E0,9.951450348E0,-2.102692872E-1,3.089732230E-1,9.958465828E0
1.933283767E0,9.963414192E0,-2.102692872E-1,3.113660514E-1,9.970495693E0
1.935727100E0,9.941879272E0,-2.030908167E-1,3.065803945E-1,9.948678349E0
1.938171319E0,9.937093735E0,-2.030908167E-1,3.065803945E-1,9.943896083E0
1.940616319E0,9.934700966E0,-2.030908167E-1,3.233301640E-1,9.942035584E0
1.943059652E0,9.927521706E0,-2.126621157E-1,2.850449979E-1,9.933889623E0
1.945503871E0,9.946664810E0,-2.078764737E-1,3.185445070E-1,9.953935105E0
1.947948038E0,9.946664810E0,-2.150549293E-1,3.041875660E-1,9.953638508E0
1.950392257E0,9.946664810E0,-2.030908167E-1,2.946162820E-1,9.953099290E0
1.952837205E0,9.937093735E0,-2.198405862E-1,2.826521695E-1,9.943543334E0
1.955280538E0,9.927521706E0,-2.270190418E-1,3.041875660E-1,9.934775032E0
1.957724809E0,9.929914474E0,-2.006980032E-1,3.017947674E-1,9.936526619E0
1.960169757E0,9.941879272E0,-2.294118702E-1,2.850449979E-1,9.948610150E0
1.962613090E0,9.963414192E0,-1.911267042E-1,2.946162820E-1,9.969601323E0
1.965057309E0,9.941879272E0,-2.270190418E-1,2.994019389E-1,9.948976964E0
1.967501527E0,9.937093735E0,-2.246262282E-1,3.017947674E-1,9.944212835E0
1.969945694E0,9.929914474E0,-2.030908167E-1,3.209373355E-1,9.937175058E0
1.972390694E0,9.953843117E0,-2.030908167E-1,3.137588799E-1,9.960857559E0
1.974834027E0,9.934700966E0,-2.270190418E-1,3.089732230E-1,9.942096629E0
1.977278246E0,9.937093735E0,-1.983051747E-1,3.113660514E-1,9.943948192E0
1.979723246E0,9.937093735E0,-2.078764737E-1,3.065803945E-1,9.943994975E0
1.982166580E0,9.932307243E0,-2.126621157E-1,2.922234535E-1,9.938880566E0
1.984610798E0,9.932307243E0,-2.198405862E-1,2.994019389E-1,9.939250403E0
1.987054965E0,9.932307243E0,-2.126621157E-1,2.922234535E-1,9.938880566E0
1.989499132E0,9.922736168E0,-2.078764737E-1,3.041875660E-1,9.929573796E0
1.991944132E0,9.932307243E0,-2.102692872E-1,2.898306549E-1,9.938759588E0
1.994387465E0,9.910772324E0,-2.246262282E-1,3.041875660E-1,9.917983417E0
1.996831684E0,9.941879272E0,-2.006980032E-1,3.041875660E-1,9.948556339E0
1.999276684E0,9.932307243E0,-2.126621157E-1,3.041875660E-1,9.939239530E0
2.001720017E0,9.946664810E0,-2.078764737E-1,2.994019389E-1,9.953340896E0
2.004164236E0,9.939486504E0,-2.198405862E-1,3.017947674E-1,9.946496967E0
2.006608455E0,9.932307243E0,-2.078764737E-1,3.089732230E-1,9.939285903E0
2.009052621E0,9.953843117E0,-2.246262282E-1,3.305086195E-1,9.961861557E0
2.011497569E0,9.961021423E0,-2.318046987E-1,3.065803945E-1,9.968433816E0
2.013940902E0,9.946664810E0,-2.102692872E-1,3.017947674E-1,9.953463422E0
2.016385173E0,9.951450348E0,-2.246262282E-1,3.065803945E-1,9.958705363E0
2.018830121E0,9.939486504E0,-1.959123611E-1,3.017947674E-1,9.945996868E0
2.021273455E0,9.932307243E0,-2.054836452E-1,3.065803945E-1,9.939162049E0
2.023717725E0,9.922736168E0,-2.006980032E-1,2.994019389E-1,9.929280652E0
2.026161892E0,9.941879272E0,-1.911267042E-1,2.826521695E-1,9.947732663E0
2.028606059E0,9.934700966E0,-2.150549293E-1,3.089732230E-1,9.941830634E0
2.031051059E0,9.939486504E0,-2.054836452E-1,2.922234535E-1,9.945904184E0
2.033494392E0,9.965806961E0,-2.222333997E-1,2.994019389E-1,9.972779833E0
2.035938611E0,9.953843117E0,-2.198405862E-1,2.994019389E-1,9.960771265E0
2.038383611E0,9.937093735E0,-2.006980032E-1,2.994019389E-1,9.943628769E0
2.040826944E0,9.941879272E0,-2.222333997E-1,3.185445070E-1,9.949463390E0
2.043271163E0,9.932307243E0,-2.078764737E-1,2.850449979E-1,9.938570846E0
2.045715330E0,9.939486504E0,-2.174477577E-1,3.209373355E-1,9.947043594E0
2.048159496E0,9.941879272E0,-2.150549293E-1,3.041875660E-1,9.948856325E0
2.050604496E0,9.932307243E0,-2.150549293E-1,3.113660514E-1,9.939513299E0
2.053047830E0,9.951450348E0,-2.102692872E-1,3.017947674E-1,9.958245693E0
2.055492100E0,9.927521706E0,-2.126621157E-1,3.137588799E-1,9.934755006E0
2.057937048E0,9.934700966E0,-2.102692872E-1,3.185445070E-1,9.942030329E0
2.060380382E0,9.932307243E0,-2.102692872E-1,3.065803945E-1,9.939262140E0
2.062824600E0,9.934700966E0,-2.078764737E-1,3.065803945E-1,9.941603867E0
2.065268819E0,9.944272041E0,-2.078764737E-1,3.257229924E-1,9.951776451E0
2.067712986E0,9.941879272E0,-2.102692872E-1,2.970091105E-1,9.948537131E0
2.070157986E0,9.944272041E0,-2.030908167E-1,3.041875660E-1,9.950996050E0
2.072601319E0,9.956235886E0,-2.150549293E-1,3.041875660E-1,9.963202884E0
2.075045538E0,9.937093735E0,-2.054836452E-1,3.137588799E-1,9.944169149E0
2.077490486E0,9.932307243E0,-2.078764737E-1,2.970091105E-1,9.938921180E0
2.079933871E0,9.934700966E0,-2.270190418E-1,3.041875660E-1,9.941949054E0
2.082378090E0,9.949057579E0,-2.102692872E-1,2.898306549E-1,9.955499068E0
2.084822257E0,9.929914474E0,-2.270190418E-1,3.113660514E-1,9.937388386E0
2.087266423E0,9.949057579E0,-2.006980032E-1,3.041875660E-1,9.955729831E0
2.089711423E0,9.963414192E0,-1.959123611E-1,2.946162820E-1,9.969694217E0
2.092154757E0,9.946664810E0,-2.150549293E-1,3.017947674E-1,9.953565670E0
2.094598975E0,9.944272041E0,-2.030908167E-1,2.994019389E-1,9.950850910E0
2.097043975E0,9.949057579E0,-2.078764737E-1,3.041875660E-1,9.955877129E0
2.099487309E0,9.946664810E0,-2.150549293E-1,3.233301640E-1,9.954241903E0
2.101931527E0,9.944272041E0,-2.102692872E-1,3.185445070E-1,9.951594355E0
2.104375746E0,9.929914474E0,-2.078764737E-1,2.922234535E-1,9.936388109E0
2.106819913E0,9.939486504E0,-2.389831543E-1,2.898306549E-1,9.946582665E0
2.109264861E0,9.949057579E0,-2.102692872E-1,2.970091105E-1,9.955710637E0
2.111708194E0,9.946664810E0,-2.006980032E-1,2.970091105E-1,9.953121869E0
2.114152465E0,9.944272041E0,-2.126621157E-1,2.826521695E-1,9.950560982E0
2.116597413E0,9.937093735E0,-2.126621157E-1,2.874378264E-1,9.943524404E0
2.119040746E0,9.949057579E0,-2.102692872E-1,3.089732230E-1,9.956074745E0
2.121485017E0,9.953843117E0,-2.294118702E-1,2.946162820E-1,9.960844410E0
2.123929184E0,9.956235886E0,-1.959123611E-1,3.400799036E-1,9.963968537E0
2.126373350E0,9.946664810E0,-2.078764737E-1,2.826521695E-1,9.952851135E0
2.128818350E0,9.949057579E0,-2.174477577E-1,3.065803945E-1,9.956154969E0
2.131261684E0,9.951450348E0,-2.198405862E-1,3.161516786E-1,9.958897820E0
2.133705902E0,9.953843117E0,-2.174477577E-1,2.946162820E-1,9.960576041E0
2.136150902E0,9.953843117E0,-2.198405862E-1,3.185445070E-1,9.961365031E0
2.138594236E0,9.917950630E0,-2.006980032E-1,2.994019389E-1,9.924498270E0
2.141038455E0,9.944272041E0,-1.959123611E-1,3.089732230E-1,9.950999575E0
2.143482621E0,9.949057579E0,-2.078764737E-1,3.089732230E-1,9.956024497E0
2.145926840E0,9.951450348E0,-2.030908167E-1,3.089732230E-1,9.958316844E0
2.148371788E0,9.951450348E0,-2.102692872E-1,3.041875660E-1,9.958318496E0
2.150815121E0,9.934700966E0,-2.078764737E-1,2.898306549E-1,9.941101434E0
2.153259392E0,9.946664810E0,-2.030908167E-1,2.874378264E-1,9.952889391E0
2.155704340E0,9.927521706E0,-2.030908167E-1,3.017947674E-1,9.934184072E0
2.158147673E0,9.932307243E0,-1.959123611E-1,3.137588799E-1,9.939192797E0
2.160591892E0,9.929914474E0,-2.222333997E-1,3.041875660E-1,9.937057876E0
2.163036111E0,9.939486504E0,-2.222333997E-1,2.994019389E-1,9.946477827E0
2.165480277E0,9.946664810E0,-2.126621157E-1,3.065803945E-1,9.953660511E0
2.167925277E0,9.951450348E0,-2.006980032E-1,2.850449979E-1,9.957554638E0
2.170368611E0,9.946664810E0,-2.006980032E-1,3.209373355E-1,9.953864642E0
2.172812830E0,9.939486504E0,-2.222333997E-1,2.850449979E-1,9.946056017E0
2.175257777E0,9.946664810E0,-2.150549293E-1,3.017947674E-1,9.953565670E0
2.177701163E0,9.946664810E0,-2.126621157E-1,2.922234535E-1,9.953228650E0
2.180145382E0,9.939486504E0,-2.246262282E-1,3.089732230E-1,9.946824285E0
2.182589548E0,9.946664810E0,-2.126621157E-1,3.041875660E-1,9.953587097E0
2.185033715E0,9.939486504E0,-2.126621157E-1,3.209373355E-1,9.946940128E0
2.187478715E0,9.946664810E0,-2.006980032E-1,3.161516786E-1,9.953711490E0
2.189922048E0,9.949057579E0,-2.126621157E-1,3.185445070E-1,9.956427195E0
2.192366267E0,9.941879272E0,-2.102692872E-1,2.970091105E-1,9.948537131E0
2.194811267E0,9.951450348E0,-2.006980032E-1,3.041875660E-1,9.958120997E0
2.197254600E0,9.927521706E0,-2.078764737E-1,3.089732230E-1,9.934503727E0
2.199698819E0,9.925128937E0,-1.911267042E-1,3.065803945E-1,9.931702038E0
2.202142986E0,9.937093735E0,-1.983051747E-1,2.994019389E-1,9.943580761E0
2.204587205E0,9.941879272E0,-2.102692872E-1,2.946162820E-1,9.948465982E0
2.207032152E0,9.929914474E0,-2.150549293E-1,3.065803945E-1,9.936973464E0
2.209475486E0,9.934700966E0,-2.102692872E-1,2.898306549E-1,9.941151757E0
2.211919757E0,9.934700966E0,-2.246262282E-1,3.017947674E-1,9.941821780E0
2.214364705E0,9.951450348E0,-2.126621157E-1,2.994019389E-1,9.958224276E0
2.216808038E0,9.944272041E0,-2.198405862E-1,3.089732230E-1,9.951499423E0
2.219252309E0,9.920343399E0,-2.126621157E-1,3.065803945E-1,9.927357648E0
2.221696475E0,9.934700966E0,-2.030908167E-1,2.922234535E-1,9.941072563E0
2.224140642E0,9.934700966E0,-2.126621157E-1,3.041875660E-1,9.941631583E0
2.226585642E0,9.961021423E0,-2.198405862E-1,3.137588799E-1,9.968386144E0
2.229028975E0,9.932307243E0,-2.078764737E-1,3.137588799E-1,9.939435821E0
2.231473194E0,9.934700966E0,-2.102692872E-1,2.994019389E-1,9.941435408E0
2.233918194E0,9.941879272E0,-2.174477577E-1,3.185445070E-1,9.949357648E0
2.236361527E0,9.949057579E0,-2.150549293E-1,3.209373355E-1,9.956555434E0
2.238805746E0,9.946664810E0,-2.102692872E-1,3.185445070E-1,9.953985364E0
2.241249913E0,9.934700966E0,-2.030908167E-1,2.994019389E-1,9.941286168E0
2.243694080E0,9.937093735E0,-2.054836452E-1,3.137588799E-1,9.944169149E0
2.246139080E0,9.932307243E0,-2.102692872E-1,3.113660514E-1,9.939410906E0
2.248582413E0,9.951450348E0,-2.150549293E-1,3.329014480E-1,9.959339136E0
2.251026684E0,9.949057579E0,-2.078764737E-1,2.922234535E-1,9.955518765E0
2.253471632E0,9.925128937E0,-2.126621157E-1,2.922234535E-1,9.931707010E0
2.255914965E0,9.944272041E0,-2.174477577E-1,3.041875660E-1,9.951299414E0
2.258359184E0,9.934700966E0,-2.102692872E-1,3.041875660E-1,9.941580686E0
2.260803402E0,9.937093735E0,-2.318046987E-1,3.041875660E-1,9.944450482E0
2.263247569E0,9.932307243E0,-2.150549293E-1,3.089732230E-1,9.939438629E0
2.265692569E0,9.937093735E0,-2.078764737E-1,3.113660514E-1,9.944143670E0
2.268135902E0,9.939486504E0,-2.270190418E-1,3.233301640E-1,9.947334919E0
2.270580121E0,9.951450348E0,-2.150549293E-1,2.970091105E-1,9.958204008E0
2.273025121E0,9.941879272E0,-2.078764737E-1,2.970091105E-1,9.948486845E0
2.275468455E0,9.946664810E0,-2.078764737E-1,2.946162820E-1,9.953198090E0
2.277912673E0,9.910772324E0,-1.911267042E-1,2.850449979E-1,9.916712566E0
2.280356840E0,9.932307243E0,-1.983051747E-1,3.257229924E-1,9.939625123E0
2.282801059E0,9.961021423E0,-1.911267042E-1,3.089732230E-1,9.967644740E0
2.285246007E0,9.937093735E0,-2.270190418E-1,2.826521695E-1,9.943704631E0
2.287689340E0,9.932307243E0,-2.102692872E-1,3.065803945E-1,9.939262140E0
2.290133559E0,9.939486504E0,-2.030908167E-1,2.946162820E-1,9.945925628E0
2.292578559E0,9.949057579E0,-2.222333997E-1,2.874378264E-1,9.955689574E0
2.295021892E0,9.944272041E0,-2.102692872E-1,3.137588799E-1,9.951442320E0
2.297466111E0,9.934700966E0,-2.222333997E-1,3.233301640E-1,9.942445039E0
2.299910330E0,9.927521706E0,-2.198405862E-1,3.305086195E-1,9.935454345E0
2.302354496E0,9.944272041E0,-2.030908167E-1,2.994019389E-1,9.950850910E0
2.304799444E0,9.932307243E0,-2.078764737E-1,2.994019389E-1,9.938992973E0
2.307242777E0,9.939486504E0,-2.126621157E-1,3.041875660E-1,9.946413786E0
2.309687048E0,9.941879272E0,-2.150549293E-1,3.233301640E-1,9.949460010E0
2.312131996E0,9.932307243E0,-1.935195327E-1,3.185445070E-1,9.939298144E0
2.314575330E0,9.949057579E0,-2.054836452E-1,2.659024298E-1,9.954731254E0
2.317019600E0,9.925128937E0,-2.102692872E-1,2.922234535E-1,9.931656062E0
2.319463767E0,9.910772324E0,-2.054836452E-1,3.185445070E-1,9.918019065E0
2.321907934E0,9.934700966E0,-2.078764737E-1,3.065803945E-1,9.941603867E0
2.324352934E0,9.956235886E0,-2.174477577E-1,3.185445070E-1,9.963703485E0
2.326796267E0,9.929914474E0,-2.054836452E-1,2.994019389E-1,9.936552044E0
2.329240486E0,9.937093735E0,-2.126621157E-1,2.922234535E-1,9.943663893E0
2.331685486E0,9.922736168E0,-2.102692872E-1,2.778665423E-1,9.928852705E0
2.334128819E0,9.922736168E0,-2.078764737E-1,2.994019389E-1,9.929428342E0
2.336573038E0,9.946664810E0,-2.054836452E-1,3.257229924E-1,9.954117733E0
2.339017205E0,9.953843117E0,-2.126621157E-1,2.754737139E-1,9.959924886E0
2.341461423E0,9.941879272E0,-2.078764737E-1,2.946162820E-1,9.948415695E0
2.343906371E0,9.941879272E0,-2.006980032E-1,3.065803945E-1,9.948629790E0
2.346349705E0,9.941879272E0,-2.102692872E-1,2.994019389E-1,9.948608856E0
2.348793975E0,9.937093735E0,-1.935195327E-1,2.946162820E-1,9.943343525E0
2.351238923E0,9.949057579E0,-1.839482337E-1,2.898306549E-1,9.954977924E0
2.353682257E0,9.953843117E0,-2.150549293E-1,3.089732230E-1,9.960959084E0
2.356126475E0,9.932307243E0,-1.983051747E-1,3.209373355E-1,9.939469447E0
2.358570694E0,9.934700966E0,-2.078764737E-1,3.209373355E-1,9.942056964E0
2.361014861E0,9.944272041E0,-2.270190418E-1,3.113660514E-1,9.951735170E0
2.363459861E0,9.944272041E0,-2.294118702E-1,2.994019389E-1,9.951422901E0
2.365903194E0,9.932307243E0,-2.270190418E-1,3.041875660E-1,9.939557078E0
2.368347413E0,9.951450348E0,-2.102692872E-1,3.089732230E-1,9.958465828E0
2.370792413E0,9.929914474E0,-2.174477577E-1,2.946162820E-1,9.936663613E0
2.373235746E0,9.946664810E0,-2.126621157E-1,3.065803945E-1,9.953660511E0
2.375679965E0,9.939486504E0,-1.983051747E-1,3.113660514E-1,9.946339312E0
2.378124132E0,9.939486504E0,-2.198405862E-1,2.994019389E-1,9.946424652E0
2.380568350E0,9.941879272E0,-2.222333997E-1,2.946162820E-1,9.948726044E0
2.383013298E0,9.937093735E0,-2.150549293E-1,2.970091105E-1,9.943857145E0
2.385456632E0,9.929914474E0,-2.054836452E-1,2.970091105E-1,9.936480232E0
2.387900850E0,9.946664810E0,-2.174477577E-1,3.137588799E-1,9.953987593E0
2.390345850E0,9.932307243E0,-2.078764737E-1,2.850449979E-1,9.938570846E0
2.392789184E0,9.961021423E0,-2.054836452E-1,2.874378264E-1,9.967286081E0
2.395233402E0,9.934700966E0,-2.102692872E-1,2.970091105E-1,9.941363632E0
2.397677621E0,9.944272041E0,-1.983051747E-1,2.874378264E-1,9.950401594E0
2.400121788E0,9.944272041E0,-2.102692872E-1,3.209373355E-1,9.951671235E0
2.402566788E0,9.949057579E0,-2.222333997E-1,3.017947674E-1,9.956114427E0
2.405010121E0,9.932307243E0,-1.935195327E-1,2.778665423E-1,9.938077621E0
2.407454340E0,9.946664810E0,-2.198405862E-1,3.017947674E-1,9.953670218E0
2.409899340E0,9.937093735E0,-1.983051747E-1,3.065803945E-1,9.943799494E0
2.412342673E0,9.958628654E0,-2.174477577E-1,2.850449979E-1,9.965079972E0
2.414786892E0,9.934700966E0,-2.150549293E-1,3.113660514E-1,9.941905286E0
2.417231059E0,9.939486504E0,-2.174477577E-1,2.970091105E-1,9.946300312E0
2.419675225E0,9.927521706E0,-2.246262282E-1,2.922234535E-1,9.934361515E0
2.422120225E0,9.937093735E0,-1.791625917E-1,3.089732230E-1,9.943510224E0
2.424563559E0,9.934700966E0,-2.198405862E-1,3.089732230E-1,9.941935305E0
2.427007777E0,9.941879272E0,-2.078764737E-1,3.065803945E-1,9.948777193E0
2.429452777E0,9.932307243E0,-2.174477577E-1,3.161516786E-1,9.939716424E0
2.431896111E0,9.932307243E0,-2.174477577E-1,3.065803945E-1,9.939416595E0
2.434340330E0,9.929914474E0,-2.222333997E-1,2.922234535E-1,9.936698833E0
2.436784496E0,9.934700966E0,-2.365903407E-1,2.946162820E-1,9.941883978E0
2.439228715E0,9.937093735E0,-2.270190418E-1,3.161516786E-1,9.944713240E0
2.441673663E0,9.939486504E0,-2.126621157E-1,3.137588799E-1,9.946711103E0
2.444116996E0,9.949057579E0,-2.054836452E-1,3.041875660E-1,9.955827455E0
2.446561267E0,9.922736168E0,-2.078764737E-1,2.946162820E-1,9.929285193E0
2.449006215E0,9.929914474E0,-2.222333997E-1,3.233301640E-1,9.937662278E0
2.451449548E0,9.915557861E0,-2.030908167E-1,3.185445070E-1,9.922751845E0
2.453893819E0,9.927521706E0,-2.222333997E-1,2.922234535E-1,9.934307698E0
2.456337986E0,9.932307243E0,-2.078764737E-1,3.065803945E-1,9.939211807E0
2.458782152E0,9.932307243E0,-2.126621157E-1,3.185445070E-1,9.939689279E0
2.461227152E0,9.949057579E0,-2.222333997E-1,3.161516786E-1,9.956559962E0
2.463670486E0,9.932307243E0,-2.150549293E-1,3.113660514E-1,9.939513299E0
2.466114705E0,9.946664810E0,-2.222333997E-1,2.898306549E-1,9.953367789E0
2.468559705E0,9.934700966E0,-1.911267042E-1,3.041875660E-1,9.941194233E0
2.471003038E0,9.941879272E0,-2.126621157E-1,2.946162820E-1,9.948516844E0
2.473447257E0,9.925128937E0,-2.126621157E-1,3.041875660E-1,9.932066233E0
2.475891423E0,9.939486504E0,-2.006980032E-1,2.994019389E-1,9.946019966E0
2.478335642E0,9.951450348E0,-2.246262282E-1,3.137588799E-1,9.958928939E0
2.480780590E0,9.941879272E0,-2.150549293E-1,2.874378264E-1,9.948358286E0
2.483223923E0,9.941879272E0,-2.078764737E-1,3.209373355E-1,9.949229964E0
2.485668194E0,9.949057579E0,-1.887338907E-1,3.209373355E-1,9.956021694E0
2.488113142E0,9.939486504E0,-1.983051747E-1,3.185445070E-1,9.946566619E0
2.490556475E0,9.939486504E0,-2.150549293E-1,3.113660514E-1,9.946687358E0
2.493000694E0,9.939486504E0,-2.102692872E-1,2.946162820E-1,9.946074798E0
2.495444913E0,9.937093735E0,-2.246262282E-1,3.113660514E-1,9.944507914E0
2.497889080E0,9.941879272E0,-2.485544533E-1,3.209373355E-1,9.950162992E0
2.500334080E0,9.929914474E0,-1.935195327E-1,2.730808854E-1,9.935553555E0
2.502777413E0,9.925128937E0,-2.150549293E-1,3.017947674E-1,9.932044760E0
2.505221632E0,9.944272041E0,-2.270190418E-1,3.137588799E-1,9.951810323E0
2.507666632E0,9.941879272E0,-1.983051747E-1,2.922234535E-1,9.948149725E0
2.510109965E0,9.932307243E0,-1.983051747E-1,3.089732230E-1,9.939090329E0
2.512554184E0,9.929914474E0,-2.198405862E-1,2.850449979E-1,9.936437088E0
2.514998350E0,9.944272041E0,-2.198405862E-1,2.802593410E-1,9.950649306E0
2.517442569E0,9.905986786E0,-2.246262282E-1,2.994019389E-1,9.913055667E0
2.519887517E0,9.932307243E0,-2.270190418E-1,3.209373355E-1,9.940083782E0
2.522330850E0,9.941879272E0,-2.006980032E-1,3.065803945E-1,9.948629790E0
2.524775069E0,9.953843117E0,-2.222333997E-1,3.113660514E-1,9.961191158E0
2.527220069E0,9.946664810E0,-2.150549293E-1,3.089732230E-1,9.953785909E0
2.529663402E0,9.944272041E0,-2.318046987E-1,3.041875660E-1,9.951623482E0
2.532107621E0,9.958628654E0,-2.150549293E-1,3.161516786E-1,9.965966345E0
2.534551840E0,9.937093735E0,-2.294118702E-1,3.065803945E-1,9.944468474E0
2.536996007E0,9.939486504E0,-2.294118702E-1,3.017947674E-1,9.946713118E0
2.539441007E0,9.953843117E0,-2.006980032E-1,2.802593410E-1,9.959810128E0
2.541884340E0,9.946664810E0,-2.150549293E-1,2.898306549E-1,9.953210099E0
2.544328559E0,9.951450348E0,-2.078764737E-1,3.161516786E-1,9.958640898E0
2.546773507E0,9.929914474E0,-2.126621157E-1,2.994019389E-1,9.936703083E0
2.549216892E0,9.937093735E0,-2.198405862E-1,2.994019389E-1,9.944033553E0
2.551661111E0,9.949057579E0,-2.126621157E-1,3.161516786E-1,9.956350926E0
2.554105277E0,9.941879272E0,-2.006980032E-1,2.970091105E-1,9.948339438E0
2.556549444E0,9.951450348E0,-2.222333997E-1,3.017947674E-1,9.958505500E0
2.558994444E0,9.941879272E0,-2.294118702E-1,2.946162820E-1,9.948888985E0
2.561437777E0,9.946664810E0,-2.078764737E-1,2.922234535E-1,9.953127550E0
2.563881996E0,9.946664810E0,-2.006980032E-1,2.922234535E-1,9.952980211E0
2.566326996E0,9.939486504E0,-2.198405862E-1,3.017947674E-1,9.946496967E0
2.568770330E0,9.946664810E0,-2.174477577E-1,3.017947674E-1,9.953617657E0
2.571214548E0,9.934700966E0,-2.126621157E-1,3.185445070E-1,9.942081224E0
2.573658767E0,9.944272041E0,-2.102692872E-1,3.113660514E-1,9.951367164E0
2.576102934E0,9.932307243E0,-2.294118702E-1,2.946162820E-1,9.939323706E0
2.578547882E0,9.922736168E0,-2.174477577E-1,3.065803945E-1,9.929852372E0
2.580991215E0,9.937093735E0,-2.198405862E-1,2.922234535E-1,9.943820007E0
2.583435486E0,9.932307243E0,-2.030908167E-1,2.922234535E-1,9.938680375E0
2.585880434E0,9.932307243E0,-2.198405862E-1,3.017947674E-1,9.939322771E0
2.588323767E0,9.965806961E0,-2.078764737E-1,3.089732230E-1,9.972762178E0
2.590768038E0,9.939486504E0,-2.126621157E-1,3.041875660E-1,9.946413786E0
2.593212205E0,9.934700966E0,-2.150549293E-1,2.994019389E-1,9.941537780E0
2.595656371E0,9.944272041E0,-2.246262282E-1,3.233301640E-1,9.952062388E0
2.598101371E0,9.939486504E0,-2.126621157E-1,3.017947674E-1,9.946340896E0
2.600544705E0,9.958628654E0,-2.318046987E-1,3.041875660E-1,9.965969505E0
2.602988923E0,9.934700966E0,-2.054836452E-1,3.161516786E-1,9.941853886E0
2.605433923E0,9.932307243E0,-2.078764737E-1,2.922234535E-1,9.938779319E0
2.607877257E0,9.953843117E0,-2.006980032E-1,3.161516786E-1,9.960884718E0
2.610321475E0,9.946664810E0,-2.102692872E-1,2.970091105E-1,9.953319468E0
2.612765642E0,9.929914474E0,-2.222333997E-1,3.041875660E-1,9.937057876E0
2.615209861E0,9.939486504E0,-2.174477577E-1,2.946162820E-1,9.946229147E0
2.617654809E0,9.939486504E0,-2.126621157E-1,3.017947674E-1,9.946340896E0
2.620098142E0,9.944272041E0,-2.102692872E-1,2.994019389E-1,9.951000006E0
2.622542413E0,9.922736168E0,-2.198405862E-1,3.065803945E-1,9.929905059E0
2.624987361E0,9.937093735E0,-2.126621157E-1,3.185445070E-1,9.944472217E0
2.627430694E0,9.949057579E0,-2.174477577E-1,3.233301640E-1,9.956684821E0
2.629874965E0,9.963414192E0,-2.222333997E-1,2.778665423E-1,9.969765286E0
2.632319132E0,9.927521706E0,-2.126621157E-1,3.041875660E-1,9.934457331E0
2.634763298E0,9.958628654E0,-2.030908167E-1,3.161516786E-1,9.965715350E0
2.637208298E0,9.913165092E0,-2.126621157E-1,3.065803945E-1,9.920184417E0
2.639651632E0,9.932307243E0,-1.959123611E-1,2.994019389E-1,9.938749939E0
2.642095850E0,9.956235886E0,-2.102692872E-1,3.017947674E-1,9.963027967E0
2.644540850E0,9.939486504E0,-2.198405862E-1,3.041875660E-1,9.946569857E0
2.646984184E0,9.932307243E0,-2.150549293E-1,3.089732230E-1,9.939438629E0
2.649428402E0,9.939486504E0,-2.198405862E-1,3.185445070E-1,9.947019274E0
2.651872569E0,9.953843117E0,-2.030908167E-1,3.017947674E-1,9.960487877E0
2.654316788E0,9.937093735E0,-1.935195327E-1,2.970091105E-1,9.943414711E0
2.656761736E0,9.941879272E0,-2.078764737E-1,3.041875660E-1,9.948703743E0
2.659205069E0,9.941879272E0,-1.983051747E-1,3.041875660E-1,9.948508355E0
2.661649340E0,9.915557861E0,-2.030908167E-1,3.089732230E-1,9.922449195E0
2.664094288E0,9.939486504E0,-2.174477577E-1,2.946162820E-1,9.946229147E0
2.666537621E0,9.946664810E0,-1.911267042E-1,2.946162820E-1,9.952862353E0
2.668981840E0,9.929914474E0,-2.030908167E-1,2.922234535E-1,9.936289141E0
2.671426059E0,9.932307243E0,-2.198405862E-1,2.994019389E-1,9.939250403E0
2.673870225E0,9.929914474E0,-2.246262282E-1,3.137588799E-1,9.937409272E0
2.676315225E0,9.953843117E0,-2.078764737E-1,2.994019389E-1,9.960514391E0
2.678758559E0,9.934700966E0,-2.198405862E-1,3.017947674E-1,9.941714804E0
2.681202777E0,9.929914474E0,-2.054836452E-1,3.041875660E-1,9.936697393E0
2.683647777E0,9.934700966E0,-2.078764737E-1,2.970091105E-1,9.941313310E0
2.686091111E0,9.937093735E0,-2.102692872E-1,3.017947674E-1,9.943898891E0
2.688535330E0,9.946664810E0,-2.150549293E-1,3.041875660E-1,9.953638508E0
2.690979496E0,9.937093735E0,-2.102692872E-1,3.089732230E-1,9.944119344E0
2.693423715E0,9.915557861E0,-1.983051747E-1,2.994019389E-1,9.922058968E0
2.695868663E0,9.927521706E0,-2.150549293E-1,3.185445070E-1,9.934958804E0
2.698311996E0,9.949057579E0,-1.983051747E-1,3.017947674E-1,9.955609059E0
2.700756215E0,9.939486504E0,-1.983051747E-1,2.874378264E-1,9.945619005E0
2.703201215E0,9.944272041E0,-2.078764737E-1,2.970091105E-1,9.950878025E0
2.705644548E0,9.941879272E0,-2.198405862E-1,2.994019389E-1,9.948815752E0
2.708088767E0,9.920343399E0,-2.198405862E-1,2.826521695E-1,9.926803881E0
2.710532986E0,9.944272041E0,-2.102692872E-1,3.137588799E-1,9.951442320E0
2.712977152E0,9.946664810E0,-1.959123611E-1,3.089732230E-1,9.953390726E0
2.715422152E0,9.941879272E0,-1.959123611E-1,3.089732230E-1,9.948608424E0
2.717865486E0,9.941879272E0,-2.006980032E-1,3.161516786E-1,9.948929341E0
2.720309705E0,9.944272041E0,-2.222333997E-1,3.041875660E-1,9.951405137E0
2.722754652E0,9.937093735E0,-2.054836452E-1,2.898306549E-1,9.943442926E0
2.725198038E0,9.944272041E0,-2.078764737E-1,2.946162820E-1,9.950806893E0
2.727642257E0,9.949057579E0,-2.006980032E-1,3.137588799E-1,9.956026870E0
2.730086423E0,9.956235886E0,-2.030908167E-1,2.946162820E-1,9.962664184E0
2.732530642E0,9.965806961E0,-2.030908167E-1,3.161516786E-1,9.972888556E0
2.734975590E0,9.949057579E0,-2.341975123E-1,3.089732230E-1,9.956608842E0
2.737418923E0,9.953843117E0,-2.006980032E-1,3.017947674E-1,9.960439376E0
2.739863142E0,9.949057579E0,-2.030908167E-1,3.017947674E-1,9.955705534E0
2.742308142E0,9.925128937E0,-2.102692872E-1,3.017947674E-1,9.931942291E0
2.744751475E0,9.932307243E0,-2.078764737E-1,3.113660514E-1,9.939360574E0
2.747195694E0,9.953843117E0,-2.222333997E-1,2.970091105E-1,9.960752727E0
2.749639913E0,9.937093735E0,-2.246262282E-1,3.065803945E-1,9.944359224E0
2.752084080E0,9.949057579E0,-2.030908167E-1,3.017947674E-1,9.955705534E0
2.754529027E0,9.939486504E0,-2.150549293E-1,3.161516786E-1,9.946838315E0
2.756972413E0,9.939486504E0,-2.006980032E-1,3.017947674E-1,9.946092284E0
2.759416632E0,9.922736168E0,-2.102692872E-1,3.113660514E-1,9.929846678E0
2.761861580E0,9.925128937E0,-2.054836452E-1,2.994019389E-1,9.931769704E0
2.764304913E0,9.925128937E0,-2.150549293E-1,3.185445070E-1,9.932567827E0
2.766749184E0,9.941879272E0,-2.102692872E-1,3.065803945E-1,9.948827478E0
2.769193350E0,9.937093735E0,-2.222333997E-1,3.065803945E-1,9.944305462E0
2.771637517E0,9.934700966E0,-2.054836452E-1,3.161516786E-1,9.941853886E0
2.774082517E0,9.949057579E0,-2.102692872E-1,3.113660514E-1,9.956149291E0
2.776525850E0,9.932307243E0,-2.198405862E-1,3.017947674E-1,9.939322771E0
2.778970069E0,9.929914474E0,-1.959123611E-1,3.137588799E-1,9.936801687E0
2.781415069E0,9.958628654E0,-2.078764737E-1,3.017947674E-1,9.965368904E0
2.783858402E0,9.932307243E0,-2.174477577E-1,2.778665423E-1,9.938572358E0
2.786302621E0,9.929914474E0,-2.078764737E-1,2.994019389E-1,9.936601815E0
2.788746840E0,9.941879272E0,-2.150549293E-1,3.017947674E-1,9.948783452E0
2.791191007E0,9.934700966E0,-2.054836452E-1,2.922234535E-1,9.941121735E0
2.793635955E0,9.925128937E0,-2.126621157E-1,2.994019389E-1,9.931920817E0
2.796079288E0,9.939486504E0,-2.270190418E-1,2.874378264E-1,9.946232961E0
2.798523559E0,9.934700966E0,-2.246262282E-1,3.065803945E-1,9.941968204E0
2.800968507E0,9.932307243E0,-2.150549293E-1,2.994019389E-1,9.939145704E0
2.803411840E0,9.937093735E0,-2.174477577E-1,3.017947674E-1,9.944053273E0
2.805856111E0,9.934700966E0,-2.174477577E-1,2.994019389E-1,9.941589829E0
2.808300277E0,9.939486504E0,-2.150549293E-1,3.017947674E-1,9.946392344E0
2.810744444E0,9.949057579E0,-2.270190418E-1,3.017947674E-1,9.956222398E0
2.813189444E0,9.934700966E0,-2.054836452E-1,3.281157911E-1,9.942241537E0
2.815632777E0,9.946664810E0,-2.006980032E-1,2.994019389E-1,9.953193561E0
2.818076996E0,9.956235886E0,-2.102692872E-1,3.041875660E-1,9.963100735E0
2.820521996E0,9.941879272E0,-1.935195327E-1,3.137588799E-1,9.948711369E0
2.822965330E0,9.939486504E0,-1.983051747E-1,3.209373355E-1,9.946643538E0
2.825409548E0,9.944272041E0,-2.054836452E-1,2.970091105E-1,9.950828326E0
2.827853715E0,9.937093735E0,-2.006980032E-1,2.994019389E-1,9.943628769E0
2.830297934E0,9.937093735E0,-2.126621157E-1,2.970091105E-1,9.943805684E0
2.832742882E0,9.929914474E0,-1.983051747E-1,2.994019389E-1,9.936406188E0
2.835186215E0,9.939486504E0,-2.030908167E-1,3.065803945E-1,9.946287216E0
2.837630486E0,9.932307243E0,-2.054836452E-1,2.970091105E-1,9.938871421E0
2.840075434E0,9.941879272E0,-2.126621157E-1,3.041875660E-1,9.948804889E0
2.842518767E0,9.963414192E0,-2.174477577E-1,3.065803945E-1,9.970501363E0
2.844963038E0,9.949057579E0,-1.983051747E-1,3.017947674E-1,9.955609059E0
2.847407205E0,9.953843117E0,-2.054836452E-1,3.017947674E-1,9.960536954E0
2.849851371E0,9.937093735E0,-2.174477577E-1,3.209373355E-1,9.944652643E0
2.852296371E0,9.937093735E0,-2.126621157E-1,3.113660514E-1,9.944244863E0
2.854739705E0,9.929914474E0,-2.054836452E-1,3.113660514E-1,9.936919735E0
2.857183923E0,9.949057579E0,-2.222333997E-1,3.089732230E-1,9.956334609E0
2.859628923E0,9.932307243E0,-2.126621157E-1,2.946162820E-1,9.938951208E0
2.862072257E0,9.944272041E0,-2.126621157E-1,3.017947674E-1,9.951123137E0
2.864516475E0,9.941879272E0,-2.126621157E-1,2.946162820E-1,9.948516844E0
2.866960642E0,9.934700966E0,-2.102692872E-1,2.946162820E-1,9.941292431E0
2.869404861E0,9.929914474E0,-2.174477577E-1,3.065803945E-1,9.937025538E0
2.871849809E0,9.944272041E0,-2.222333997E-1,2.922234535E-1,9.951046611E0
2.874293142E0,9.929914474E0,-2.198405862E-1,3.017947674E-1,9.936931691E0
2.876737413E0,9.937093735E0,-2.102692872E-1,2.994019389E-1,9.943826557E0
2.879182361E0,9.927521706E0,-1.983051747E-1,2.874378264E-1,9.933661594E0
2.881625694E0,9.963414192E0,-2.126621157E-1,3.209373355E-1,9.970849929E0
2.884069965E0,9.927521706E0,-2.294118702E-1,3.065803945E-1,9.934903551E0
2.886514132E0,9.949057579E0,-2.222333997E-1,3.017947674E-1,9.956114427E0
2.888958298E0,9.956235886E0,-2.174477577E-1,2.802593410E-1,9.962552978E0
2.891403298E0,9.929914474E0,-2.006980032E-1,2.898306549E-1,9.936170438E0
2.893846632E0,9.929914474E0,-2.198405862E-1,2.922234535E-1,9.936645606E0
2.896290850E0,9.932307243E0,-2.246262282E-1,2.946162820E-1,9.939214399E0
2.898735850E0,9.941879272E0,-2.102692872E-1,3.089732230E-1,9.948901502E0
2.901179184E0,9.934700966E0,-2.102692872E-1,3.041875660E-1,9.941580686E0
2.903623402E0,9.937093735E0,-2.222333997E-1,3.113660514E-1,9.944454153E0
2.906067569E0,9.941879272E0,-2.126621157E-1,2.994019389E-1,9.948659717E0
2.908511788E0,9.927521706E0,-2.222333997E-1,2.970091105E-1,9.934449623E0
2.910956736E0,9.920343399E0,-2.150549293E-1,2.706880569E-1,9.926365589E0
2.913400069E0,9.925128937E0,-2.102692872E-1,2.970091105E-1,9.931798024E0
2.915844340E0,9.934700966E0,-2.054836452E-1,2.970091105E-1,9.941263563E0
2.918289288E0,9.917950630E0,-2.150549293E-1,3.137588799E-1,9.925242464E0
2.920732621E0,9.937093735E0,-1.911267042E-1,3.041875660E-1,9.943585439E0
2.923176840E0,9.920343399E0,-2.078764737E-1,3.065803945E-1,9.927256284E0
2.925621059E0,9.946664810E0,-2.198405862E-1,2.850449979E-1,9.953176447E0
2.928065225E0,9.956235886E0,-2.126621157E-1,2.946162820E-1,9.962863892E0
2.930510225E0,9.929914474E0,-2.246262282E-1,3.065803945E-1,9.937185213E0
2.932953559E0,9.941879272E0,-2.174477577E-1,3.185445070E-1,9.949357648E0
2.935397777E0,9.953843117E0,-2.126621157E-1,3.017947674E-1,9.960687629E0
2.937842777E0,9.944272041E0,-2.222333997E-1,2.778665423E-1,9.950635353E0
2.940286111E0,9.951450348E0,-2.102692872E-1,2.826521695E-1,9.957683940E0
2.942730330E0,9.937093735E0,-2.078764737E-1,3.089732230E-1,9.944069035E0
2.945174496E0,9.946664810E0,-2.054836452E-1,2.850449979E-1,9.952869688E0
2.947618715E0,9.946664810E0,-2.174477577E-1,3.137588799E-1,9.953987593E0
2.950063663E0,9.941879272E0,-2.054836452E-1,3.017947674E-1,9.948581159E0
2.952506996E0,9.934700966E0,-2.222333997E-1,3.089732230E-1,9.941988504E0
2.954951215E0,9.946664810E0,-2.150549293E-1,3.113660514E-1,9.953860472E0
2.957396215E0,9.939486504E0,-2.126621157E-1,3.281157911E-1,9.947174328E0
2.959839548E0,9.920343399E0,-2.054836452E-1,3.089732230E-1,9.927280652E0
2.962283767E0,9.951450348E0,-2.126621157E-1,3.113660514E-1,9.958591166E0
2.964727986E0,9.963414192E0,-2.102692872E-1,2.898306549E-1,9.969846405E0
2.967172152E0,9.927521706E0,-2.222333997E-1,3.041875660E-1,9.934666828E0
2.969617152E0,9.956235886E0,-2.150549293E-1,3.281157911E-1,9.963962144E0
2.972060486E0,9.949057579E0,-2.102692872E-1,3.161516786E-1,9.956300104E0
2.974504705E0,9.937093735E0,-2.102692872E-1,3.041875660E-1,9.943971799E0
2.976949705E0,9.920343399E0,-2.126621157E-1,2.874378264E-1,9.926784919E0
2.979393038E0,9.951450348E0,-2.102692872E-1,2.946162820E-1,9.958030727E0
2.981837257E0,9.963414192E0,-1.911267042E-1,2.946162820E-1,9.969601323E0
2.984281423E0,9.946664810E0,-1.983051747E-1,3.017947674E-1,9.953217865E0
2.986725642E0,9.937093735E0,-2.222333997E-1,2.994019389E-1,9.944086740E0
2.989170590E0,9.961021423E0,-2.006980032E-1,2.946162820E-1,9.967398168E0
2.991613923E0,9.937093735E0,-2.054836452E-1,2.970091105E-1,9.943654752E0
2.994058142E0,9.915557861E0,-2.078764737E-1,2.946162820E-1,9.922111624E0
2.996503142E0,9.934700966E0,-2.150549293E-1,3.113660514E-1,9.941905286E0
2.998946475E0,9.946664810E0,-1.983051747E-1,3.017947674E-1,9.953217865E0
3.001390694E0,9.949057579E0,-2.126621157E-1,2.922234535E-1,9.955619842E0
3.003834913E0,9.949057579E0,-2.126621157E-1,2.874378264E-1,9.955480520E0
3.006279080E0,9.937093735E0,-2.198405862E-1,2.994019389E-1,9.944033553E0
3.008724080E0,9.934700966E0,-2.150549293E-1,3.017947674E-1,9.941610130E0
3.011167413E0,9.937093735E0,-2.126621157E-1,2.874378264E-1,9.943524404E0
3.013611632E0,9.927521706E0,-2.126621157E-1,3.161516786E-1,9.934830863E0
3.016056632E0,9.920343399E0,-2.341975123E-1,3.017947674E-1,9.927695690E0
3.018499965E0,9.932307243E0,-2.126621157E-1,2.970091105E-1,9.939022425E0
3.020944184E0,9.934700966E0,-2.126621157E-1,3.065803945E-1,9.941705085E0
3.023388350E0,9.937093735E0,-2.270190418E-1,3.137588799E-1,9.944637458E0
3.025832569E0,9.932307243E0,-2.246262282E-1,3.113660514E-1,9.939724993E0
3.028277517E0,9.920343399E0,-2.270190418E-1,3.041875660E-1,9.927601970E0
3.030720850E0,9.949057579E0,-2.174477577E-1,3.161516786E-1,9.956454295E0
3.033165069E0,9.939486504E0,-2.174477577E-1,3.209373355E-1,9.947043594E0
3.035610069E0,9.939486504E0,-2.150549293E-1,2.970091105E-1,9.946248287E0
3.038053402E0,9.963414192E0,-2.030908167E-1,3.185445070E-1,9.970573647E0
3.040497621E0,9.937093735E0,-2.054836452E-1,2.778665423E-1,9.943101389E0
3.042941840E0,9.946664810E0,-2.174477577E-1,3.089732230E-1,9.953837894E0
3.045386007E0,9.946664810E0,-2.102692872E-1,2.970091105E-1,9.953319468E0
3.047831007E0,9.951450348E0,-2.246262282E-1,3.113660514E-1,9.958853839E0
3.050274340E0,9.941879272E0,-1.983051747E-1,2.826521695E-1,9.947873173E0
3.052718559E0,9.939486504E0,-2.006980032E-1,2.850449979E-1,9.945598137E0
3.055163507E0,9.934700966E0,-2.150549293E-1,2.994019389E-1,9.941537780E0
3.057606892E0,9.934700966E0,-2.174477577E-1,3.065803945E-1,9.941808605E0
3.060051111E0,9.946664810E0,-2.270190418E-1,3.065803945E-1,9.953977598E0
3.062495277E0,9.941879272E0,-2.174477577E-1,3.041875660E-1,9.948908336E0
3.064939444E0,9.956235886E0,-2.150549293E-1,2.850449979E-1,9.962636814E0
3.067384444E0,9.937093735E0,-1.983051747E-1,2.898306549E-1,9.943297172E0
3.069827777E0,9.929914474E0,-2.150549293E-1,3.137588799E-1,9.937197529E0
3.072271996E0,9.932307243E0,-2.174477577E-1,3.017947674E-1,9.939270133E0
3.074716996E0,9.927521706E0,-2.054836452E-1,3.065803945E-1,9.934379814E0
3.077160330E0,9.934700966E0,-2.126621157E-1,3.089732230E-1,9.941779162E0
3.079604548E0,9.949057579E0,-2.270190418E-1,3.041875660E-1,9.956295216E0
3.082048767E0,9.937093735E0,-2.102692872E-1,3.041875660E-1,9.943971799E0
3.084492934E0,9.953843117E0,-2.150549293E-1,3.161516786E-1,9.961184332E0
3.086937882E0,9.941879272E0,-1.959123611E-1,2.994019389E-1,9.948315769E0
3.089381267E0,9.946664810E0,-2.078764737E-1,2.898306549E-1,9.953057585E0
3.091825486E0,9.937093735E0,-2.078764737E-1,3.209373355E-1,9.944447963E0
3.094270434E0,9.934700966E0,-1.935195327E-1,2.922234535E-1,9.940881633E0
3.096713767E0,9.927521706E0,-2.030908167E-1,3.089732230E-1,9.934404740E0
3.099158038E0,9.927521706E0,-2.174477577E-1,3.113660514E-1,9.934783317E0
3.101602205E0,9.951450348E0,-2.078764737E-1,2.874378264E-1,9.957770692E0
3.104046371E0,9.925128937E0,-2.126621157E-1,2.970091105E-1,9.931848972E0
3.106491371E0,9.934700966E0,-1.815554202E-1,3.089732230E-1,9.941162412E0
3.108934705E0,9.929914474E0,-2.270190418E-1,2.970091105E-1,9.936948904E0
3.111378923E0,9.958628654E0,-2.030908167E-1,2.898306549E-1,9.964915071E0
3.113823923E0,9.937093735E0,-2.102692872E-1,3.041875660E-1,9.943971799E0
3.116267257E0,9.951450348E0,-2.030908167E-1,2.922234535E-1,9.957811228E0
3.118711475E0,9.937093735E0,-2.078764737E-1,2.994019389E-1,9.943776247E0
3.121155694E0,9.946664810E0,-1.983051747E-1,3.257229924E-1,9.953972135E0
3.123599861E0,9.951450348E0,-1.983051747E-1,3.113660514E-1,9.958294924E0
3.126044809E0,9.937093735E0,-2.102692872E-1,3.113660514E-1,9.944193979E0
3.128488194E0,9.937093735E0,-2.150549293E-1,3.065803945E-1,9.944147628E0
3.130932413E0,9.951450348E0,-2.126621157E-1,3.041875660E-1,9.958369308E0
3.133377361E0,9.939486504E0,-2.222333997E-1,3.041875660E-1,9.946623031E0
3.135820694E0,9.951450348E0,-2.078764737E-1,3.137588799E-1,9.958565222E0
3.138264965E0,9.941879272E0,-1.887338907E-1,2.922234535E-1,9.947963535E0
3.140709132E0,9.937093735E0,-1.863410622E-1,2.946162820E-1,9.943206406E0
3.143153298E0,9.958628654E0,-2.150549293E-1,3.017947674E-1,9.965521230E0
3.145598298E0,9.946664810E0,-2.054836452E-1,2.922234535E-1,9.953077862E0
3.148041632E0,9.949057579E0,-2.078764737E-1,2.802593410E-1,9.955174767E0
3.150485850E0,9.932307243E0,-2.222333997E-1,2.946162820E-1,9.939160609E0
3.152930850E0,9.951450348E0,-2.150549293E-1,3.113660514E-1,9.958642551E0
3.155374184E0,9.953843117E0,-2.246262282E-1,3.257229924E-1,9.961703931E0
3.157818402E0,9.939486504E0,-2.318046987E-1,2.898306549E-1,9.946412780E0
3.160262621E0,9.939486504E0,-2.102692872E-1,2.826521695E-1,9.945727594E0
3.162706788E0,9.937093735E0,-1.959123611E-1,2.994019389E-1,9.943533329E0
3.165151736E0,9.929914474E0,-2.126621157E-1,3.017947674E-1,9.936775469E0
3.167595121E0,9.929914474E0,-2.054836452E-1,2.994019389E-1,9.936552044E0
3.170039340E0,9.929914474E0,-2.102692872E-1,2.994019389E-1,9.936652161E0
3.172484288E0,9.922736168E0,-2.198405862E-1,2.970091105E-1,9.929614159E0
3.174927621E0,9.927521706E0,-2.126621157E-1,3.113660514E-1,9.934679724E0
3.177371892E0,9.941879272E0,-2.198405862E-1,2.970091105E-1,9.948744029E0
3.179816059E0,9.941879272E0,-2.054836452E-1,2.994019389E-1,9.948508859E0
3.182260225E0,9.927521706E0,-1.887338907E-1,2.994019389E-1,9.933828528E0
3.184705225E0,9.934700966E0,-1.983051747E-1,3.065803945E-1,9.941408339E0
3.187148559E0,9.937093735E0,-2.126621157E-1,2.946162820E-1,9.943734501E0
3.189592777E0,9.956235886E0,-2.198405862E-1,2.946162820E-1,9.963019705E0
3.192037777E0,9.941879272E0,-2.126621157E-1,3.137588799E-1,9.949102134E0
3.194481111E0,9.946664810E0,-2.078764737E-1,2.874378264E-1,9.952988193E0
3.196925330E0,9.968199730E0,-2.150549293E-1,3.041875660E-1,9.975158372E0
3.199369496E0,9.941879272E0,-2.246262282E-1,2.874378264E-1,9.948569792E0
3.201813715E0,9.941879272E0,-1.911267042E-1,3.281157911E-1,9.949128246E0
3.204258663E0,9.934700966E0,-2.102692872E-1,2.922234535E-1,9.941221806E0
3.206702048E0,9.946664810E0,-2.078764737E-1,3.065803945E-1,9.953559414E0
3.209146267E0,9.932307243E0,-2.102692872E-1,2.874378264E-1,9.938690097E0
3.211591215E0,9.944272041E0,-2.078764737E-1,3.137588799E-1,9.951392048E0
3.214034548E0,9.949057579E0,-2.102692872E-1,3.089732230E-1,9.956074745E0
3.216478819E0,9.946664810E0,-2.078764737E-1,3.017947674E-1,9.953413161E0
3.218922986E0,9.958628654E0,-1.863410622E-1,3.041875660E-1,9.965015692E0
3.221367152E0,9.956235886E0,-2.318046987E-1,3.137588799E-1,9.963875303E0
3.223812152E0,9.939486504E0,-1.983051747E-1,3.161516786E-1,9.946490275E0
3.226255486E0,9.941879272E0,-2.102692872E-1,3.113660514E-1,9.948976101E0
3.228699705E0,9.927521706E0,-2.150549293E-1,3.017947674E-1,9.934435863E0
3.231144705E0,9.932307243E0,-2.150549293E-1,2.946162820E-1,9.939002694E0
3.233588038E0,9.939486504E0,-2.246262282E-1,3.137588799E-1,9.946974089E0
3.236032257E0,9.946664810E0,-2.006980032E-1,2.922234535E-1,9.952980211E0
3.238476475E0,9.949057579E0,-2.030908167E-1,2.994019389E-1,9.955633285E0
3.240920642E0,9.944272041E0,-2.030908167E-1,3.017947674E-1,9.950923193E0
3.243365590E0,9.937093735E0,-2.030908167E-1,2.898306549E-1,9.943393766E0
3.245808975E0,9.939486504E0,-2.030908167E-1,3.017947674E-1,9.946140855E0
3.248253194E0,9.932307243E0,-2.006980032E-1,2.850449979E-1,9.938423291E0
3.250698142E0,9.941879272E0,-1.959123611E-1,3.137588799E-1,9.948758202E0
3.253141475E0,9.939486504E0,-2.078764737E-1,3.065803945E-1,9.946386083E0
3.255585746E0,9.949057579E0,-2.126621157E-1,3.089732230E-1,9.956125569E0
3.258029913E0,9.932307243E0,-2.102692872E-1,3.065803945E-1,9.939262140E0
3.260474080E0,9.946664810E0,-2.078764737E-1,2.635096014E-1,9.952325898E0
3.262919080E0,9.937093735E0,-2.150549293E-1,2.922234535E-1,9.943715355E0
3.265362413E0,9.929914474E0,-1.887338907E-1,2.802593410E-1,9.935661390E0
3.267806632E0,9.951450348E0,-2.030908167E-1,2.994019389E-1,9.958024474E0
3.270251632E0,9.946664810E0,-2.222333997E-1,2.994019389E-1,9.953651091E0
3.272694965E0,9.939486504E0,-2.222333997E-1,2.946162820E-1,9.946334923E0
3.275139184E0,9.937093735E0,-2.222333997E-1,2.946162820E-1,9.943943802E0
3.277583402E0,9.956235886E0,-1.887338907E-1,3.137588799E-1,9.962966332E0
3.280027569E0,9.941879272E0,-2.078764737E-1,2.994019389E-1,9.948558570E0
3.282472517E0,9.932307243E0,-2.174477577E-1,3.065803945E-1,9.939416595E0
3.284915902E0,9.937093735E0,-2.030908167E-1,2.994019389E-1,9.943677353E0
3.287360121E0,9.944272041E0,-2.150549293E-1,3.041875660E-1,9.951247416E0
3.289805069E0,9.932307243E0,-2.054836452E-1,3.065803945E-1,9.939162049E0
3.292248455E0,9.946664810E0,-2.150549293E-1,3.089732230E-1,9.953785909E0
3.294692673E0,9.917950630E0,-2.006980032E-1,2.970091105E-1,9.924426371E0
3.297136840E0,9.939486504E0,-2.294118702E-1,2.970091105E-1,9.946569065E0
3.299581007E0,9.937093735E0,-2.054836452E-1,3.041875660E-1,9.943871756E0
3.302026007E0,9.946664810E0,-2.222333997E-1,2.922234535E-1,9.953437752E0
3.304469340E0,9.927521706E0,-2.078764737E-1,3.041875660E-1,9.934356039E0
3.306913559E0,9.934700966E0,-2.198405862E-1,2.994019389E-1,9.941642454E0
3.309358559E0,9.927521706E0,-2.174477577E-1,2.850449979E-1,9.933993225E0
3.311801892E0,9.939486504E0,-2.246262282E-1,2.994019389E-1,9.946531577E0
3.314246111E0,9.946664810E0,-2.054836452E-1,2.706880569E-1,9.952468859E0
3.316690330E0,9.944272041E0,-2.054836452E-1,3.017947674E-1,9.950972316E0
3.319134496E0,9.941879272E0,-2.126621157E-1,2.659024298E-1,9.947707914E0
3.321579496E0,9.934700966E0,-2.102692872E-1,2.946162820E-1,9.941292431E0
3.324022830E0,9.956235886E0,-2.150549293E-1,2.874378264E-1,9.962705563E0
3.326467048E0,9.937093735E0,-2.222333997E-1,2.946162820E-1,9.943943802E0
3.328911996E0,9.932307243E0,-2.126621157E-1,3.017947674E-1,9.939166586E0
3.331355330E0,9.927521706E0,-2.030908167E-1,2.946162820E-1,9.933968585E0
3.333799600E0,9.963414192E0,-2.030908167E-1,3.113660514E-1,9.970346888E0
3.336243767E0,9.925128937E0,-2.150549293E-1,3.017947674E-1,9.932044760E0
3.338687934E0,9.939486504E0,-2.078764737E-1,3.137588799E-1,9.946609936E0
3.341132934E0,9.922736168E0,-2.150549293E-1,3.041875660E-1,9.929726671E0
3.343576267E0,9.925128937E0,-2.222333997E-1,3.041875660E-1,9.932275780E0
3.346020486E0,9.956235886E0,-1.983051747E-1,2.874378264E-1,9.962358077E0
3.348465486E0,9.922736168E0,-1.911267042E-1,2.778665423E-1,9.928465757E0
3.350908819E0,9.951450348E0,-2.054836452E-1,2.946162820E-1,9.957930825E0
3.353353038E0,9.925128937E0,-2.270190418E-1,2.874378264E-1,9.931885146E0
3.355797257E0,9.946664810E0,-1.839482337E-1,3.041875660E-1,9.953015014E0
3.358241423E0,9.953843117E0,-2.078764737E-1,2.922234535E-1,9.960301199E0
3.360686423E0,9.929914474E0,-2.054836452E-1,2.994019389E-1,9.936552044E0
3.363129757E0,9.922736168E0,-2.030908167E-1,2.850449979E-1,9.928906767E0
3.365573975E0,9.937093735E0,-2.174477577E-1,3.233301640E-1,9.944730153E0
3.368018975E0,9.956235886E0,-2.102692872E-1,2.898306549E-1,9.962672733E0
3.370462309E0,9.937093735E0,-2.222333997E-1,3.209373355E-1,9.944758436E0
3.372906527E0,9.932307243E0,-2.150549293E-1,3.065803945E-1,9.939364534E0
3.375350694E0,9.937093735E0,-2.150549293E-1,2.850449979E-1,9.943506985E0
3.377794913E0,9.946664810E0,-2.030908167E-1,2.994019389E-1,9.953242097E0
3.380239861E0,9.941879272E0,-2.341975123E-1,2.994019389E-1,9.949143353E0
3.382683194E0,9.927521706E0,-2.078764737E-1,2.922234535E-1,9.933996899E0
3.385127465E0,9.934700966E0,-2.054836452E-1,2.946162820E-1,9.941192361E0
3.387572413E0,9.944272041E0,-1.983051747E-1,2.946162820E-1,9.950611545E0
3.390015746E0,9.929914474E0,-2.198405862E-1,3.065803945E-1,9.937078187E0
3.392459965E0,9.963414192E0,-2.270190418E-1,3.041875660E-1,9.970641408E0
3.394904184E0,9.946664810E0,-2.150549293E-1,3.065803945E-1,9.953711921E0
3.397348350E0,9.946664810E0,-2.150549293E-1,3.017947674E-1,9.953565670E0
3.399793350E0,9.951450348E0,-2.102692872E-1,3.089732230E-1,9.958465828E0
3.402236684E0,9.929914474E0,-2.030908167E-1,3.065803945E-1,9.936721738E0
3.404680902E0,9.944272041E0,-2.102692872E-1,2.922234535E-1,9.950786610E0
3.407125902E0,9.951450348E0,-2.078764737E-1,2.970091105E-1,9.958051570E0
3.409569236E0,9.917950630E0,-2.222333997E-1,2.946162820E-1,9.924813910E0
3.412013455E0,9.949057579E0,-2.198405862E-1,2.826521695E-1,9.955499427E0
3.414457621E0,9.934700966E0,-2.030908167E-1,2.754737139E-1,9.940594295E0
3.416901840E0,9.944272041E0,-2.150549293E-1,3.065803945E-1,9.951320847E0
3.419346788E0,9.944272041E0,-2.078764737E-1,3.065803945E-1,9.951168303E0
3.421790121E0,9.946664810E0,-2.198405862E-1,2.898306549E-1,9.953314651E0
3.424234392E0,9.958628654E0,-2.126621157E-1,3.185445070E-1,9.965991193E0
3.426679340E0,9.927521706E0,-2.198405862E-1,3.161516786E-1,9.934987115E0
3.429122673E0,9.927521706E0,-2.126621157E-1,3.113660514E-1,9.934679724E0
3.431566944E0,9.932307243E0,-2.150549293E-1,3.089732230E-1,9.939438629E0
3.434011111E0,9.941879272E0,-1.959123611E-1,3.113660514E-1,9.948683025E0
3.436455277E0,9.941879272E0,-2.270190418E-1,3.329014480E-1,9.950041431E0
3.438900277E0,9.939486504E0,-2.198405862E-1,2.898306549E-1,9.946141144E0
3.441343611E0,9.949057579E0,-2.150549293E-1,2.922234535E-1,9.955671242E0
3.443787830E0,9.927521706E0,-2.054836452E-1,3.017947674E-1,9.934233278E0
3.446232830E0,9.934700966E0,-1.959123611E-1,2.898306549E-1,9.940858451E0
3.448676163E0,9.961021423E0,-2.054836452E-1,2.874378264E-1,9.967286081E0
3.451120382E0,9.941879272E0,-2.078764737E-1,2.802593410E-1,9.948000874E0
3.453564548E0,9.953843117E0,-2.054836452E-1,3.041875660E-1,9.960609740E0
3.456008767E0,9.944272041E0,-2.078764737E-1,2.850449979E-1,9.950528112E0
3.458453715E0,9.937093735E0,-2.102692872E-1,2.850449979E-1,9.943404634E0
3.460897048E0,9.941879272E0,-2.389831543E-1,2.874378264E-1,9.948904308E0
3.463341319E0,9.925128937E0,-2.246262282E-1,2.826521695E-1,9.931693390E0
3.465786267E0,9.929914474E0,-2.222333997E-1,2.946162820E-1,9.936769491E0
3.468229600E0,9.949057579E0,-2.174477577E-1,2.730808854E-1,9.955179728E0
3.470673871E0,9.958628654E0,-2.174477577E-1,2.826521695E-1,9.965011814E0
3.473118038E0,9.922736168E0,-2.270190418E-1,2.874378264E-1,9.929494006E0
3.475562205E0,9.937093735E0,-2.222333997E-1,2.682952285E-1,9.943198776E0
3.478007205E0,9.910772324E0,-2.198405862E-1,2.994019389E-1,9.917730560E0
3.480450538E0,9.934700966E0,-2.030908167E-1,2.946162820E-1,9.941143190E0
3.482894757E0,9.939486504E0,-2.054836452E-1,2.826521695E-1,9.945627569E0
3.485339757E0,9.939486504E0,-2.078764737E-1,2.706880569E-1,9.945344469E0
3.487783090E0,9.932307243E0,-2.054836452E-1,2.778665423E-1,9.938317791E0
3.490227309E0,9.929914474E0,-2.174477577E-1,2.826521695E-1,9.936316080E0
3.492671527E0,9.946664810E0,-2.222333997E-1,3.185445070E-1,9.954245282E0
3.495115694E0,9.941879272E0,-2.222333997E-1,2.898306549E-1,9.948585475E0
3.497560642E0,9.932307243E0,-2.174477577E-1,2.922234535E-1,9.938984116E0
3.500004027E0,9.934700966E0,-2.174477577E-1,2.946162820E-1,9.941446855E0
3.502448246E0,9.951450348E0,-2.341975123E-1,2.922234535E-1,9.958494216E0
3.504893194E0,9.941879272E0,-1.935195327E-1,2.946162820E-1,9.948126056E0
3.507336527E0,9.949057579E0,-2.078764737E-1,2.778665423E-1,9.955107692E0
3.509780798E0,9.932307243E0,-2.150549293E-1,2.874378264E-1,9.938792497E0
3.512224965E0,9.937093735E0,-2.174477577E-1,3.089732230E-1,9.944273723E0
3.514669132E0,9.927521706E0,-2.150549293E-1,2.970091105E-1,9.934291633E0
3.517114132E0,9.951450348E0,-2.078764737E-1,2.946162820E-1,9.957980488E0
3.519557465E0,9.949057579E0,-1.887338907E-1,2.898306549E-1,9.955067504E0
3.522001684E0,9.941879272E0,-2.174477577E-1,2.922234535E-1,9.948549721E0
3.524446684E0,9.934700966E0,-2.102692872E-1,2.970091105E-1,9.941363632E0
3.526890017E0,9.946664810E0,-2.246262282E-1,2.994019389E-1,9.953704803E0
3.529334236E0,9.946664810E0,-2.054836452E-1,3.041875660E-1,9.953436314E0
3.531778455E0,9.941879272E0,-2.150549293E-1,2.970091105E-1,9.948639430E0
3.534222621E0,9.937093735E0,-2.078764737E-1,2.826521695E-1,9.943286015E0
3.536667621E0,9.929914474E0,-2.174477577E-1,2.874378264E-1,9.936453366E0
3.539110955E0,9.937093735E0,-2.174477577E-1,2.970091105E-1,9.943909183E0
3.541555173E0,9.932307243E0,-2.102692872E-1,3.161516786E-1,9.939561974E0
3.544000173E0,9.946664810E0,-2.222333997E-1,2.970091105E-1,9.953579403E0
3.546443507E0,9.951450348E0,-2.030908167E-1,2.898306549E-1,9.957741296E0
3.548887725E0,9.949057579E0,-2.198405862E-1,2.922234535E-1,9.955775768E0
3.551331892E0,9.946664810E0,-2.006980032E-1,2.778665423E-1,9.952569033E0
3.553776111E0,9.939486504E0,-1.935195327E-1,2.898306549E-1,9.945594179E0
3.556221059E0,9.937093735E0,-2.150549293E-1,2.898306549E-1,9.943645324E0
3.558664392E0,9.949057579E0,-1.983051747E-1,2.922234535E-1,9.955323511E0
3.561108663E0,9.956235886E0,-2.006980032E-1,2.898306549E-1,9.962475320E0
3.563553611E0,9.944272041E0,-2.030908167E-1,2.826521695E-1,9.950361027E0
3.565996944E0,9.922736168E0,-2.078764737E-1,2.946162820E-1,9.929285193E0
3.568441215E0,9.939486504E0,-2.150549293E-1,2.874378264E-1,9.945967076E0
3.570885382E0,9.934700966E0,-2.102692872E-1,2.970091105E-1,9.941363632E0
3.573329548E0,9.939486504E0,-2.222333997E-1,2.802593410E-1,9.945920015E0
3.575774548E0,9.934700966E0,-2.174477577E-1,2.898306549E-1,9.941306183E0
3.578217882E0,9.937093735E0,-2.294118702E-1,3.089732230E-1,9.944542531E0
3.580662100E0,9.929914474E0,-2.174477577E-1,2.922234535E-1,9.936592955E0
3.583107100E0,9.946664810E0,-1.983051747E-1,3.041875660E-1,9.953290705E0
3.585550434E0,9.939486504E0,-2.030908167E-1,2.946162820E-1,9.945925628E0
3.587994652E0,9.925128937E0,-2.126621157E-1,2.946162820E-1,9.931777703E0
3.590438871E0,9.951450348E0,-2.222333997E-1,2.970091105E-1,9.958361618E0
3.592883038E0,9.946664810E0,-2.150549293E-1,2.994019389E-1,9.953493406E0
3.595327986E0,9.961021423E0,-2.054836452E-1,2.946162820E-1,9.967495677E0
3.597771319E0,9.941879272E0,-2.198405862E-1,2.826521695E-1,9.948325769E0
3.600215590E0,9.927521706E0,-2.246262282E-1,2.994019389E-1,9.934575264E0
3.602660538E0,9.949057579E0,-2.102692872E-1,2.994019389E-1,9.955782310E0
3.605103871E0,9.932307243E0,-2.150549293E-1,2.850449979E-1,9.938723583E0
3.607548142E0,9.927521706E0,-2.318046987E-1,2.922234535E-1,9.934526420E0
3.609992309E0,9.941879272E0,-2.102692872E-1,2.826521695E-1,9.948118862E0
3.612436475E0,9.944272041E0,-2.126621157E-1,2.754737139E-1,9.950359661E0
3.614881475E0,9.937093735E0,-2.270190418E-1,3.017947674E-1,9.944267174E0
3.617324809E0,9.937093735E0,-2.270190418E-1,2.778665423E-1,9.943569749E0
3.619769027E0,9.963414192E0,-2.222333997E-1,2.874378264E-1,9.970036638E0
3.622214027E0,9.939486504E0,-2.198405862E-1,2.874378264E-1,9.946071704E0
3.624657361E0,9.953843117E0,-2.198405862E-1,3.017947674E-1,9.960843476E0
3.627101580E0,9.944272041E0,-2.198405862E-1,2.730808854E-1,9.950449713E0
3.629545798E0,9.934700966E0,-2.054836452E-1,3.041875660E-1,9.941480618E0
3.631989965E0,9.941879272E0,-2.174477577E-1,2.970091105E-1,9.948691442E0
3.634434965E0,9.925128937E0,-2.030908167E-1,2.970091105E-1,9.931648640E0
3.636878298E0,9.941879272E0,-2.054836452E-1,2.802593410E-1,9.947951161E0
3.639322517E0,9.946664810E0,-2.198405862E-1,2.898306549E-1,9.953314651E0
3.641767517E0,9.939486504E0,-2.246262282E-1,2.874378264E-1,9.946178633E0
3.644210850E0,9.951450348E0,-2.174477577E-1,2.994019389E-1,9.958327624E0
3.646655069E0,9.917950630E0,-1.911267042E-1,2.898306549E-1,9.924025188E0
3.649099236E0,9.934700966E0,-2.054836452E-1,2.946162820E-1,9.941192361E0
3.651543455E0,9.925128937E0,-2.102692872E-1,2.778665423E-1,9.931244001E0
3.653988402E0,9.934700966E0,-2.126621157E-1,2.826521695E-1,9.940995961E0
3.656431736E0,9.932307243E0,-2.030908167E-1,2.826521695E-1,9.938403559E0
3.658876007E0,9.937093735E0,-2.174477577E-1,2.826521695E-1,9.943490719E0
3.661320955E0,9.946664810E0,-2.174477577E-1,2.922234535E-1,9.953332051E0
3.663764288E0,9.951450348E0,-2.198405862E-1,2.850449979E-1,9.957958855E0
3.666208559E0,9.941879272E0,-2.222333997E-1,2.850449979E-1,9.948447206E0
3.668652725E0,9.939486504E0,-2.126621157E-1,2.802593410E-1,9.945710755E0
3.671096892E0,9.939486504E0,-2.078764737E-1,3.161516786E-1,9.946685703E0
3.673541892E0,9.946664810E0,-2.054836452E-1,3.017947674E-1,9.953363475E0
3.675985225E0,9.927521706E0,-2.006980032E-1,2.898306549E-1,9.933779176E0
3.678429444E0,9.932307243E0,-2.102692872E-1,2.898306549E-1,9.938759588E0
3.680874444E0,9.946664810E0,-2.102692872E-1,3.113660514E-1,9.953758227E0
3.683317777E0,9.946664810E0,-2.078764737E-1,2.946162820E-1,9.953198090E0
3.685761996E0,9.961021423E0,-2.318046987E-1,3.089732230E-1,9.968507695E0
3.688206163E0,9.922736168E0,-2.270190418E-1,2.826521695E-1,9.929356623E0
3.690650382E0,9.956235886E0,-2.054836452E-1,2.850449979E-1,9.962434802E0
3.693095330E0,9.917950630E0,-2.150549293E-1,2.898306549E-1,9.924514856E0
3.695538715E0,9.920343399E0,-2.389831543E-1,2.970091105E-1,9.927665411E0
3.697982934E0,9.934700966E0,-2.102692872E-1,2.826521695E-1,9.940945061E0
3.700427934E0,9.937093735E0,-2.318046987E-1,2.994019389E-1,9.944305246E0
3.702871267E0,9.925128937E0,-2.270190418E-1,2.994019389E-1,9.932238599E0
3.705315486E0,9.937093735E0,-2.102692872E-1,2.970091105E-1,9.943754798E0
3.707759652E0,9.937093735E0,-2.198405862E-1,2.922234535E-1,9.943820007E0
3.710203871E0,9.941879272E0,-2.126621157E-1,2.898306549E-1,9.948376272E0
3.712648819E0,9.946664810E0,-2.246262282E-1,3.017947674E-1,9.953777066E0
3.715092152E0,9.941879272E0,-2.078764737E-1,3.065803945E-1,9.948777193E0
3.717536371E0,9.932307243E0,-2.174477577E-1,2.874378264E-1,9.938844561E0
3.719981371E0,9.946664810E0,-2.006980032E-1,2.874378264E-1,9.952840853E0
3.722424705E0,9.941879272E0,-2.030908167E-1,2.778665423E-1,9.947834898E0
3.724868975E0,9.929914474E0,-2.150549293E-1,2.946162820E-1,9.936611537E0
3.727313142E0,9.939486504E0,-2.341975123E-1,3.089732230E-1,9.947045033E0
3.729757309E0,9.949057579E0,-2.198405862E-1,2.946162820E-1,9.955846290E0
3.732202309E0,9.953843117E0,-2.198405862E-1,3.065803945E-1,9.960989620E0
3.734645642E0,9.922736168E0,-2.198405862E-1,3.041875660E-1,9.929831470E0
3.737089861E0,9.932307243E0,-2.174477577E-1,2.994019389E-1,9.939197766E0
3.739534861E0,9.937093735E0,-1.983051747E-1,3.065803945E-1,9.943799494E0
3.741978194E0,9.941879272E0,-2.078764737E-1,2.970091105E-1,9.948486845E0
3.744422413E0,9.932307243E0,-1.959123611E-1,2.826521695E-1,9.938259459E0
3.746866632E0,9.941879272E0,-2.030908167E-1,3.017947674E-1,9.948532024E0
3.749310798E0,9.941879272E0,-1.935195327E-1,3.089732230E-1,9.948561591E0
3.751755746E0,9.939486504E0,-2.294118702E-1,3.113660514E-1,9.947008122E0
3.754199132E0,9.965806961E0,-2.102692872E-1,3.017947674E-1,9.972592524E0
3.756643350E0,9.946664810E0,-2.126621157E-1,3.113660514E-1,9.953809062E0
3.759088298E0,9.949057579E0,-2.294118702E-1,3.065803945E-1,9.956423457E0
3.761531684E0,9.932307243E0,-2.222333997E-1,2.946162820E-1,9.939160609E0
3.763975902E0,9.939486504E0,-2.222333997E-1,2.826521695E-1,9.945987728E0
3.766420069E0,9.953843117E0,-1.887338907E-1,2.970091105E-1,9.960061631E0
3.768864288E0,9.932307243E0,-2.030908167E-1,2.826521695E-1,9.938403559E0
3.771309236E0,9.946664810E0,-2.102692872E-1,2.898306549E-1,9.953107848E0
3.773752569E0,9.939486504E0,-2.126621157E-1,2.874378264E-1,9.945915626E0
3.776196840E0,9.944272041E0,-2.270190418E-1,3.113660514E-1,9.951735170E0
3.778641788E0,9.939486504E0,-2.054836452E-1,2.970091105E-1,9.946045943E0
3.781085121E0,9.941879272E0,-2.174477577E-1,2.850449979E-1,9.948341452E0
3.783529392E0,9.946664810E0,-2.078764737E-1,3.017947674E-1,9.953413161E0
3.785973559E0,9.934700966E0,-2.150549293E-1,3.017947674E-1,9.941610130E0
3.788417725E0,9.929914474E0,-2.174477577E-1,2.850449979E-1,9.936384435E0
3.790862725E0,9.937093735E0,-1.935195327E-1,2.754737139E-1,9.942794751E0
3.793306059E0,9.941879272E0,-2.030908167E-1,2.850449979E-1,9.948037997E0
3.795750277E0,9.917950630E0,-2.150549293E-1,2.970091105E-1,9.924727086E0
3.798195277E0,9.927521706E0,-2.126621157E-1,2.922234535E-1,9.934098194E0
3.800638611E0,9.927521706E0,-2.270190418E-1,2.850449979E-1,9.934207342E0
3.803082830E0,9.937093735E0,-2.246262282E-1,2.898306549E-1,9.943856930E0
3.805527048E0,9.915557861E0,-2.102692872E-1,3.065803945E-1,9.922524498E0
3.807971215E0,9.939486504E0,-1.959123611E-1,3.089732230E-1,9.946217274E0
3.810416163E0,9.939486504E0,-1.839482337E-1,2.970091105E-1,9.945624330E0
3.812859548E0,9.937093735E0,-2.078764737E-1,2.850449979E-1,9.943354322E0
3.815303767E0,9.946664810E0,-2.198405862E-1,3.065803945E-1,9.953816467E0
3.817748715E0,9.939486504E0,-2.126621157E-1,2.874378264E-1,9.945915626E0
3.820192100E0,9.915557861E0,-2.054836452E-1,2.946162820E-1,9.922061781E0
3.822636319E0,9.944272041E0,-2.126621157E-1,2.826521695E-1,9.950560982E0
3.825080486E0,9.929914474E0,-2.078764737E-1,2.946162820E-1,9.936458768E0
3.827524705E0,9.944272041E0,-2.102692872E-1,2.970091105E-1,9.950928299E0
3.829969652E0,9.939486504E0,-2.078764737E-1,2.994019389E-1,9.946167408E0
3.832412986E0,9.941879272E0,-2.102692872E-1,3.089732230E-1,9.948901502E0
3.834857257E0,9.949057579E0,-2.006980032E-1,2.922234535E-1,9.955371462E0
3.837302205E0,9.934700966E0,-2.174477577E-1,2.874378264E-1,9.941236709E0
3.839745538E0,9.970592499E0,-2.078764737E-1,2.946162820E-1,9.977110111E0
3.842189809E0,9.941879272E0,-2.126621157E-1,3.137588799E-1,9.949102134E0
3.844633975E0,9.934700966E0,-2.102692872E-1,3.017947674E-1,9.941507760E0
3.847078142E0,9.944272041E0,-2.102692872E-1,2.922234535E-1,9.950786610E0
3.849523142E0,9.917950630E0,-2.030908167E-1,2.970091105E-1,9.924475049E0
3.851966475E0,9.922736168E0,-2.198405862E-1,2.922234535E-1,9.929472166E0
3.854410694E0,9.929914474E0,-2.078764737E-1,2.874378264E-1,9.936248518E0
3.856855694E0,9.956235886E0,-2.126621157E-1,2.826521695E-1,9.962517274E0
3.859299027E0,9.944272041E0,-2.030908167E-1,3.089732230E-1,9.951143490E0
3.861743246E0,9.927521706E0,-2.126621157E-1,3.017947674E-1,9.934384353E0
3.864187465E0,9.941879272E0,-2.030908167E-1,3.017947674E-1,9.948532024E0
3.866631632E0,9.939486504E0,-2.246262282E-1,3.089732230E-1,9.946824285E0
3.869076632E0,9.922736168E0,-2.102692872E-1,3.161516786E-1,9.929997891E0
3.871519965E0,9.946664810E0,-2.078764737E-1,3.113660514E-1,9.953707967E0
3.873964184E0,9.946664810E0,-2.006980032E-1,3.041875660E-1,9.953338666E0
3.876409184E0,9.927521706E0,-1.983051747E-1,3.113660514E-1,9.934382768E0
3.878852517E0,9.932307243E0,-2.054836452E-1,3.041875660E-1,9.939088529E0
3.881296736E0,9.946664810E0,-2.246262282E-1,2.922234535E-1,9.953491465E0
3.883740902E0,9.946664810E0,-2.246262282E-1,2.898306549E-1,9.953421502E0
3.886185121E0,9.956235886E0,-2.030908167E-1,3.089732230E-1,9.963099083E0
3.888630069E0,9.951450348E0,-2.006980032E-1,3.065803945E-1,9.958194377E0
3.891073402E0,9.944272041E0,-2.078764737E-1,3.065803945E-1,9.951168303E0
3.893517673E0,9.934700966E0,-2.030908167E-1,2.802593410E-1,9.940728065E0
3.895962621E0,9.932307243E0,-1.959123611E-1,3.041875660E-1,9.938895256E0
3.898405955E0,9.934700966E0,-2.030908167E-1,2.970091105E-1,9.941214391E0
3.900850225E0,9.937093735E0,-2.102692872E-1,3.041875660E-1,9.943971799E0
3.903294392E0,9.937093735E0,-2.150549293E-1,3.113660514E-1,9.944296322E0
3.905738559E0,9.939486504E0,-2.318046987E-1,3.089732230E-1,9.946988983E0
3.908183559E0,9.932307243E0,-2.126621157E-1,3.065803945E-1,9.939313049E0
3.910626892E0,9.939486504E0,-2.054836452E-1,2.778665423E-1,9.945492713E0
3.913071111E0,9.941879272E0,-2.222333997E-1,3.017947674E-1,9.948941212E0
3.915516111E0,9.932307243E0,-2.054836452E-1,2.874378264E-1,9.938590001E0
3.917959444E0,9.958628654E0,-1.983051747E-1,2.826521695E-1,9.964612480E0
3.920403663E0,9.941879272E0,-2.054836452E-1,2.970091105E-1,9.948437134E0
3.922847882E0,9.941879272E0,-2.294118702E-1,2.922234535E-1,9.948818413E0
3.925292048E0,9.939486504E0,-2.150549293E-1,2.850449979E-1,9.945898211E0
3.927737048E0,9.956235886E0,-2.054836452E-1,3.041875660E-1,9.963000884E0
3.930180382E0,9.949057579E0,-2.174477577E-1,2.922234535E-1,9.955723218E0
3.932624600E0,9.929914474E0,-2.294118702E-1,3.137588799E-1,9.937518599E0
3.935069600E0,9.956235886E0,-2.102692872E-1,3.089732230E-1,9.963247996E0
3.937512934E0,9.961021423E0,-2.126621157E-1,2.970091105E-1,9.967717260E0
3.939957152E0,9.932307243E0,-1.983051747E-1,2.994019389E-1,9.938797394E0
3.942401319E0,9.932307243E0,-2.150549293E-1,2.826521695E-1,9.938655243E0
3.944845538E0,9.932307243E0,-2.294118702E-1,2.874378264E-1,9.939113516E0
3.947290486E0,9.937093735E0,-2.174477577E-1,3.017947674E-1,9.944053273E0
3.949733819E0,9.934700966E0,-2.270190418E-1,3.017947674E-1,9.941876131E0
3.952178090E0,9.932307243E0,-2.318046987E-1,3.137588799E-1,9.939965052E0
3.954623038E0,9.939486504E0,-2.126621157E-1,3.017947674E-1,9.946340896E0
3.957066371E0,9.951450348E0,-1.911267042E-1,3.089732230E-1,9.958080031E0
3.959510642E0,9.946664810E0,-2.054836452E-1,3.161516786E-1,9.953809133E0
3.961954809E0,9.929914474E0,-2.198405862E-1,2.826521695E-1,9.936368733E0
3.964399027E0,9.932307243E0,-2.150549293E-1,2.994019389E-1,9.939145704E0
3.966843975E0,9.946664810E0,-2.126621157E-1,2.994019389E-1,9.953441995E0
3.969287309E0,9.929914474E0,-2.078764737E-1,3.089732230E-1,9.936894814E0
3.971731527E0,9.946664810E0,-2.222333997E-1,3.089732230E-1,9.953943589E0
3.974176527E0,9.949057579E0,-1.959123611E-1,3.089732230E-1,9.955781879E0
3.976619861E0,9.929914474E0,-2.030908167E-1,2.946162820E-1,9.936359801E0
3.979064080E0,9.934700966E0,-2.150549293E-1,3.089732230E-1,9.941830634E0
3.981508298E0,9.939486504E0,-2.174477577E-1,3.089732230E-1,9.946664764E0
3.983952465E0,9.934700966E0,-2.222333997E-1,2.898306549E-1,9.941412011E0
3.986397465E0,9.949057579E0,-2.126621157E-1,2.922234535E-1,9.955619842E0
3.988840798E0,9.934700966E0,-2.174477577E-1,2.802593410E-1,9.941031743E0
3.991285017E0,9.932307243E0,-2.318046987E-1,2.826521695E-1,9.939031786E0
3.993730017E0,9.939486504E0,-2.030908167E-1,3.065803945E-1,9.946287216E0
3.996173350E0,9.958628654E0,-2.030908167E-1,2.922234535E-1,9.964984953E0
3.998617569E0,9.941879272E0,-2.006980032E-1,3.017947674E-1,9.948483464E0
4.001061736E0,9.939486504E0,-2.054836452E-1,2.922234535E-1,9.945904184E0
4.003505955E0,9.946664810E0,-2.054836452E-1,2.898306549E-1,9.953007896E0
4.005950902E0,9.929914474E0,-2.030908167E-1,2.946162820E-1,9.936359801E0
4.008394288E0,9.939486504E0,-2.174477577E-1,2.946162820E-1,9.946229147E0
4.010838507E0,9.939486504E0,-1.959123611E-1,3.041875660E-1,9.946069761E0
4.013283507E0,9.939486504E0,-2.270190418E-1,3.065803945E-1,9.946804569E0
4.015726840E0,9.944272041E0,-2.246262282E-1,2.826521695E-1,9.950823867E0
4.018171059E0,9.946664810E0,-2.174477577E-1,2.970091105E-1,9.953473704E0
4.020615225E0,9.934700966E0,-2.126621157E-1,2.994019389E-1,9.941486306E0
