"Time (s)","Acceleration x (m/s^2)","Acceleration y (m/s^2)","Acceleration z (m/s^2)","Absolute acceleration (m/s^2)"
2.461902600E-2,-9.990034252E-2,9.696016312E0,1.462612897E-1,9.697633977E0
2.704491100E-2,-9.272187948E-2,9.686445236E0,1.223330572E-1,9.687661433E0
2.947079700E-2,-9.750752151E-2,9.698409081E0,6.729813665E-2,9.699132716E0
3.189663000E-2,-6.400800496E-2,9.707980156E0,-6.879365072E-3,9.708193604E0
3.432251500E-2,-1.932204217E-1,9.674481392E0,-1.073779166E-1,9.677006477E0
3.674840100E-2,-3.681955934E-1,9.636196136E0,-3.897309899E-1,9.651100156E0
3.917428600E-2,-1.501496136E-1,9.674481392E0,-4.833501875E-1,9.687711934E0
4.160017200E-2,1.034895778E-1,9.736694336E0,-3.658027649E-1,9.744113010E0
4.402605700E-2,2.087737769E-1,9.729516029E0,-4.115654826E-1,9.740454548E0
4.645194200E-2,1.417747438E-1,9.710372925E0,-3.227319419E-1,9.716768924E0
4.887782800E-2,-2.333002165E-2,9.684052467E0,-2.868396044E-1,9.688327691E0
5.130371300E-2,-2.195414752E-1,9.667302132E0,-1.671984792E-1,9.671240060E0
5.372959900E-2,-2.817548811E-1,9.676874161E0,-1.025922745E-1,9.681518709E0
5.615548400E-2,-2.147558331E-1,9.688838005E0,-3.559323773E-2,9.691283137E0
5.858131700E-2,-1.262213886E-1,9.719944954E0,3.858426586E-2,9.720841038E0
6.100720300E-2,2.213360928E-2,9.727123260E0,1.007976532E-1,9.727670687E0
6.343308800E-2,2.691925503E-2,9.712766647E0,1.558325738E-1,9.714053962E0
6.585897400E-2,1.495514158E-2,9.729516029E0,1.728814393E-1,9.731063344E0
6.828485900E-2,-3.768695518E-2,9.727123260E0,2.111666054E-1,9.729488094E0
7.071074500E-2,-1.118644550E-1,9.707980156E0,2.111666054E-1,9.710920847E0
7.313663000E-2,-1.549352705E-1,9.686445236E0,1.992024779E-1,9.689732085E0
7.556251500E-2,-1.238285750E-1,9.679266930E0,1.872383654E-1,9.681869655E0
7.798840100E-2,-9.511470050E-2,9.676874161E0,1.414756328E-1,9.678375674E0
8.041428600E-2,-8.315058798E-2,9.705587387E0,7.447660714E-2,9.706229305E0
8.284012000E-2,-3.290131316E-2,9.703194618E0,4.097708687E-2,9.703336922E0
8.526600500E-2,-1.136590727E-2,9.719944954E0,-9.272187948E-3,9.719956022E0
8.769189000E-2,-6.879365444E-2,9.693623543E0,-4.995017126E-2,9.693996337E0
9.011777600E-2,-8.075776696E-2,9.686445236E0,-1.097707376E-1,9.687403819E0
9.254366100E-2,-8.793623000E-2,9.700801849E0,-1.552343667E-1,9.702442322E0
9.496954700E-2,-9.511470050E-2,9.684052467E0,-1.887338907E-1,9.686358422E0
9.739543200E-2,-9.750752151E-2,9.691230774E0,-2.270190418E-1,9.694379778E0
9.982131700E-2,-7.118647546E-2,9.700801849E0,-2.389831543E-1,9.704006234E0
1.022472030E-1,-5.682953820E-2,9.693623543E0,-2.557329237E-1,9.697162797E0
1.046730880E-1,-6.640082598E-2,9.705587387E0,-2.485544533E-1,9.708996597E0
1.070989220E-1,-9.511470050E-2,9.674481392E0,-2.126621157E-1,9.677285889E0
1.095248070E-1,-9.990034252E-2,9.698409081E0,-1.983051747E-1,9.700950660E0
1.119506920E-1,-9.032905847E-2,9.696016312E0,-1.480558962E-1,9.697567334E0
1.143765780E-1,-9.511470050E-2,9.688838005E0,-1.193420291E-1,9.690039794E0
1.168024630E-1,-7.357929647E-2,9.698409081E0,-6.191428751E-2,9.698885812E0
1.192283490E-1,-7.357929647E-2,9.712766647E0,-2.602194622E-2,9.713080201E0
1.216542340E-1,-7.118647546E-2,9.703194618E0,1.465603895E-2,9.703466809E0
1.240801200E-1,-7.357929647E-2,9.688838005E0,3.140579537E-2,9.689168289E0
1.265060050E-1,-9.272187948E-2,9.698409081E0,7.208377868E-2,9.699120172E0
1.289318380E-1,-1.118644550E-1,9.698409081E0,8.644071966E-2,9.699439383E0
1.313577240E-1,-9.511470050E-2,9.722337723E0,1.007976532E-1,9.723325448E0
1.337836090E-1,-1.046859920E-1,9.700801849E0,9.361918271E-2,9.701818398E0
1.362094950E-1,-6.879365444E-2,9.696016312E0,8.883354068E-2,9.696667277E0
1.386353800E-1,-6.161518395E-2,9.691230774E0,7.686942816E-2,9.691731489E0
1.410612650E-1,-6.879365444E-2,9.700801849E0,6.011966988E-2,9.701232059E0
1.434871510E-1,-7.118647546E-2,9.700801849E0,1.944168471E-2,9.701082518E0
1.459130360E-1,-6.161518395E-2,9.693623543E0,-1.166501082E-2,9.693826380E0
1.483389220E-1,-9.032905847E-2,9.705587387E0,-5.952146277E-2,9.706190224E0
1.507648070E-1,-9.272187948E-2,9.700801849E0,-8.584251255E-2,9.701624751E0
1.531906920E-1,-9.750752151E-2,9.684052467E0,-1.217348501E-1,9.685308425E0
1.556165260E-1,-7.836493850E-2,9.688838005E0,-1.265204996E-1,9.689980928E0
1.580424110E-1,-1.022931710E-1,9.703194618E0,-1.313061416E-1,9.704622146E0
1.604682970E-1,-1.046859920E-1,9.700801849E0,-1.695913076E-1,9.702848906E0
1.628941820E-1,-7.836493850E-2,9.693623543E0,-1.648056656E-1,9.695341116E0
1.653200670E-1,-8.793623000E-2,9.703194618E0,-1.600200087E-1,9.704912415E0
1.677459530E-1,-8.075776696E-2,9.705587387E0,-1.528415531E-1,9.707126706E0
1.701718380E-1,-7.597211748E-2,9.703194618E0,-1.217348501E-1,9.704255610E0
1.725977240E-1,-9.750752151E-2,9.705587387E0,-1.049850956E-1,9.706644946E0
1.750236090E-1,-9.272187948E-2,9.705587387E0,-1.097707376E-1,9.706650992E0
1.774494950E-1,-9.750752151E-2,9.686445236E0,-6.909275055E-2,9.687182399E0
1.798753280E-1,-6.879365444E-2,9.691230774E0,-3.798605874E-2,9.691549382E0
1.823012130E-1,-7.118647546E-2,9.710372925E0,-2.602194622E-2,9.710668720E0
1.847270990E-1,-7.836493850E-2,9.691230774E0,2.991028305E-4,9.691547609E0
1.871529840E-1,-4.965107143E-2,9.684052467E0,2.183450572E-2,9.684204364E0
1.895788700E-1,-9.032905847E-2,9.688838005E0,3.858426586E-2,9.689335889E0
1.920047550E-1,-5.443671346E-2,9.686445236E0,4.336991161E-2,9.686695289E0
1.944306400E-1,-6.400800496E-2,9.715159416E0,3.619144112E-2,9.715437681E0
1.968565260E-1,-7.597211748E-2,9.717552185E0,4.097708687E-2,9.717935550E0
1.992824110E-1,-7.118647546E-2,9.719944954E0,3.140579537E-2,9.720256362E0
2.017082970E-1,-4.247260094E-2,9.703194618E0,2.662015148E-2,9.703324088E0
2.041341300E-1,-8.075776696E-2,9.715159416E0,-2.093719784E-3,9.715495288E0
2.065600150E-1,-1.094716340E-1,9.705587387E0,-1.645065658E-2,9.706218687E0
2.089859010E-1,-9.511470050E-2,9.700801849E0,-2.841476910E-2,9.701309743E0
2.114117860E-1,-8.075776696E-2,9.700801849E0,-5.234299600E-2,9.701279201E0
2.138376720E-1,-7.597211748E-2,9.696016312E0,-8.344969153E-2,9.696673034E0
2.162635570E-1,-7.597211748E-2,9.712766647E0,-9.062815458E-2,9.713486561E0
2.186894420E-1,-1.046859920E-1,9.707980156E0,-1.001994461E-1,9.709061633E0
2.211153280E-1,-1.070788130E-1,9.696016312E0,-1.001994461E-1,9.697125250E0
2.235412130E-1,-6.161518395E-2,9.698409081E0,-1.025922745E-1,9.699147401E0
2.259670990E-1,-8.075776696E-2,9.710372925E0,-1.025922745E-1,9.711250657E0
2.283929840E-1,-7.118647546E-2,9.703194618E0,-1.049850956E-1,9.704023659E0
2.308188170E-1,-6.879365444E-2,9.703194618E0,-1.121635586E-1,9.704086718E0
2.332447030E-1,-8.075776696E-2,9.715159416E0,-1.073779166E-1,9.716088427E0
2.356705880E-1,-1.070788130E-1,9.710372925E0,-9.780662507E-2,9.711455830E0
2.380964740E-1,-8.315058798E-2,9.703194618E0,-7.627122104E-2,9.703850634E0
2.405223590E-1,-8.315058798E-2,9.710372925E0,-5.473581702E-2,9.710883192E0
2.429482450E-1,-7.118647546E-2,9.696016312E0,-4.516452923E-2,9.696382813E0
2.453741300E-1,-8.793623000E-2,9.688838005E0,-1.645065658E-2,9.689251018E0
2.478000150E-1,-8.793623000E-2,9.700801849E0,-2.841476910E-2,9.701242018E0
2.502259010E-1,-6.879365444E-2,9.696016312E0,-9.272187948E-3,9.696264789E0
2.526517860E-1,-9.032905847E-2,9.707980156E0,-1.166501082E-2,9.708407394E0
2.550776720E-1,-7.597211748E-2,9.693623543E0,-1.884347759E-2,9.693939562E0
2.575035050E-1,-1.094716340E-1,9.717552185E0,9.870393202E-3,9.718173796E0
2.599293900E-1,-7.357929647E-2,9.710372925E0,7.477570791E-3,9.710654569E0
2.623552760E-1,-7.357929647E-2,9.686445236E0,-1.166501082E-2,9.686731714E0
2.647811610E-1,-8.793623000E-2,9.698409081E0,-3.320041299E-2,9.698864559E0
2.672070470E-1,-1.118644550E-1,9.696016312E0,-3.320041299E-2,9.696718426E0
2.696329320E-1,-9.511470050E-2,9.712766647E0,-5.712864175E-2,9.713400354E0
2.720588170E-1,-6.879365444E-2,9.693623543E0,-7.148557901E-2,9.694131222E0
2.744847030E-1,-1.022931710E-1,9.693623543E0,-7.866404206E-2,9.694482416E0
2.769105880E-1,-7.357929647E-2,9.727123260E0,-9.302098304E-2,9.727846305E0
2.793364740E-1,-6.640082598E-2,9.693623543E0,-9.541380405E-2,9.694320515E0
2.817623070E-1,-8.554340899E-2,9.715159416E0,-1.001994461E-1,9.716052701E0
2.841881920E-1,-7.357929647E-2,9.703194618E0,-9.062815458E-2,9.703896804E0
2.866140780E-1,-1.022931710E-1,9.696016312E0,-1.025922745E-1,9.697098606E0
2.890399630E-1,-8.793623000E-2,9.691230774E0,-1.001994461E-1,9.692147679E0
2.914658490E-1,-9.750752151E-2,9.698409081E0,-9.302098304E-2,9.699345303E0
2.938917340E-1,-7.597211748E-2,9.698409081E0,-8.823533356E-2,9.699107997E0
2.963176200E-1,-7.836493850E-2,9.696016312E0,-8.105687052E-2,9.696671779E0
2.987435050E-1,-9.750752151E-2,9.681659698E0,-7.387840003E-2,9.682432559E0
3.011693900E-1,-6.161518395E-2,9.700801849E0,-4.995017126E-2,9.701126119E0
3.035952240E-1,-6.161518395E-2,9.696016312E0,-4.277170449E-2,9.696306419E0
3.060211090E-1,-7.836493850E-2,9.698409081E0,-4.037888348E-2,9.698809732E0
3.084469950E-1,-6.400800496E-2,9.707980156E0,-2.841476910E-2,9.708232750E0
3.108728800E-1,-6.640082598E-2,9.722337723E0,-5.473581702E-2,9.722718543E0
3.132987650E-1,-8.554340899E-2,9.700801849E0,-3.080759197E-2,9.701227928E0
3.157246510E-1,-5.682953820E-2,9.705587387E0,-9.272187948E-3,9.705758193E0
3.181505360E-1,-5.443671346E-2,9.710372925E0,-9.272187948E-3,9.710529938E0
3.205764220E-1,-7.597211748E-2,9.715159416E0,-1.884347759E-2,9.715474735E0
3.230023070E-1,-7.836493850E-2,9.698409081E0,-2.362912335E-2,9.698754461E0
3.254281920E-1,-7.357929647E-2,9.693623543E0,-3.080759197E-2,9.693951744E0
3.278540780E-1,-8.554340899E-2,9.696016312E0,-3.559323773E-2,9.696458986E0
3.302799110E-1,-9.990034252E-2,9.688838005E0,-4.516452923E-2,9.689458282E0
3.327057970E-1,-1.166501045E-1,9.700801849E0,-4.516452923E-2,9.701608300E0
3.351316820E-1,-9.990034252E-2,9.700801849E0,-7.148557901E-2,9.701579603E0
3.375575670E-1,-5.204389244E-2,9.693623543E0,-3.798605874E-2,9.693837676E0
3.399834530E-1,-9.750752151E-2,9.688838005E0,-4.755735025E-2,9.689445356E0
3.424093380E-1,-1.142572835E-1,9.691230774E0,-6.430710852E-2,9.692117624E0
3.448352240E-1,-8.315058798E-2,9.693623543E0,-5.234299600E-2,9.694121476E0
3.472611090E-1,-9.272187948E-2,9.686445236E0,-4.277170449E-2,9.686983436E0
3.496869950E-1,-7.357929647E-2,9.698409081E0,-6.909275055E-2,9.698934293E0
3.521128800E-1,-7.118647546E-2,9.691230774E0,-6.430710852E-2,9.691705569E0
3.545387650E-1,-8.554340899E-2,9.707980156E0,-6.909275055E-2,9.708602896E0
3.569645990E-1,-6.161518395E-2,9.686445236E0,-4.995017126E-2,9.686769986E0
3.593904840E-1,-9.272187948E-2,9.700801849E0,-6.909275055E-2,9.701491003E0
3.618163700E-1,-9.750752151E-2,9.691230774E0,-5.952146277E-2,9.691904067E0
3.642422550E-1,-9.032905847E-2,9.662516594E0,-5.234299600E-2,9.663080568E0
3.666681400E-1,-1.094716340E-1,9.688838005E0,-6.430710852E-2,9.689669826E0
3.690940260E-1,-9.032905847E-2,9.693623543E0,-4.277170449E-2,9.694138752E0
3.715199110E-1,-8.075776696E-2,9.688838005E0,-3.080759197E-2,9.689223540E0
3.739457970E-1,-7.597211748E-2,9.696016312E0,-3.798605874E-2,9.696388349E0
3.763716820E-1,-8.554340899E-2,9.700801849E0,-4.995017126E-2,9.701307603E0
3.787975670E-1,-1.094716340E-1,9.710372925E0,-2.602194622E-2,9.711024844E0
3.812234010E-1,-9.750752151E-2,9.684052467E0,-3.798605874E-2,9.684617847E0
3.836492860E-1,-5.922235921E-2,9.688838005E0,-3.798605874E-2,9.689093462E0
3.860751720E-1,-8.554340899E-2,9.703194618E0,-5.712864175E-2,9.703739854E0
3.885010570E-1,-7.118647546E-2,9.681659698E0,-6.191428751E-2,9.682119366E0
3.909269420E-1,-9.990034252E-2,9.696016312E0,-4.755735025E-2,9.696647570E0
3.933528280E-1,-8.793623000E-2,9.717552185E0,-4.755735025E-2,9.718066420E0
3.957787130E-1,-9.272187948E-2,9.688838005E0,-6.669992954E-2,9.689511242E0
3.982045990E-1,-9.272187948E-2,9.710372925E0,-7.627122104E-2,9.711115126E0
4.006304840E-1,-6.400800496E-2,9.691230774E0,-5.473581702E-2,9.691596718E0
4.030563700E-1,-7.357929647E-2,9.698409081E0,-4.755735025E-2,9.698804788E0
4.054822030E-1,-9.990034252E-2,9.700801849E0,-6.191428751E-2,9.701513798E0
4.079080880E-1,-5.922235921E-2,9.681659698E0,-6.909275055E-2,9.682087358E0
4.103339740E-1,-7.836493850E-2,9.686445236E0,-5.952146277E-2,9.686945090E0
4.127598590E-1,-7.597211748E-2,9.700801849E0,-7.387840003E-2,9.701380639E0
4.151857450E-1,-5.204389244E-2,9.698409081E0,-6.909275055E-2,9.698794826E0
4.176116300E-1,-7.357929647E-2,9.707980156E0,-8.344969153E-2,9.708617640E0
4.200375150E-1,-6.161518395E-2,9.686445236E0,-6.669992954E-2,9.686870838E0
4.224634010E-1,-7.357929647E-2,9.693623543E0,-5.952146277E-2,9.694085522E0
4.248892860E-1,-9.032905847E-2,9.686445236E0,-4.277170449E-2,9.686960827E0
4.273151720E-1,-9.272187948E-2,9.700801849E0,-3.798605874E-2,9.701319333E0
4.297410570E-1,-7.357929647E-2,9.684052467E0,-2.602194622E-2,9.684366951E0
4.321668900E-1,-8.315058798E-2,9.688838005E0,-2.602194622E-2,9.689229745E0
4.345927760E-1,-7.836493850E-2,9.686445236E0,-3.798605874E-2,9.686836703E0
4.370186610E-1,-9.272187948E-2,9.691230774E0,-2.602194622E-2,9.691709261E0
4.394445470E-1,-1.118644550E-1,9.705587387E0,-2.362912335E-2,9.706260790E0
4.418704320E-1,-7.118647546E-2,9.700801849E0,-2.362912335E-2,9.701091813E0
4.442963170E-1,-9.750752151E-2,9.712766647E0,-2.602194622E-2,9.713290936E0
4.467222030E-1,-9.511470050E-2,9.724730492E0,-2.602194622E-2,9.725230439E0
4.491480880E-1,-1.046859920E-1,9.703194618E0,-3.320041299E-2,9.703816117E0
4.515739740E-1,-9.272187948E-2,9.693623543E0,-5.712864175E-2,9.694235319E0
4.539998590E-1,-7.836493850E-2,9.700801849E0,-4.037888348E-2,9.701202402E0
4.564257450E-1,-8.554340899E-2,9.698409081E0,-4.516452923E-2,9.698891493E0
4.588515780E-1,-9.990034252E-2,9.705587387E0,-4.516452923E-2,9.706206594E0
4.612774630E-1,-1.046859920E-1,9.707980156E0,-5.234299600E-2,9.708685681E0
4.637033490E-1,-9.272187948E-2,9.712766647E0,-7.148557901E-2,9.713472267E0
4.661292340E-1,-8.793623000E-2,9.688838005E0,-9.302098304E-2,9.689683564E0
4.685551200E-1,-9.032905847E-2,9.696016312E0,-8.823533356E-2,9.696838512E0
4.709810050E-1,-6.640082598E-2,9.686445236E0,-7.866404206E-2,9.686992227E0
4.734068900E-1,-9.750752151E-2,9.686445236E0,-5.952146277E-2,9.687118861E0
4.758327760E-1,-8.075776696E-2,9.707980156E0,-4.995017126E-2,9.708444548E0
4.782586610E-1,-9.032905847E-2,9.703194618E0,-5.473581702E-2,9.703769430E0
4.806844950E-1,-6.640082598E-2,9.705587387E0,-6.191428751E-2,9.706012002E0
4.831103800E-1,-7.357929647E-2,9.693623543E0,-4.755735025E-2,9.694019445E0
4.855362650E-1,-8.315058798E-2,9.710372925E0,-4.516452923E-2,9.710833960E0
4.879621510E-1,-8.075776696E-2,9.693623543E0,-5.473581702E-2,9.694114463E0
4.903880360E-1,-8.554340899E-2,9.700801849E0,-6.191428751E-2,9.701376581E0
4.928139220E-1,-1.046859920E-1,9.684052467E0,-3.320041299E-2,9.684675194E0
4.952398070E-1,-8.315058798E-2,9.691230774E0,-2.123630047E-2,9.691610749E0
4.976656920E-1,-9.032905847E-2,9.686445236E0,-3.320041299E-2,9.686923295E0
5.000915780E-1,-7.597211748E-2,9.707980156E0,-2.093719784E-3,9.708277646E0
5.025174630E-1,-9.272187948E-2,9.707980156E0,-3.559323773E-2,9.708488190E0
5.049432970E-1,-7.118647546E-2,9.719944954E0,-2.841476910E-2,9.720247158E0
5.073691820E-1,-7.597211748E-2,9.681659698E0,-3.080759197E-2,9.682006785E0
5.097950670E-1,-6.640082598E-2,9.707980156E0,-1.645065658E-2,9.708221176E0
5.122209530E-1,-9.032905847E-2,9.696016312E0,-2.362912335E-2,9.696465851E0
5.146468380E-1,-7.836493850E-2,9.703194618E0,-3.320041299E-2,9.703567856E0
5.170727240E-1,-7.597211748E-2,9.696016312E0,-4.516452923E-2,9.696419128E0
5.194986090E-1,-7.836493850E-2,9.705587387E0,-5.234299600E-2,9.706044889E0
5.219244950E-1,-9.990034252E-2,9.736694336E0,-3.559323773E-2,9.737271874E0
5.243503800E-1,-6.400800496E-2,9.693623543E0,-6.909275055E-2,9.694081092E0
5.267762650E-1,-8.554340899E-2,9.712766647E0,-4.516452923E-2,9.713248347E0
5.292021510E-1,-1.022931710E-1,9.707980156E0,-6.909275055E-2,9.708764927E0
5.316279840E-1,-9.750752151E-2,9.715159416E0,-6.191428751E-2,9.715846004E0
5.340538700E-1,-8.793623000E-2,9.703194618E0,-5.952146277E-2,9.703775625E0
5.364797550E-1,-8.554340899E-2,9.717552185E0,-9.062815458E-2,9.718351280E0
5.389056400E-1,-1.070788130E-1,9.710372925E0,-8.105687052E-2,9.711301583E0
5.413315260E-1,-7.357929647E-2,9.684052467E0,-6.909275055E-2,9.684578458E0
5.437574110E-1,-1.046859920E-1,9.693623543E0,-7.387840003E-2,9.694470309E0
5.461832970E-1,-7.597211748E-2,9.703194618E0,-5.473581702E-2,9.703646406E0
5.486091820E-1,-9.750752151E-2,9.698409081E0,-6.669992954E-2,9.699128584E0
5.510350670E-1,-5.204389244E-2,9.684052467E0,-4.995017126E-2,9.684321131E0
5.534609530E-1,-7.597211748E-2,9.707980156E0,-6.430710852E-2,9.708490401E0
5.558868380E-1,-8.554340899E-2,9.700801849E0,-4.516452923E-2,9.701284143E0
5.583126720E-1,-7.118647546E-2,9.698409081E0,-7.148557901E-2,9.698933776E0
5.607385570E-1,-1.094716340E-1,9.722337723E0,-5.712864175E-2,9.723121850E0
5.631644420E-1,-8.793623000E-2,9.707980156E0,-3.559323773E-2,9.708443663E0
5.655903280E-1,-9.750752151E-2,9.691230774E0,-4.755735025E-2,9.691837975E0
5.680162130E-1,-1.094716340E-1,9.696016312E0,-5.473581702E-2,9.696788766E0
5.704420990E-1,-8.793623000E-2,9.707980156E0,-5.473581702E-2,9.708532716E0
5.728679840E-1,-7.357929647E-2,9.684052467E0,-4.755735025E-2,9.684448761E0
5.752938700E-1,-9.511470050E-2,9.705587387E0,-5.473581702E-2,9.706207774E0
5.777197550E-1,-6.161518395E-2,9.717552185E0,-3.559323773E-2,9.717812705E0
5.801456400E-1,-5.204389244E-2,9.703194618E0,-5.234299600E-2,9.703475365E0
5.825715260E-1,-6.879365444E-2,9.681659698E0,-5.712864175E-2,9.682072648E0
5.849973590E-1,-7.357929647E-2,9.705587387E0,-7.387840003E-2,9.706147457E0
5.874232450E-1,-5.922235921E-2,9.703194618E0,-5.234299600E-2,9.703516521E0
5.898491300E-1,-5.682953820E-2,9.700801849E0,-6.191428751E-2,9.701165883E0
5.922750150E-1,-7.836493850E-2,9.696016312E0,-5.473581702E-2,9.696487477E0
5.947009010E-1,-6.879365444E-2,9.691230774E0,-5.473581702E-2,9.691629506E0
5.971267860E-1,-7.357929647E-2,9.715159416E0,-5.712864175E-2,9.715606007E0
5.995526720E-1,-9.511470050E-2,9.722337723E0,-5.712864175E-2,9.722970805E0
6.019785570E-1,-6.879365444E-2,9.710372925E0,-4.755735025E-2,9.710733062E0
6.044044420E-1,-5.443671346E-2,9.703194618E0,-4.995017126E-2,9.703475881E0
6.068303280E-1,-8.793623000E-2,9.681659698E0,-2.362912335E-2,9.682087876E0
6.092561610E-1,-6.640082598E-2,9.705587387E0,-1.645065658E-2,9.705828467E0
6.116820470E-1,-6.400800496E-2,9.693623543E0,-3.798605874E-2,9.693909292E0
6.141079320E-1,-6.640082598E-2,9.715159416E0,-1.405783277E-2,9.715396501E0
6.165338170E-1,-1.022931710E-1,9.705587387E0,-1.405783277E-2,9.706136618E0
6.189597030E-1,-9.750752151E-2,9.698409081E0,-3.320041299E-2,9.698956061E0
6.213855880E-1,-7.118647546E-2,9.700801849E0,-3.559323773E-2,9.701128332E0
6.238114740E-1,-8.793623000E-2,9.707980156E0,-4.995017126E-2,9.708506914E0
6.262373590E-1,-8.075776696E-2,9.688838005E0,-3.320041299E-2,9.689231444E0
6.286632450E-1,-6.879365444E-2,9.686445236E0,-4.037888348E-2,9.686773680E0
6.310891300E-1,-7.357929647E-2,9.703194618E0,-5.952146277E-2,9.703656142E0
6.335149630E-1,-8.315058798E-2,9.686445236E0,-5.952146277E-2,9.686984987E0
6.359408490E-1,-8.075776696E-2,9.693623543E0,-8.344969153E-2,9.694319113E0
6.383667340E-1,-9.511470050E-2,9.660123825E0,-7.627122104E-2,9.660893148E0
6.407926200E-1,-8.075776696E-2,9.710372925E0,-7.148557901E-2,9.710971854E0
6.432185050E-1,-1.070788130E-1,9.727123260E0,-8.344969153E-2,9.728070551E0
6.456443900E-1,-8.554340899E-2,9.696016312E0,-5.952146277E-2,9.696576344E0
6.480702760E-1,-7.836493850E-2,9.710372925E0,-6.909275055E-2,9.710934930E0
6.504961610E-1,-8.075776696E-2,9.684052467E0,-6.909275055E-2,9.684635657E0
6.529220470E-1,-9.272187948E-2,9.729516029E0,-5.952146277E-2,9.730139892E0
6.553479320E-1,-9.750752151E-2,9.698409081E0,-5.712864175E-2,9.699067486E0
6.577738170E-1,-6.879365444E-2,9.710372925E0,-6.909275055E-2,9.710862408E0
6.601996510E-1,-9.032905847E-2,9.691230774E0,-5.473581702E-2,9.691806295E0
6.626255360E-1,-8.793623000E-2,9.707980156E0,-3.798605874E-2,9.708452731E0
6.650514220E-1,-7.836493850E-2,9.705587387E0,-4.755735025E-2,9.706020260E0
6.674773070E-1,-6.879365444E-2,9.672088623E0,-3.080759197E-2,9.672382334E0
6.699031920E-1,-8.315058798E-2,9.688838005E0,-4.755735025E-2,9.689311514E0
6.723290780E-1,-9.511470050E-2,9.691230774E0,-4.516452923E-2,9.691802750E0
6.747549630E-1,-6.879365444E-2,9.707980156E0,-4.516452923E-2,9.708328956E0
6.771808490E-1,-6.161518395E-2,9.674481392E0,-3.798605874E-2,9.674752171E0
6.796067340E-1,-8.554340899E-2,9.693623543E0,-4.755735025E-2,9.694117637E0
6.820326200E-1,-8.315058798E-2,9.698409081E0,-4.755735025E-2,9.698882122E0
6.844585050E-1,-8.554340899E-2,9.688838005E0,-5.473581702E-2,9.689370236E0
6.868843380E-1,-4.725824669E-2,9.693623543E0,-6.669992954E-2,9.693968208E0
6.893102240E-1,-8.315058798E-2,9.710372925E0,-6.669992954E-2,9.710957998E0
6.917361090E-1,-9.272187948E-2,9.710372925E0,-4.277170449E-2,9.710909798E0
6.941619950E-1,-9.750752151E-2,9.698409081E0,-4.516452923E-2,9.699004394E0
6.965878800E-1,-8.075776696E-2,9.688838005E0,-7.148557901E-2,9.689438265E0
6.990137650E-1,-5.682953820E-2,9.700801849E0,-5.952146277E-2,9.701150907E0
7.014396510E-1,-6.400800496E-2,9.686445236E0,-5.234299600E-2,9.686798136E0
7.038655360E-1,-7.357929647E-2,9.679266930E0,-5.712864175E-2,9.679715176E0
7.062914220E-1,-7.118647546E-2,9.710372925E0,-4.755735025E-2,9.710750309E0
7.087173070E-1,-7.357929647E-2,9.707980156E0,-4.995017126E-2,9.708387489E0
7.111431400E-1,-8.315058798E-2,9.691230774E0,-5.952146277E-2,9.691770258E0
7.135690260E-1,-7.118647546E-2,9.681659698E0,-5.712864175E-2,9.682089946E0
7.159949110E-1,-8.075776696E-2,9.679266930E0,-3.559323773E-2,9.679669260E0
7.184207970E-1,-8.315058798E-2,9.691230774E0,-2.841476910E-2,9.691629137E0
7.208466820E-1,-9.032905847E-2,9.698409081E0,-4.995017126E-2,9.698958349E0
7.232725670E-1,-9.032905847E-2,9.688838005E0,-5.473581702E-2,9.689413668E0
7.256984530E-1,-9.272187948E-2,9.681659698E0,-4.277170449E-2,9.682198164E0
7.281243380E-1,-5.443671346E-2,9.693623543E0,-2.602194622E-2,9.693811319E0
7.305502240E-1,-8.554340899E-2,9.686445236E0,-3.798605874E-2,9.686897436E0
7.329761090E-1,-7.597211748E-2,9.681659698E0,-3.798605874E-2,9.682032288E0
7.354019420E-1,-8.075776696E-2,9.681659698E0,-3.080759197E-2,9.682045520E0
7.378278280E-1,-9.750752151E-2,9.679266930E0,-1.884347759E-2,9.679776397E0
7.402537130E-1,-8.793623000E-2,9.696016312E0,-1.405783277E-2,9.696425255E0
7.426795990E-1,-9.272187948E-2,9.717552185E0,-3.320041299E-2,9.718051249E0
7.451054840E-1,-8.075776696E-2,9.707980156E0,-4.995017126E-2,9.708444548E0
7.475313700E-1,-1.070788130E-1,9.707980156E0,-5.952146277E-2,9.708753132E0
7.499572550E-1,-1.214357466E-1,9.715159416E0,-6.430710852E-2,9.716131150E0
7.523831400E-1,-9.272187948E-2,9.703194618E0,-5.473581702E-2,9.703791999E0
7.548090260E-1,-7.836493850E-2,9.707980156E0,-5.473581702E-2,9.708450741E0
7.572349110E-1,-8.315058798E-2,9.715159416E0,-8.823533356E-2,9.715915910E0
7.596607970E-1,-9.511470050E-2,9.712766647E0,-9.062815458E-2,9.713655142E0
7.620866300E-1,-8.315058798E-2,9.722337723E0,-9.302098304E-2,9.723138265E0
7.645125150E-1,-8.554340899E-2,9.696016312E0,-8.344969153E-2,9.696752747E0
7.669384010E-1,-1.166501045E-1,9.696016312E0,-7.387840003E-2,9.696999411E0
7.693642860E-1,-8.075776696E-2,9.722337723E0,-8.584251255E-2,9.723052070E0
7.717901720E-1,-1.118644550E-1,9.715159416E0,-7.866404206E-2,9.716121869E0
7.742160570E-1,-9.032905847E-2,9.717552185E0,-7.866404206E-2,9.718290376E0
7.766419420E-1,-8.315058798E-2,9.684052467E0,-5.712864175E-2,9.684577941E0
7.790678280E-1,-7.836493850E-2,9.693623543E0,-5.952146277E-2,9.694123027E0
7.814937130E-1,-8.793623000E-2,9.710372925E0,-6.430710852E-2,9.710984014E0
7.839195990E-1,-7.836493850E-2,9.696016312E0,-3.798605874E-2,9.696407392E0
7.863454840E-1,-7.836493850E-2,9.679266930E0,-4.995017126E-2,9.679713032E0
7.887713170E-1,-5.204389244E-2,9.674481392E0,-5.473581702E-2,9.674776213E0
7.911972030E-1,-6.879365444E-2,9.698409081E0,-3.798605874E-2,9.698727453E0
7.936230880E-1,-9.272187948E-2,9.679266930E0,-4.755735025E-2,9.679827857E0
7.960489740E-1,-6.640082598E-2,9.693623543E0,-2.602194622E-2,9.693885888E0
7.984748590E-1,-6.879365444E-2,9.691230774E0,-4.037888348E-2,9.691559056E0
8.009007450E-1,-9.511470050E-2,9.700801849E0,-3.080759197E-2,9.701317046E0
8.033266300E-1,-8.075776696E-2,9.693623543E0,-2.362912335E-2,9.693988732E0
8.057525150E-1,-7.118647546E-2,9.696016312E0,-2.362912335E-2,9.696306419E0
8.081784010E-1,-4.247260094E-2,9.691230774E0,-4.516452923E-2,9.691429083E0
8.106042860E-1,-6.400800496E-2,9.696016312E0,-3.559323773E-2,9.696292911E0
8.130301720E-1,-7.118647546E-2,9.676874161E0,-3.798605874E-2,9.677210547E0
8.154560050E-1,-1.046859920E-1,9.700801849E0,-4.755735025E-2,9.701483257E0
8.178818900E-1,-8.075776696E-2,9.684052467E0,-3.559323773E-2,9.684454599E0
8.203077760E-1,-8.554340899E-2,9.700801849E0,-2.602194622E-2,9.701213910E0
8.227336610E-1,-7.836493850E-2,9.724730492E0,-3.320041299E-2,9.725102903E0
8.251595470E-1,-7.836493850E-2,9.688838005E0,-4.755735025E-2,9.689271627E0
8.275854320E-1,-9.032905847E-2,9.703194618E0,-3.559323773E-2,9.703680334E0
8.300113170E-1,-8.315058798E-2,9.693623543E0,-4.037888348E-2,9.694064259E0
8.324372030E-1,-7.357929647E-2,9.693623543E0,-4.995017126E-2,9.694031479E0
8.348630880E-1,-7.118647546E-2,9.722337723E0,-5.473581702E-2,9.722752405E0
8.372889220E-1,-9.272187948E-2,9.684052467E0,-6.669992954E-2,9.684726037E0
8.397148070E-1,-7.597211748E-2,9.700801849E0,-6.430710852E-2,9.701312472E0
8.421406920E-1,-1.142572835E-1,9.698409081E0,-6.430710852E-2,9.699295275E0
8.445665780E-1,-9.750752151E-2,9.691230774E0,-6.191428751E-2,9.691919057E0
8.469924630E-1,-9.272187948E-2,9.710372925E0,-7.627122104E-2,9.711115126E0
8.494183490E-1,-1.046859920E-1,9.700801849E0,-6.669992954E-2,9.701595980E0
8.518442340E-1,-1.046859920E-1,9.712766647E0,-6.909275055E-2,9.713576525E0
8.542701200E-1,-7.597211748E-2,9.717552185E0,-5.952146277E-2,9.718031438E0
8.566960050E-1,-9.511470050E-2,9.712766647E0,-6.430710852E-2,9.713445226E0
8.591218900E-1,-1.070788130E-1,9.717552185E0,-6.669992954E-2,9.718371017E0
8.615477760E-1,-6.161518395E-2,9.717552185E0,-4.037888348E-2,9.717831412E0
8.639736090E-1,-8.793623000E-2,9.696016312E0,-4.516452923E-2,9.696520249E0
8.663994950E-1,-7.836493850E-2,9.686445236E0,-5.234299600E-2,9.686903642E0
8.688253800E-1,-5.922235921E-2,9.715159416E0,-5.712864175E-2,9.715507884E0
8.712512650E-1,-8.315058798E-2,9.719944954E0,-6.669992954E-2,9.720529451E0
8.736771510E-1,-7.118647546E-2,9.705587387E0,-3.559323773E-2,9.705913709E0
8.761030360E-1,-1.142572835E-1,9.698409081E0,-4.277170449E-2,9.699176400E0
8.785289220E-1,-8.075776696E-2,9.698409081E0,-3.080759197E-2,9.698794235E0
8.809548070E-1,-8.554340899E-2,9.705587387E0,-3.320041299E-2,9.706021145E0
8.833806920E-1,-8.315058798E-2,9.700801849E0,-2.362912335E-2,9.701186983E0
8.858065780E-1,-7.118647546E-2,9.712766647E0,-4.995017126E-2,9.713155948E0
8.882324630E-1,-7.118647546E-2,9.698409081E0,-4.037888348E-2,9.698754387E0
8.906582970E-1,-7.357929647E-2,9.707980156E0,-5.473581702E-2,9.708413291E0
8.930841820E-1,-7.597211748E-2,9.710372925E0,-5.234299600E-2,9.710811186E0
8.955100670E-1,-9.272187948E-2,9.688838005E0,-4.516452923E-2,9.689386930E0
8.979359530E-1,-7.597211748E-2,9.700801849E0,-4.755735025E-2,9.701215902E0
9.003618380E-1,-7.836493850E-2,9.703194618E0,-4.516452923E-2,9.703616166E0
9.027877240E-1,-7.836493850E-2,9.693623543E0,-5.234299600E-2,9.694081609E0
9.052136090E-1,-8.554340899E-2,9.684052467E0,-5.234299600E-2,9.684571733E0
9.076394950E-1,-6.879365444E-2,9.705587387E0,-4.995017126E-2,9.705959721E0
9.100653800E-1,-6.161518395E-2,9.693623543E0,-4.995017126E-2,9.693948052E0
9.124912650E-1,-5.443671346E-2,9.691230774E0,-5.473581702E-2,9.691538231E0
9.149171510E-1,-7.836493850E-2,9.700801849E0,-6.669992954E-2,9.701347662E0
9.173429840E-1,-5.682953820E-2,9.705587387E0,-6.669992954E-2,9.705982949E0
9.197688700E-1,-4.725824669E-2,9.712766647E0,-7.148557901E-2,9.713144675E0
9.221947550E-1,-8.075776696E-2,9.693623543E0,-6.191428751E-2,9.694157652E0
9.246206400E-1,-9.511470050E-2,9.679266930E0,-6.191428751E-2,9.679932256E0
9.270465260E-1,-8.554340899E-2,9.681659698E0,-4.516452923E-2,9.682142946E0
9.294724110E-1,-8.075776696E-2,9.712766647E0,-4.277170449E-2,9.713196548E0
9.318982970E-1,-7.836493850E-2,9.698409081E0,-7.148557901E-2,9.698989120E0
9.343241820E-1,-5.922235921E-2,9.707980156E0,-6.430710852E-2,9.708373777E0
9.367500670E-1,-6.400800496E-2,9.681659698E0,-6.669992954E-2,9.682101033E0
9.391759530E-1,-6.161518395E-2,9.705587387E0,-6.430710852E-2,9.705996001E0
9.416018380E-1,-8.075776696E-2,9.688838005E0,-6.191428751E-2,9.689372378E0
9.440276720E-1,-9.272187948E-2,9.712766647E0,-7.627122104E-2,9.713508665E0
9.464535570E-1,-8.315058798E-2,9.717552185E0,-5.952146277E-2,9.718090208E0
9.488794420E-1,-9.032905847E-2,9.719944954E0,-5.712864175E-2,9.720532543E0
9.513053280E-1,-7.357929647E-2,9.693623543E0,-4.755735025E-2,9.694019445E0
9.537312130E-1,-8.554340899E-2,9.703194618E0,-3.320041299E-2,9.703628483E0
9.561570990E-1,-8.554340899E-2,9.703194618E0,-3.798605874E-2,9.703646037E0
9.585829840E-1,-1.094716340E-1,9.700801849E0,-4.755735025E-2,9.701536077E0
9.610088700E-1,-8.075776696E-2,9.719944954E0,-5.712864175E-2,9.720448313E0
9.634347550E-1,-9.032905847E-2,9.700801849E0,-4.277170449E-2,9.701316678E0
9.658606400E-1,-9.032905847E-2,9.703194618E0,-5.712864175E-2,9.703783222E0
9.682864740E-1,-8.554340899E-2,9.724730492E0,-4.037888348E-2,9.725190552E0
9.707123590E-1,-9.990034252E-2,9.698409081E0,-5.473581702E-2,9.699078038E0
9.731382450E-1,-7.357929647E-2,9.729516029E0,-5.712864175E-2,9.729961961E0
9.755641300E-1,-6.879365444E-2,9.700801849E0,-7.387840003E-2,9.701327080E0
9.779900150E-1,-1.046859920E-1,9.693623543E0,-5.712864175E-2,9.694357133E0
9.804159010E-1,-9.272187948E-2,9.698409081E0,-5.712864175E-2,9.699020555E0
9.828417860E-1,-7.118647546E-2,9.698409081E0,-4.755735025E-2,9.698786930E0
9.852676720E-1,-6.640082598E-2,9.705587387E0,-4.037888348E-2,9.705898519E0
9.876935570E-1,-4.965107143E-2,9.719944954E0,-4.277170449E-2,9.720165871E0
9.901194420E-1,-8.793623000E-2,9.691230774E0,-5.234299600E-2,9.691771071E0
9.925453280E-1,-8.075776696E-2,9.679266930E0,-4.277170449E-2,9.679698318E0
9.949711610E-1,-1.094716340E-1,9.705587387E0,-5.234299600E-2,9.706345881E0
9.973970470E-1,-1.022931710E-1,9.686445236E0,-6.909275055E-2,9.687231752E0
9.998229320E-1,-7.836493850E-2,9.705587387E0,-5.952146277E-2,9.706086255E0
1.002248817E0,-6.400800496E-2,9.693623543E0,-6.430710852E-2,9.694048165E0
1.004674703E0,-7.836493850E-2,9.693623543E0,-6.909275055E-2,9.694186519E0
1.007100588E0,-7.836493850E-2,9.700801849E0,-5.234299600E-2,9.701259577E0
1.009526474E0,-5.443671346E-2,9.707980156E0,-5.712864175E-2,9.708300868E0
1.011952359E0,-8.793623000E-2,9.696016312E0,-6.430710852E-2,9.696628306E0
1.014378245E0,-8.793623000E-2,9.696016312E0,-5.473581702E-2,9.696569554E0
1.016804130E0,-6.879365444E-2,9.712766647E0,-4.995017126E-2,9.713138707E0
1.019229963E0,-8.075776696E-2,9.696016312E0,-5.952146277E-2,9.696535306E0
1.021655849E0,-8.793623000E-2,9.715159416E0,-5.234299600E-2,9.715698382E0
1.024081734E0,-8.075776696E-2,9.698409081E0,-2.602194622E-2,9.698780215E0
1.026507620E0,-1.286142170E-1,9.703194618E0,-5.473581702E-2,9.704201329E0
1.028933505E0,-1.046859920E-1,9.691230774E0,-5.712864175E-2,9.691964546E0
1.031359390E0,-5.922235921E-2,9.698409081E0,-4.277170449E-2,9.698684210E0
1.033785276E0,-8.315058798E-2,9.700801849E0,-6.430710852E-2,9.701371344E0
1.036211161E0,-7.357929647E-2,9.717552185E0,-4.277170449E-2,9.717924871E0
1.038637047E0,-9.511470050E-2,9.691230774E0,-3.798605874E-2,9.691771957E0
1.041062932E0,-7.357929647E-2,9.681659698E0,-3.798605874E-2,9.682013808E0
1.043488817E0,-8.554340899E-2,9.696016312E0,-5.952146277E-2,9.696576344E0
1.045914651E0,-8.315058798E-2,9.710372925E0,-6.669992954E-2,9.710957998E0
1.048340536E0,-8.075776696E-2,9.727123260E0,-5.473581702E-2,9.727612490E0
1.050766422E0,-9.032905847E-2,9.688838005E0,-3.798605874E-2,9.689333525E0
1.053192307E0,-7.357929647E-2,9.715159416E0,-4.277170449E-2,9.715532194E0
1.055618192E0,-7.118647546E-2,9.707980156E0,-5.234299600E-2,9.708382255E0
1.058044078E0,-7.836493850E-2,9.691230774E0,-5.712864175E-2,9.691715981E0
1.060469963E0,-9.032905847E-2,9.703194618E0,-5.712864175E-2,9.703783222E0
1.062895849E0,-8.315058798E-2,9.719944954E0,-5.712864175E-2,9.720468487E0
1.065321734E0,-8.315058798E-2,9.688838005E0,-6.191428751E-2,9.689392617E0
1.067747620E0,-9.750752151E-2,9.679266930E0,-4.277170449E-2,9.679852552E0
1.070173505E0,-7.836493850E-2,9.691230774E0,-4.516452923E-2,9.691652842E0
1.072599390E0,-9.272187948E-2,9.703194618E0,-4.037888348E-2,9.703721637E0
1.075025224E0,-8.075776696E-2,9.686445236E0,-3.798605874E-2,9.686856357E0
1.077451109E0,-7.357929647E-2,9.693623543E0,-4.516452923E-2,9.694008002E0
1.079876995E0,-8.075776696E-2,9.715159416E0,-4.755735025E-2,9.715611458E0
1.082302880E0,-7.118647546E-2,9.698409081E0,-4.277170449E-2,9.698764644E0
1.084728765E0,-6.640082598E-2,9.722337723E0,-4.037888348E-2,9.722648318E0
1.087154651E0,-9.511470050E-2,9.717552185E0,-4.995017126E-2,9.718146032E0
1.089580536E0,-7.118647546E-2,9.698409081E0,-4.995017126E-2,9.698798958E0
1.092006422E0,-8.554340899E-2,9.700801849E0,-5.473581702E-2,9.701333424E0
1.094432307E0,-8.315058798E-2,9.693623543E0,-4.277170449E-2,9.694074521E0
1.096858140E0,-7.357929647E-2,9.722337723E0,-5.473581702E-2,9.722770218E0
1.099284026E0,-9.272187948E-2,9.696016312E0,-6.430710852E-2,9.696672886E0
1.101709911E0,-6.400800496E-2,9.696016312E0,-4.516452923E-2,9.696332769E0
1.104135797E0,-9.750752151E-2,9.719944954E0,-4.277170449E-2,9.720528126E0
1.106561682E0,-9.511470050E-2,9.707980156E0,-5.234299600E-2,9.708587194E0
1.108987567E0,-1.022931710E-1,9.688838005E0,-6.669992954E-2,9.689607560E0
1.111413453E0,-8.793623000E-2,9.707980156E0,-5.712864175E-2,9.708546501E0
1.113839338E0,-8.554340899E-2,9.669695854E0,-7.627122104E-2,9.670375013E0
1.116265224E0,-6.879365444E-2,9.681659698E0,-6.430710852E-2,9.682117665E0
1.118691109E0,-7.357929647E-2,9.722337723E0,-5.473581702E-2,9.722770218E0
1.121116995E0,-7.836493850E-2,9.698409081E0,-6.669992954E-2,9.698955028E0
1.123542880E0,-7.118647546E-2,9.688838005E0,-4.277170449E-2,9.689193920E0
1.125968713E0,-9.272187948E-2,9.703194618E0,-4.037888348E-2,9.703721637E0
1.128394599E0,-9.032905847E-2,9.703194618E0,-4.995017126E-2,9.703743616E0
1.130820484E0,-7.597211748E-2,9.676874161E0,-5.712864175E-2,9.677341007E0
1.133246370E0,-8.554340899E-2,9.707980156E0,-3.798605874E-2,9.708431352E0
1.135672255E0,-6.640082598E-2,9.696016312E0,-5.952146277E-2,9.696426362E0
1.138098140E0,-7.836493850E-2,9.698409081E0,-4.995017126E-2,9.698854302E0
1.140524026E0,-8.793623000E-2,9.693623543E0,-4.277170449E-2,9.694116751E0
1.142949911E0,-1.070788130E-1,9.693623543E0,-6.430710852E-2,9.694428228E0
1.145375797E0,-6.161518395E-2,9.705587387E0,-6.191428751E-2,9.705980442E0
1.147801682E0,-7.357929647E-2,9.691230774E0,-5.712864175E-2,9.691678467E0
1.150227567E0,-4.965107143E-2,9.710372925E0,-5.952146277E-2,9.710682281E0
1.152653401E0,-9.990034252E-2,9.696016312E0,-4.995017126E-2,9.696659601E0
1.155079286E0,-9.511470050E-2,9.681659698E0,-6.669992954E-2,9.682356645E0
1.157505172E0,-7.118647546E-2,9.710372925E0,-6.191428751E-2,9.710831233E0
1.159931057E0,-1.070788130E-1,9.691230774E0,-4.037888348E-2,9.691906430E0
1.162356942E0,-9.272187948E-2,9.698409081E0,-4.516452923E-2,9.698957463E0
1.164782828E0,-7.118647546E-2,9.696016312E0,-5.473581702E-2,9.696432119E0
1.167208713E0,-8.793623000E-2,9.705587387E0,-2.602194622E-2,9.706020629E0
1.169634599E0,-7.357929647E-2,9.700801849E0,-3.798605874E-2,9.701155260E0
1.172060484E0,-7.836493850E-2,9.688838005E0,-4.995017126E-2,9.689283667E0
1.174486370E0,-6.879365444E-2,9.698409081E0,-4.755735025E-2,9.698769662E0
1.176912255E0,-6.161518395E-2,9.691230774E0,-3.320041299E-2,9.691483509E0
1.179338088E0,-8.315058798E-2,9.703194618E0,-4.755735025E-2,9.703667426E0
1.181763974E0,-6.161518395E-2,9.729516029E0,-4.995017126E-2,9.729839342E0
1.184189859E0,-8.315058798E-2,9.705587387E0,-4.037888348E-2,9.706027560E0
1.186615745E0,-9.272187948E-2,9.703194618E0,-3.320041299E-2,9.703694421E0
1.189041630E0,-7.597211748E-2,9.722337723E0,-3.559323773E-2,9.722699699E0
1.191467515E0,-7.597211748E-2,9.705587387E0,-3.320041299E-2,9.705941508E0
1.193893401E0,-8.075776696E-2,9.722337723E0,-3.559323773E-2,9.722738271E0
1.196319286E0,-9.272187948E-2,9.688838005E0,-3.559323773E-2,9.689347043E0
1.198745172E0,-7.836493850E-2,9.712766647E0,-4.516452923E-2,9.713187780E0
1.201171057E0,-8.075776696E-2,9.696016312E0,-2.362912335E-2,9.696381411E0
1.203596890E0,-9.272187948E-2,9.696016312E0,-3.320041299E-2,9.696516484E0
1.206022776E0,-7.357929647E-2,9.691230774E0,-4.516452923E-2,9.691615328E0
1.208448661E0,-7.118647546E-2,9.705587387E0,-5.952146277E-2,9.706030952E0
1.210874547E0,-9.750752151E-2,9.705587387E0,-5.952146277E-2,9.706259684E0
1.213300432E0,-8.554340899E-2,9.674481392E0,-4.995017126E-2,9.674988522E0
1.215726317E0,-8.075776696E-2,9.693623543E0,-5.712864175E-2,9.694128269E0
1.218152203E0,-7.357929647E-2,9.727123260E0,-5.952146277E-2,9.727583649E0
1.220578088E0,-7.118647546E-2,9.700801849E0,-6.191428751E-2,9.701260610E0
1.223003974E0,-6.161518395E-2,9.722337723E0,-6.669992954E-2,9.722761753E0
1.225429859E0,-1.094716340E-1,9.707980156E0,-7.148557901E-2,9.708860537E0
1.227855745E0,-9.032905847E-2,9.688838005E0,-6.909275055E-2,9.689505407E0
1.230281578E0,-1.118644550E-1,9.688838005E0,-4.516452923E-2,9.689589020E0
1.232707463E0,-8.315058798E-2,9.703194618E0,-4.995017126E-2,9.703679448E0
1.235133349E0,-7.836493850E-2,9.684052467E0,-6.191428751E-2,9.684567447E0
1.237559234E0,-7.836493850E-2,9.681659698E0,-6.191428751E-2,9.682174805E0
1.239985120E0,-8.554340899E-2,9.691230774E0,-3.798605874E-2,9.691682750E0
1.242411005E0,-9.511470050E-2,9.672088623E0,-3.320041299E-2,9.672613267E0
1.244836890E0,-9.272187948E-2,9.669695854E0,-4.277170449E-2,9.670234986E0
1.247262776E0,-9.511470050E-2,9.686445236E0,-3.320041299E-2,9.686969102E0
1.249688661E0,-9.272187948E-2,9.703194618E0,-5.234299600E-2,9.703778797E0
1.252114547E0,-7.357929647E-2,9.693623543E0,-5.234299600E-2,9.694044104E0
1.254540432E0,-9.511470050E-2,9.703194618E0,-4.037888348E-2,9.703744796E0
1.256966317E0,-8.793623000E-2,9.700801849E0,-4.995017126E-2,9.701328998E0
1.259392151E0,-5.682953820E-2,9.700801849E0,-4.755735025E-2,9.701084878E0
1.261818036E0,-8.315058798E-2,9.717552185E0,-4.516452923E-2,9.718012879E0
1.264243922E0,-8.554340899E-2,9.681659698E0,-5.952146277E-2,9.682220561E0
1.266669807E0,-8.554340899E-2,9.691230774E0,-3.798605874E-2,9.691682750E0
1.269095692E0,-8.554340899E-2,9.693623543E0,-3.320041299E-2,9.694057836E0
1.271521578E0,-1.022931710E-1,9.703194618E0,-6.909275055E-2,9.703979776E0
1.273947463E0,-7.836493850E-2,9.696016312E0,-6.191428751E-2,9.696530656E0
1.276373349E0,-1.070788130E-1,9.674481392E0,-7.148557901E-2,9.675338044E0
1.278799234E0,-6.879365444E-2,9.696016312E0,-4.995017126E-2,9.696389014E0
1.281225067E0,-7.836493850E-2,9.693623543E0,-3.559323773E-2,9.694005639E0
1.283650953E0,-5.204389244E-2,9.707980156E0,-6.669992954E-2,9.708348786E0
1.286076838E0,-6.161518395E-2,9.700801849E0,-5.712864175E-2,9.701165736E0
1.288502724E0,-8.793623000E-2,9.710372925E0,-6.669992954E-2,9.711000154E0
1.290928609E0,-8.793623000E-2,9.696016312E0,-4.037888348E-2,9.696499139E0
1.293354495E0,-6.161518395E-2,9.693623543E0,-6.191428751E-2,9.694017083E0
1.295780380E0,-6.161518395E-2,9.696016312E0,-5.234299600E-2,9.696353363E0
1.298206265E0,-9.750752151E-2,9.722337723E0,-3.320041299E-2,9.722883357E0
1.300632151E0,-8.793623000E-2,9.707980156E0,-5.234299600E-2,9.708519520E0
1.303058036E0,-8.315058798E-2,9.679266930E0,-4.037888348E-2,9.679708300E0
1.305483870E0,-8.554340899E-2,9.686445236E0,-5.473581702E-2,9.686977599E0
1.307909807E0,-8.075776696E-2,9.698409081E0,-3.320041299E-2,9.698802131E0
1.310335640E0,-7.357929647E-2,9.688838005E0,-5.712864175E-2,9.689285809E0
1.312761526E0,-9.511470050E-2,9.698409081E0,-5.952146277E-2,9.699058114E0
1.315187411E0,-6.400800496E-2,9.674481392E0,-5.473581702E-2,9.674847970E0
1.317613297E0,-5.922235921E-2,9.681659698E0,-6.669992954E-2,9.682070578E0
1.320039182E0,-8.554340899E-2,9.700801849E0,-2.602194622E-2,9.701213910E0
1.322465067E0,-8.315058798E-2,9.712766647E0,-4.277170449E-2,9.713216737E0
1.324890953E0,-9.990034252E-2,9.696016312E0,-4.516452923E-2,9.696636130E0
1.327316838E0,-6.879365444E-2,9.679266930E0,-2.602194622E-2,9.679546374E0
1.329742724E0,-7.357929647E-2,9.722337723E0,-3.559323773E-2,9.722681296E0
1.332168609E0,-7.836493850E-2,9.693623543E0,-4.755735025E-2,9.694056950E0
1.334594495E0,-7.357929647E-2,9.698409081E0,-1.884347759E-2,9.698706495E0
1.337020380E0,-8.075776696E-2,9.712766647E0,-3.320041299E-2,9.713159117E0
1.339446213E0,-7.118647546E-2,9.698409081E0,-5.234299600E-2,9.698811576E0
1.341872099E0,-1.022931710E-1,9.698409081E0,-4.277170449E-2,9.699042840E0
1.344297984E0,-9.990034252E-2,9.686445236E0,-4.516452923E-2,9.687065667E0
1.346723870E0,-9.511470050E-2,9.707980156E0,-4.755735025E-2,9.708562572E0
1.349149755E0,-6.400800496E-2,9.698409081E0,-5.952146277E-2,9.698802943E0
1.351575640E0,-5.682953820E-2,9.710372925E0,-7.148557901E-2,9.710802342E0
1.354001526E0,-6.400800496E-2,9.696016312E0,-4.277170449E-2,9.696321919E0
1.356427411E0,-7.597211748E-2,9.688838005E0,-4.516452923E-2,9.689241120E0
1.358853297E0,-9.032905847E-2,9.676874161E0,-5.234299600E-2,9.677437298E0
1.361279182E0,-9.272187948E-2,9.691230774E0,-5.473581702E-2,9.691828892E0
1.363705015E0,-7.597211748E-2,9.691230774E0,-5.712864175E-2,9.691696929E0
1.366130901E0,-7.357929647E-2,9.707980156E0,-4.037888348E-2,9.708342962E0
1.368556786E0,-9.990034252E-2,9.703194618E0,-5.473581702E-2,9.703863245E0
1.370982672E0,-8.315058798E-2,9.696016312E0,-4.755735025E-2,9.696489470E0
1.373408557E0,-9.990034252E-2,9.679266930E0,-6.909275055E-2,9.680029038E0
1.375834442E0,-9.032905847E-2,9.703194618E0,-5.952146277E-2,9.703797604E0
1.378260328E0,-6.400800496E-2,9.686445236E0,-5.712864175E-2,9.686825178E0
1.380686213E0,-8.793623000E-2,9.707980156E0,-5.952146277E-2,9.708560877E0
1.383112099E0,-7.597211748E-2,9.705587387E0,-4.277170449E-2,9.705978967E0
1.385537984E0,-9.272187948E-2,9.707980156E0,-5.234299600E-2,9.708564046E0
1.387963817E0,-8.793623000E-2,9.712766647E0,-4.037888348E-2,9.713248642E0
1.390389703E0,-9.511470050E-2,9.736694336E0,-4.995017126E-2,9.737287015E0
1.392815588E0,-9.511470050E-2,9.705587387E0,-4.516452923E-2,9.706158518E0
1.395241474E0,-6.879365444E-2,9.700801849E0,-4.277170449E-2,9.701140062E0
1.397667359E0,-9.511470050E-2,9.681659698E0,-4.516452923E-2,9.682232240E0
1.400093245E0,-7.357929647E-2,9.684052467E0,-5.712864175E-2,9.684500492E0
1.402519130E0,-7.597211748E-2,9.688838005E0,-6.909275055E-2,9.689382202E0
1.404945015E0,-8.075776696E-2,9.712766647E0,-5.952146277E-2,9.713284747E0
1.407370901E0,-8.315058798E-2,9.688838005E0,-5.234299600E-2,9.689336185E0
1.409796786E0,-9.032905847E-2,9.707980156E0,-4.755735025E-2,9.708516867E0
1.412222672E0,-7.357929647E-2,9.679266930E0,-4.755735025E-2,9.679663419E0
1.414648505E0,-8.554340899E-2,9.681659698E0,-4.277170449E-2,9.682132080E0
1.417074390E0,-6.161518395E-2,9.712766647E0,-5.234299600E-2,9.713103117E0
1.419500276E0,-7.597211748E-2,9.717552185E0,-4.755735025E-2,9.717965524E0
1.421926161E0,-8.554340899E-2,9.686445236E0,-5.234299600E-2,9.686964374E0
1.424352047E0,-8.793623000E-2,9.719944954E0,-4.037888348E-2,9.720426593E0
1.426777932E0,-6.879365444E-2,9.703194618E0,-5.234299600E-2,9.703579657E0
1.429203817E0,-8.315058798E-2,9.712766647E0,-5.952146277E-2,9.713304936E0
1.431629703E0,-6.640082598E-2,9.717552185E0,-3.559323773E-2,9.717844227E0
1.434055588E0,-7.597211748E-2,9.700801849E0,-7.387840003E-2,9.701380639E0
1.436481474E0,-8.075776696E-2,9.696016312E0,-6.430710852E-2,9.696565863E0
1.438907359E0,-8.793623000E-2,9.703194618E0,-5.473581702E-2,9.703747451E0
1.441333192E0,-5.682953820E-2,9.703194618E0,-4.755735025E-2,9.703477578E0
1.443759078E0,-8.075776696E-2,9.703194618E0,-5.234299600E-2,9.703671852E0
1.446184963E0,-7.836493850E-2,9.688838005E0,-3.798605874E-2,9.689229376E0
1.448610849E0,-7.597211748E-2,9.688838005E0,-5.712864175E-2,9.689304275E0
1.451036734E0,-4.965107143E-2,9.731908798E0,-5.473581702E-2,9.732189378E0
1.453462620E0,-8.793623000E-2,9.700801849E0,-5.712864175E-2,9.701368614E0
1.455888505E0,-8.793623000E-2,9.688838005E0,-4.755735025E-2,9.689353764E0
1.458314390E0,-9.750752151E-2,9.700801849E0,-6.909275055E-2,9.701537922E0
1.460740276E0,-7.118647546E-2,9.696016312E0,-6.191428751E-2,9.696475298E0
1.463166161E0,-5.682953820E-2,9.696016312E0,-5.712864175E-2,9.696351148E0
1.465592047E0,-9.272187948E-2,9.719944954E0,-6.430710852E-2,9.720599912E0
1.468017880E0,-8.075776696E-2,9.705587387E0,-5.473581702E-2,9.706077702E0
1.470443765E0,-9.032905847E-2,9.696016312E0,-5.952146277E-2,9.696619744E0
1.472869651E0,-1.070788130E-1,9.700801849E0,-5.952146277E-2,9.701575398E0
1.475295536E0,-1.022931710E-1,9.703194618E0,-4.277170449E-2,9.703828065E0
1.477721422E0,-8.315058798E-2,9.691230774E0,-2.841476910E-2,9.691629137E0
1.480147307E0,-8.075776696E-2,9.700801849E0,-4.277170449E-2,9.701232280E0
1.482573192E0,-8.315058798E-2,9.712766647E0,-5.473581702E-2,9.713276789E0
1.484999078E0,-9.511470050E-2,9.693623543E0,-4.516452923E-2,9.694195378E0
1.487424963E0,-7.118647546E-2,9.710372925E0,-3.080759197E-2,9.710682724E0
1.489850849E0,-9.032905847E-2,9.717552185E0,-6.669992954E-2,9.718200898E0
1.492276734E0,-7.357929647E-2,9.710372925E0,-3.559323773E-2,9.710716922E0
1.494702567E0,-9.032905847E-2,9.698409081E0,-3.320041299E-2,9.698886549E0
1.497128453E0,-1.070788130E-1,9.698409081E0,-4.755735025E-2,9.699116778E0
1.499554338E0,-9.511470050E-2,9.703194618E0,-3.798605874E-2,9.703735134E0
1.501980224E0,-1.094716340E-1,9.715159416E0,-4.516452923E-2,9.715881141E0
1.504406109E0,-9.750752151E-2,9.710372925E0,-5.952146277E-2,9.711044890E0
1.506831995E0,-7.118647546E-2,9.698409081E0,-6.669992954E-2,9.698899684E0
1.509257880E0,-1.022931710E-1,9.707980156E0,-5.712864175E-2,9.708687155E0
1.511683765E0,-5.922235921E-2,9.715159416E0,-6.430710852E-2,9.715552747E0
1.514109651E0,-6.161518395E-2,9.686445236E0,-5.712864175E-2,9.686809662E0
1.516535536E0,-8.793623000E-2,9.715159416E0,-5.234299600E-2,9.715698382E0
1.518961422E0,-6.161518395E-2,9.710372925E0,-7.387840003E-2,9.710849437E0
1.521387307E0,-7.597211748E-2,9.698409081E0,-4.995017126E-2,9.698835264E0
1.523813140E0,-7.357929647E-2,9.712766647E0,-6.191428751E-2,9.713242674E0
1.526239026E0,-7.357929647E-2,9.696016312E0,-5.952146277E-2,9.696478177E0
1.528664911E0,-7.597211748E-2,9.722337723E0,-4.037888348E-2,9.722718396E0
1.531090797E0,-9.032905847E-2,9.703194618E0,-5.952146277E-2,9.703797604E0
1.533516682E0,-9.032905847E-2,9.693623543E0,-7.387840003E-2,9.694325905E0
1.535942567E0,-9.990034252E-2,9.696016312E0,-3.559323773E-2,9.696596273E0
1.538368453E0,-6.161518395E-2,9.698409081E0,-5.712864175E-2,9.698773057E0
1.540794338E0,-8.315058798E-2,9.703194618E0,-4.516452923E-2,9.703655994E0
1.543220224E0,-6.640082598E-2,9.700801849E0,-4.516452923E-2,9.701134234E0
1.545646109E0,-6.161518395E-2,9.693623543E0,-3.320041299E-2,9.693876216E0
1.548071942E0,-7.118647546E-2,9.691230774E0,-2.362912335E-2,9.691521024E0
1.550497828E0,-3.768695518E-2,9.691230774E0,-3.320041299E-2,9.691360920E0
1.552923713E0,-5.922235921E-2,9.684052467E0,-4.037888348E-2,9.684317732E0
1.555349599E0,-1.022931710E-1,9.705587387E0,-2.841476910E-2,9.706168030E0
1.557775484E0,-5.443671346E-2,9.712766647E0,-4.995017126E-2,9.713047633E0
1.560201370E0,-6.161518395E-2,9.696016312E0,-3.798605874E-2,9.696286490E0
1.562627255E0,-9.272187948E-2,9.698409081E0,-3.080759197E-2,9.698901234E0
1.565053140E0,-8.793623000E-2,9.717552185E0,-2.602194622E-2,9.717984894E0
1.567479026E0,-9.990034252E-2,9.712766647E0,-3.798605874E-2,9.713354671E0
1.569904911E0,-8.075776696E-2,9.719944954E0,-3.559323773E-2,9.720345601E0
1.572330797E0,-6.400800496E-2,9.703194618E0,-4.995017126E-2,9.703534297E0
1.574756630E0,-6.879365444E-2,9.717552185E0,-5.473581702E-2,9.717949838E0
1.577182515E0,-7.118647546E-2,9.712766647E0,-4.755735025E-2,9.713143938E0
1.579608401E0,-7.597211748E-2,9.746265411E0,-6.191428751E-2,9.746758159E0
1.582034286E0,-8.075776696E-2,9.703194618E0,-4.995017126E-2,9.703659239E0
1.584460172E0,-9.990034252E-2,9.691230774E0,-5.712864175E-2,9.691914036E0
1.586886057E0,-9.032905847E-2,9.696016312E0,-6.430710852E-2,9.696650301E0
1.589311942E0,-9.750752151E-2,9.712766647E0,-5.952146277E-2,9.713438447E0
1.591737828E0,-9.032905847E-2,9.698409081E0,-6.669992954E-2,9.699059074E0
1.594163713E0,-9.032905847E-2,9.691230774E0,-4.995017126E-2,9.691780449E0
1.596589599E0,-7.836493850E-2,9.684052467E0,-4.516452923E-2,9.684474848E0
1.599015484E0,-6.879365444E-2,9.724730492E0,-5.952146277E-2,9.725155963E0
1.601441317E0,-7.836493850E-2,9.705587387E0,-3.798605874E-2,9.705978082E0
1.603867203E0,-9.511470050E-2,9.705587387E0,-3.798605874E-2,9.706127769E0
1.606293088E0,-6.640082598E-2,9.707980156E0,-4.995017126E-2,9.708335738E0
1.608718974E0,-8.554340899E-2,9.696016312E0,-4.516452923E-2,9.696498844E0
1.611144859E0,-5.922235921E-2,9.703194618E0,-4.755735025E-2,9.703491886E0
1.613570745E0,-6.879365444E-2,9.688838005E0,-4.755735025E-2,9.689198943E0
1.615996630E0,-4.965107143E-2,9.696016312E0,-4.995017126E-2,9.696272096E0
1.618422515E0,-7.118647546E-2,9.679266930E0,-4.037888348E-2,9.679612919E0
1.620848401E0,-5.682953820E-2,9.719944954E0,-2.841476910E-2,9.720152617E0
1.623274286E0,-1.094716340E-1,9.710372925E0,-4.037888348E-2,9.711073928E0
1.625700172E0,-7.597211748E-2,9.724730492E0,-4.037888348E-2,9.725111071E0
1.628126005E0,-7.118647546E-2,9.724730492E0,-4.755735025E-2,9.725107318E0
1.630551890E0,-5.682953820E-2,9.703194618E0,-4.755735025E-2,9.703477578E0
1.632977776E0,-9.511470050E-2,9.700801849E0,-5.473581702E-2,9.701422542E0
1.635403661E0,-8.075776696E-2,9.696016312E0,-4.277170449E-2,9.696446955E0
1.637829547E0,-8.315058798E-2,9.681659698E0,-4.755735025E-2,9.682133558E0
1.640255432E0,-1.070788130E-1,9.696016312E0,-5.952146277E-2,9.696790242E0
1.642681317E0,-7.357929647E-2,9.693623543E0,-4.277170449E-2,9.693997149E0
1.645107203E0,-7.357929647E-2,9.700801849E0,-7.387840003E-2,9.701362196E0
1.647533088E0,-7.357929647E-2,9.700801849E0,-7.387840003E-2,9.701362196E0
1.649958974E0,-7.118647546E-2,9.698409081E0,-5.952146277E-2,9.698852974E0
1.652384859E0,-8.793623000E-2,9.719944954E0,-4.516452923E-2,9.720447650E0
1.654810692E0,-9.272187948E-2,9.722337723E0,-4.755735025E-2,9.722896165E0
1.657236578E0,-7.357929647E-2,9.703194618E0,-6.191428751E-2,9.703671114E0
1.659662463E0,-1.070788130E-1,9.696016312E0,-5.712864175E-2,9.696775849E0
1.662088349E0,-8.793623000E-2,9.686445236E0,-7.866404206E-2,9.687163781E0
1.664514234E0,-6.161518395E-2,9.691230774E0,-4.277170449E-2,9.691521024E0
1.666940120E0,-7.357929647E-2,9.705587387E0,-3.559323773E-2,9.705931553E0
1.669366005E0,-5.204389244E-2,9.705587387E0,-3.798605874E-2,9.705801257E0
1.671791890E0,-8.315058798E-2,9.715159416E0,-4.995017126E-2,9.715643649E0
1.674217776E0,-7.597211748E-2,9.688838005E0,-2.362912335E-2,9.689164669E0
1.676643661E0,-8.554340899E-2,9.703194618E0,-4.037888348E-2,9.703655699E0
1.679069547E0,-8.793623000E-2,9.696016312E0,-6.669992954E-2,9.696644470E0
1.681495380E0,-6.879365444E-2,9.722337723E0,-5.473581702E-2,9.722735180E0
1.683921265E0,-5.443671346E-2,9.715159416E0,-4.516452923E-2,9.715416907E0
1.686347151E0,-7.118647546E-2,9.712766647E0,-6.191428751E-2,9.713224842E0
1.688773036E0,-9.990034252E-2,9.705587387E0,-5.712864175E-2,9.706269638E0
1.691198922E0,-9.032905847E-2,9.698409081E0,-5.473581702E-2,9.698984176E0
1.693624807E0,-5.922235921E-2,9.691230774E0,-4.277170449E-2,9.691506107E0
1.696050692E0,-7.357929647E-2,9.688838005E0,-4.755735025E-2,9.689234103E0
1.698476578E0,-8.554340899E-2,9.707980156E0,-4.995017126E-2,9.708485536E0
1.700902463E0,-7.836493850E-2,9.710372925E0,-4.277170449E-2,9.710783327E0
1.703328349E0,-8.793623000E-2,9.719944954E0,-4.755735025E-2,9.720459063E0
1.705754234E0,-9.750752151E-2,9.724730492E0,-4.995017126E-2,9.725347596E0
1.708180067E0,-9.272187948E-2,9.722337723E0,-5.712864175E-2,9.722947692E0
1.710605953E0,-8.075776696E-2,9.705587387E0,-6.191428751E-2,9.706120838E0
1.713031838E0,-8.075776696E-2,9.712766647E0,-5.952146277E-2,9.713284747E0
1.715457724E0,-1.022931710E-1,9.703194618E0,-6.669992954E-2,9.703963034E0
1.717883609E0,-7.836493850E-2,9.688838005E0,-6.191428751E-2,9.689352730E0
1.720309495E0,-8.075776696E-2,9.715159416E0,-3.798605874E-2,9.715569321E0
1.722735380E0,-9.511470050E-2,9.703194618E0,-5.234299600E-2,9.703801956E0
1.725161265E0,-8.075776696E-2,9.693623543E0,-6.909275055E-2,9.694206157E0
1.727587151E0,-8.075776696E-2,9.686445236E0,-6.669992954E-2,9.687011511E0
1.730013036E0,-8.075776696E-2,9.693623543E0,-5.234299600E-2,9.694101247E0
1.732438922E0,-7.597211748E-2,9.693623543E0,-5.712864175E-2,9.694089583E0
1.734864807E0,-5.682953820E-2,9.707980156E0,-4.755735025E-2,9.708262976E0
1.737290640E0,-7.118647546E-2,9.705587387E0,-5.234299600E-2,9.705989585E0
1.739716526E0,-9.511470050E-2,9.696016312E0,-5.712864175E-2,9.696651113E0
1.742142411E0,-9.032905847E-2,9.679266930E0,-6.191428751E-2,9.679886415E0
1.744568297E0,-7.118647546E-2,9.703194618E0,-6.669992954E-2,9.703684980E0
1.746994182E0,-8.075776696E-2,9.719944954E0,-4.516452923E-2,9.720385361E0
1.749420067E0,-7.597211748E-2,9.707980156E0,-6.430710852E-2,9.708490401E0
1.751845953E0,-8.315058798E-2,9.700801849E0,-6.669992954E-2,9.701387500E0
1.754271838E0,-6.640082598E-2,9.710372925E0,-4.755735025E-2,9.710716406E0
1.756697724E0,-9.272187948E-2,9.703194618E0,-4.277170449E-2,9.703731889E0
1.759123609E0,-7.118647546E-2,9.681659698E0,-3.320041299E-2,9.681978326E0
1.761549495E0,-8.554340899E-2,9.686445236E0,-3.798605874E-2,9.686897436E0
1.763975328E0,-8.075776696E-2,9.710372925E0,-4.277170449E-2,9.710802931E0
1.766401213E0,-6.640082598E-2,9.719944954E0,-3.559323773E-2,9.720236924E0
1.768827099E0,-7.597211748E-2,9.717552185E0,-3.559323773E-2,9.717914340E0
1.771252984E0,-6.879365444E-2,9.703194618E0,-3.080759197E-2,9.703487387E0
1.773678870E0,-7.357929647E-2,9.724730492E0,-3.559323773E-2,9.725073981E0
1.776104755E0,-9.990034252E-2,9.722337723E0,-3.080759197E-2,9.722899772E0
1.778530640E0,-7.357929647E-2,9.729516029E0,-4.037888348E-2,9.729878033E0
1.780956526E0,-8.075776696E-2,9.703194618E0,-3.798605874E-2,9.703605029E0
1.783382411E0,-7.836493850E-2,9.707980156E0,-4.755735025E-2,9.708412922E0
1.785808297E0,-7.836493850E-2,9.703194618E0,-5.473581702E-2,9.703665435E0
1.788234130E0,-1.022931710E-1,9.715159416E0,-4.995017126E-2,9.715826336E0
1.790660015E0,-6.640082598E-2,9.693623543E0,-6.669992954E-2,9.694080428E0
1.793085901E0,-9.272187948E-2,9.707980156E0,-8.105687052E-2,9.708761315E0
1.795511786E0,-1.046859920E-1,9.691230774E0,-7.387840003E-2,9.692077749E0
1.797937672E0,-9.750752151E-2,9.669695854E0,-6.191428751E-2,9.670385670E0
1.800363557E0,-8.075776696E-2,9.691230774E0,-5.712864175E-2,9.691735624E0
1.802789442E0,-6.879365444E-2,9.698409081E0,-7.627122104E-2,9.698952962E0
1.805215328E0,-7.597211748E-2,9.698409081E0,-7.148557901E-2,9.698970082E0
1.807641213E0,-6.640082598E-2,9.696016312E0,-7.627122104E-2,9.696543646E0
1.810067099E0,-9.032905847E-2,9.712766647E0,-6.909275055E-2,9.713432405E0
1.812492984E0,-6.161518395E-2,9.712766647E0,-6.669992954E-2,9.713191095E0
1.814918870E0,-7.118647546E-2,9.698409081E0,-5.712864175E-2,9.698838585E0
1.817344703E0,-8.315058798E-2,9.696016312E0,-4.516452923E-2,9.696478029E0
1.819770588E0,-1.046859920E-1,9.705587387E0,-4.516452923E-2,9.706257029E0
1.822196474E0,-8.793623000E-2,9.681659698E0,-5.473581702E-2,9.682213761E0
1.824622359E0,-7.118647546E-2,9.717552185E0,-5.712864175E-2,9.717980843E0
1.827048245E0,-6.879365444E-2,9.722337723E0,-4.277170449E-2,9.722675186E0
1.829474130E0,-8.075776696E-2,9.698409081E0,-2.123630047E-2,9.698768555E0
1.831900015E0,-6.400800496E-2,9.696016312E0,-4.037888348E-2,9.696311659E0
1.834325901E0,-6.879365444E-2,9.710372925E0,-4.277170449E-2,9.710710804E0
1.836751786E0,-8.075776696E-2,9.681659698E0,-4.277170449E-2,9.682090980E0
1.839177672E0,-7.836493850E-2,9.681659698E0,-2.841476910E-2,9.682018539E0
1.841603557E0,-6.640082598E-2,9.698409081E0,-6.191428751E-2,9.698834009E0
1.844029390E0,-9.511470050E-2,9.696016312E0,-4.755735025E-2,9.696599446E0
1.846455276E0,-9.511470050E-2,9.707980156E0,-4.755735025E-2,9.708562572E0
1.848881161E0,-6.161518395E-2,9.696016312E0,-6.909275055E-2,9.696458248E0
1.851307047E0,-7.357929647E-2,9.688838005E0,-3.559323773E-2,9.689182766E0
1.853732932E0,-8.554340899E-2,9.688838005E0,-6.430710852E-2,9.689429032E0
1.856158817E0,-5.922235921E-2,9.691230774E0,-7.148557901E-2,9.691675365E0
1.858584703E0,-9.032905847E-2,9.698409081E0,-5.712864175E-2,9.698997975E0
1.861010588E0,-7.597211748E-2,9.707980156E0,-5.712864175E-2,9.708445506E0
1.863436474E0,-7.836493850E-2,9.705587387E0,-6.430710852E-2,9.706116783E0
1.865862359E0,-9.750752151E-2,9.691230774E0,-6.669992954E-2,9.691950810E0
1.868288245E0,-4.486542568E-2,9.696016312E0,-4.755735025E-2,9.696236740E0
1.870714078E0,-7.597211748E-2,9.691230774E0,-4.516452923E-2,9.691633790E0
1.873139963E0,-8.315058798E-2,9.705587387E0,-4.037888348E-2,9.706027560E0
1.875565849E0,-9.750752151E-2,9.705587387E0,-4.755735025E-2,9.706193690E0
1.877991734E0,-9.272187948E-2,9.710372925E0,-4.277170449E-2,9.710909798E0
1.880417620E0,-8.793623000E-2,9.688838005E0,-4.037888348E-2,9.689321190E0
1.882843505E0,-7.836493850E-2,9.688838005E0,-4.516452923E-2,9.689260177E0
1.885269390E0,-9.750752151E-2,9.696016312E0,-3.798605874E-2,9.696580994E0
1.887695276E0,-8.793623000E-2,9.700801849E0,-4.037888348E-2,9.701284438E0
1.890121161E0,-9.750752151E-2,9.698409081E0,-2.841476910E-2,9.698940860E0
1.892547047E0,-8.075776696E-2,9.696016312E0,-3.559323773E-2,9.696417947E0
1.894972932E0,-5.204389244E-2,9.672088623E0,-4.516452923E-2,9.672334089E0
1.897398765E0,-6.879365444E-2,9.703194618E0,-3.080759197E-2,9.703487387E0
1.899824651E0,-7.357929647E-2,9.691230774E0,-4.755735025E-2,9.691626774E0
1.902250536E0,-8.075776696E-2,9.710372925E0,-4.037888348E-2,9.710792687E0
1.904676422E0,-8.554340899E-2,9.722337723E0,-5.234299600E-2,9.722854944E0
1.907102307E0,-8.554340899E-2,9.717552185E0,-4.755735025E-2,9.718045063E0
1.909528192E0,-8.793623000E-2,9.693623543E0,-5.473581702E-2,9.694176921E0
1.911954078E0,-7.357929647E-2,9.712766647E0,-5.234299600E-2,9.713186380E0
1.914379963E0,-9.272187948E-2,9.715159416E0,-3.559323773E-2,9.715667075E0
1.916805849E0,-7.118647546E-2,9.705587387E0,-4.995017126E-2,9.705976976E0
1.919231734E0,-5.682953820E-2,9.700801849E0,-6.191428751E-2,9.701165883E0
1.921657620E0,-9.272187948E-2,9.698409081E0,-5.473581702E-2,9.699006756E0
1.924083453E0,-7.836493850E-2,9.703194618E0,-6.669992954E-2,9.703740297E0
1.926509338E0,-8.793623000E-2,9.700801849E0,-6.430710852E-2,9.701413542E0
1.928935224E0,-7.597211748E-2,9.710372925E0,-7.148557901E-2,9.710933235E0
1.931361109E0,-9.272187948E-2,9.686445236E0,-5.234299600E-2,9.687030425E0
1.933786995E0,-6.879365444E-2,9.700801849E0,-4.516452923E-2,9.701150907E0
1.936212880E0,-6.400800496E-2,9.727123260E0,-4.995017126E-2,9.727462103E0
1.938638765E0,-6.879365444E-2,9.729516029E0,-5.952146277E-2,9.729941292E0
1.941064651E0,-8.075776696E-2,9.715159416E0,-5.473581702E-2,9.715649248E0
1.943490536E0,-9.272187948E-2,9.712766647E0,-4.277170449E-2,9.713303388E0
1.945916422E0,-6.640082598E-2,9.707980156E0,-4.995017126E-2,9.708335738E0
1.948342307E0,-6.400800496E-2,9.717552185E0,-5.234299600E-2,9.717903955E0
1.950768192E0,-9.511470050E-2,9.734301567E0,-4.277170449E-2,9.734860206E0
1.953194026E0,-8.315058798E-2,9.700801849E0,-3.798605874E-2,9.701232575E0
1.955619911E0,-7.836493850E-2,9.691230774E0,-3.798605874E-2,9.691622048E0
1.958045797E0,-6.161518395E-2,9.712766647E0,-2.602194622E-2,9.712996938E0
1.960471682E0,-7.597211748E-2,9.696016312E0,-3.320041299E-2,9.696370782E0
1.962897567E0,-9.032905847E-2,9.696016312E0,-3.080759197E-2,9.696486001E0
1.965323453E0,-9.032905847E-2,9.712766647E0,-4.516452923E-2,9.713291673E0
1.967749338E0,-8.793623000E-2,9.700801849E0,-7.627122104E-2,9.701500224E0
1.970175224E0,-7.118647546E-2,9.724730492E0,-6.669992954E-2,9.725219768E0
1.972601109E0,-6.161518395E-2,9.712766647E0,-4.755735025E-2,9.713078507E0
1.975026995E0,-4.965107143E-2,9.703194618E0,-4.516452923E-2,9.703426759E0
1.977452828E0,-7.836493850E-2,9.707980156E0,-6.430710852E-2,9.708509421E0
1.979878713E0,-8.554340899E-2,9.691230774E0,-3.798605874E-2,9.691682750E0
1.982304599E0,-8.315058798E-2,9.686445236E0,-5.952146277E-2,9.686984987E0
1.984730484E0,-6.879365444E-2,9.700801849E0,-5.234299600E-2,9.701186983E0
1.987156370E0,-5.682953820E-2,9.698409081E0,-4.755735025E-2,9.698692179E0
1.989582255E0,-8.554340899E-2,9.710372925E0,-5.952146277E-2,9.710932129E0
1.992008140E0,-8.793623000E-2,9.705587387E0,-3.559323773E-2,9.706051009E0
1.994434026E0,-6.879365444E-2,9.693623543E0,-3.798605874E-2,9.693942072E0
1.996859911E0,-8.075776696E-2,9.715159416E0,-4.995017126E-2,9.715623465E0
1.999285797E0,-6.640082598E-2,9.710372925E0,-5.234299600E-2,9.710741022E0
2.001711682E0,-7.597211748E-2,9.712766647E0,-3.559323773E-2,9.713128980E0
2.004137567E0,-5.922235921E-2,9.703194618E0,-3.559323773E-2,9.703440625E0
2.006563401E0,-8.315058798E-2,9.684052467E0,-6.191428751E-2,9.684607353E0
2.008989286E0,-7.118647546E-2,9.698409081E0,-5.952146277E-2,9.698852974E0
2.011415172E0,-8.793623000E-2,9.722337723E0,-5.952146277E-2,9.722917586E0
2.013841057E0,-6.879365444E-2,9.696016312E0,-5.234299600E-2,9.696401635E0
2.016266942E0,-8.793623000E-2,9.705587387E0,-5.712864175E-2,9.706153872E0
2.018692828E0,-8.315058798E-2,9.703194618E0,-7.387840003E-2,9.703832121E0
2.021118713E0,-6.161518395E-2,9.693623543E0,-5.234299600E-2,9.693960677E0
2.023544599E0,-7.597211748E-2,9.688838005E0,-4.995017126E-2,9.689264609E0
2.025970484E0,-9.990034252E-2,9.712766647E0,-6.191428751E-2,9.713477719E0
2.028396370E0,-9.990034252E-2,9.691230774E0,-4.995017126E-2,9.691874381E0
2.030822255E0,-1.070788130E-1,9.712766647E0,-5.473581702E-2,9.713511097E0
2.033248088E0,-1.070788130E-1,9.722337723E0,-5.234299600E-2,9.723068264E0
2.035673974E0,-8.075776696E-2,9.717552185E0,-4.516452923E-2,9.717992700E0
2.038099859E0,-9.032905847E-2,9.715159416E0,-3.798605874E-2,9.715653594E0
2.040525745E0,-1.046859920E-1,9.710372925E0,-5.952146277E-2,9.711119621E0
2.042951630E0,-9.032905847E-2,9.715159416E0,-4.755735025E-2,9.715695730E0
2.045377515E0,-9.990034252E-2,9.712766647E0,-6.191428751E-2,9.713477719E0
2.047803401E0,-7.357929647E-2,9.696016312E0,-4.037888348E-2,9.696379566E0
2.050229286E0,-9.032905847E-2,9.679266930E0,-4.995017126E-2,9.679817284E0
2.052655172E0,-9.511470050E-2,9.681659698E0,-5.712864175E-2,9.682295441E0
2.055081057E0,-8.554340899E-2,9.686445236E0,-3.559323773E-2,9.686888348E0
2.057506942E0,-5.443671346E-2,9.698409081E0,-4.516452923E-2,9.698667016E0
2.059932828E0,-9.272187948E-2,9.698409081E0,-2.841476910E-2,9.698893929E0
2.062358661E0,-8.075776696E-2,9.703194618E0,-3.559323773E-2,9.703595957E0
2.064784547E0,-8.793623000E-2,9.696016312E0,-5.234299600E-2,9.696556342E0
2.067210432E0,-6.640082598E-2,9.705587387E0,-4.277170449E-2,9.705908768E0
2.069636317E0,-9.511470050E-2,9.693623543E0,-3.080759197E-2,9.694139121E0
2.072062203E0,-6.400800496E-2,9.707980156E0,-3.320041299E-2,9.708247937E0
2.074488088E0,-8.315058798E-2,9.724730492E0,-3.559323773E-2,9.725151106E0
2.076913974E0,-5.204389244E-2,9.698409081E0,-6.669992954E-2,9.698778075E0
2.079339859E0,-7.597211748E-2,9.691230774E0,-5.712864175E-2,9.691696929E0
2.081765745E0,-8.793623000E-2,9.703194618E0,-3.798605874E-2,9.703667426E0
2.084191630E0,-9.750752151E-2,9.707980156E0,-3.320041299E-2,9.708526597E0
2.086617515E0,-8.554340899E-2,9.684052467E0,-4.995017126E-2,9.684559096E0
2.089043349E0,-8.554340899E-2,9.696016312E0,-3.559323773E-2,9.696458986E0
2.091469234E0,-1.118644550E-1,9.700801849E0,-4.995017126E-2,9.701575398E0
2.093895120E0,-9.750752151E-2,9.679266930E0,-3.320041299E-2,9.679814992E0
2.096321005E0,-9.272187948E-2,9.715159416E0,-2.841476910E-2,9.715643428E0
2.098746890E0,-7.597211748E-2,9.703194618E0,-4.995017126E-2,9.703620591E0
2.101172776E0,-7.597211748E-2,9.688838005E0,-6.430710852E-2,9.689349259E0
2.103598661E0,-7.357929647E-2,9.715159416E0,-4.277170449E-2,9.715532194E0
2.106024547E0,-6.161518395E-2,9.684052467E0,-2.841476910E-2,9.684290166E0
2.108450432E0,-6.161518395E-2,9.712766647E0,-7.148557901E-2,9.713225137E0
2.110876317E0,-7.597211748E-2,9.715159416E0,-6.191428751E-2,9.715653741E0
2.113302203E0,-6.640082598E-2,9.705587387E0,-8.105687052E-2,9.706152987E0
2.115728036E0,-8.554340899E-2,9.691230774E0,-4.516452923E-2,9.691713544E0
2.118153922E0,-1.142572835E-1,9.719944954E0,-6.430710852E-2,9.720829185E0
2.120579807E0,-8.793623000E-2,9.719944954E0,-4.755735025E-2,9.720459063E0
2.123005692E0,-8.075776696E-2,9.710372925E0,-4.277170449E-2,9.710802931E0
2.125431578E0,-9.511470050E-2,9.712766647E0,-4.755735025E-2,9.713348776E0
2.127857463E0,-7.118647546E-2,9.693623543E0,-5.952146277E-2,9.694067655E0
2.130283349E0,-8.793623000E-2,9.707980156E0,-7.148557901E-2,9.708641598E0
2.132709234E0,-8.075776696E-2,9.717552185E0,-5.473581702E-2,9.718041896E0
2.135135120E0,-6.400800496E-2,9.724730492E0,-3.559323773E-2,9.725006274E0
2.137561005E0,-6.640082598E-2,9.707980156E0,-4.995017126E-2,9.708335738E0
2.139986890E0,-7.357929647E-2,9.691230774E0,-4.755735025E-2,9.691626774E0
2.142412776E0,-7.357929647E-2,9.686445236E0,-3.798605874E-2,9.686799170E0
2.144838609E0,-7.836493850E-2,9.715159416E0,-3.080759197E-2,9.715524312E0
2.147264495E0,-7.118647546E-2,9.696016312E0,-3.798605874E-2,9.696352034E0
2.149690380E0,-8.793623000E-2,9.688838005E0,-4.995017126E-2,9.689365804E0
2.152116265E0,-8.075776696E-2,9.715159416E0,-4.516452923E-2,9.715600040E0
2.154542151E0,-7.597211748E-2,9.696016312E0,-6.191428751E-2,9.696511613E0
2.156968036E0,-7.836493850E-2,9.705587387E0,-3.559323773E-2,9.705969012E0
2.159393922E0,-7.836493850E-2,9.681659698E0,-4.277170449E-2,9.682071318E0
2.161819807E0,-6.640082598E-2,9.698409081E0,-4.995017126E-2,9.698765013E0
2.164245692E0,-9.032905847E-2,9.703194618E0,-5.234299600E-2,9.703756228E0
2.166671578E0,-8.554340899E-2,9.710372925E0,-3.559323773E-2,9.710814945E0
2.169097411E0,-9.750752151E-2,9.710372925E0,-4.277170449E-2,9.710956671E0
2.171523297E0,-7.118647546E-2,9.703194618E0,-3.080759197E-2,9.703504646E0
2.173949182E0,-5.922235921E-2,9.688838005E0,-5.712864175E-2,9.689187420E0
2.176375067E0,-8.793623000E-2,9.696016312E0,-2.841476910E-2,9.696456698E0
2.178800953E0,-9.032905847E-2,9.703194618E0,-2.123630047E-2,9.703638293E0
2.181226838E0,-9.750752151E-2,9.705587387E0,-4.995017126E-2,9.706205709E0
2.183652724E0,-8.075776696E-2,9.722337723E0,-4.755735025E-2,9.722789431E0
2.186078609E0,-6.400800496E-2,9.707980156E0,-4.995017126E-2,9.708319667E0
2.188504495E0,-9.032905847E-2,9.717552185E0,-4.516452923E-2,9.718076952E0
2.190930380E0,-8.554340899E-2,9.693623543E0,-4.755735025E-2,9.694117637E0
2.193356265E0,-6.879365444E-2,9.710372925E0,-6.191428751E-2,9.710813987E0
2.195782151E0,-8.315058798E-2,9.717552185E0,-5.473581702E-2,9.718062075E0
2.198207984E0,-6.879365444E-2,9.712766647E0,-4.037888348E-2,9.713094201E0
2.200633870E0,-7.118647546E-2,9.693623543E0,-5.952146277E-2,9.694067655E0
2.203059755E0,-6.640082598E-2,9.693623543E0,-5.952146277E-2,9.694033694E0
2.205485640E0,-7.597211748E-2,9.681659698E0,-4.037888348E-2,9.682041971E0
2.207911526E0,-7.836493850E-2,9.703194618E0,-7.627122104E-2,9.703810806E0
2.210337411E0,-9.032905847E-2,9.705587387E0,-5.234299600E-2,9.706148858E0
2.212763297E0,-6.400800496E-2,9.698409081E0,-5.473581702E-2,9.698774754E0
2.215189182E0,-7.836493850E-2,9.717552185E0,-8.105687052E-2,9.718206200E0
2.217615067E0,-7.836493850E-2,9.700801849E0,-4.755735025E-2,9.701234936E0
2.220040953E0,-9.032905847E-2,9.710372925E0,-5.234299600E-2,9.710934119E0
2.222466838E0,-9.750752151E-2,9.707980156E0,-3.559323773E-2,9.708535075E0
2.224892672E0,-7.357929647E-2,9.715159416E0,-4.277170449E-2,9.715532194E0
2.227318557E0,-6.161518395E-2,9.705587387E0,-5.712864175E-2,9.705951094E0
2.229744442E0,-5.682953820E-2,9.688838005E0,-3.559323773E-2,9.689070046E0
2.232170328E0,-7.118647546E-2,9.684052467E0,-6.430710852E-2,9.684527614E0
2.234596213E0,-8.315058798E-2,9.693623543E0,-4.037888348E-2,9.694064259E0
2.237022099E0,-6.161518395E-2,9.707980156E0,-4.037888348E-2,9.708259658E0
2.239447984E0,-7.597211748E-2,9.705587387E0,-1.645065658E-2,9.705898666E0
2.241873870E0,-6.400800496E-2,9.710372925E0,-3.559323773E-2,9.710649115E0
2.244299755E0,-6.879365444E-2,9.705587387E0,-4.277170449E-2,9.705925433E0
2.246725640E0,-9.032905847E-2,9.691230774E0,-5.712864175E-2,9.691820104E0
2.249151526E0,-8.315058798E-2,9.688838005E0,-4.995017126E-2,9.689323554E0
2.251577359E0,-8.793623000E-2,9.700801849E0,-4.037888348E-2,9.701284438E0
2.254003245E0,-8.075776696E-2,9.691230774E0,-6.191428751E-2,9.691765015E0
2.256429130E0,-9.032905847E-2,9.707980156E0,-5.473581702E-2,9.708554684E0
2.258855015E0,-7.357929647E-2,9.722337723E0,-4.995017126E-2,9.722744455E0
2.261280901E0,-5.922235921E-2,9.696016312E0,-4.516452923E-2,9.696302359E0
2.263706786E0,-6.640082598E-2,9.693623543E0,-3.559323773E-2,9.693916305E0
2.266132672E0,-7.836493850E-2,9.696016312E0,-4.995017126E-2,9.696461643E0
2.268558557E0,-8.075776696E-2,9.717552185E0,-6.909275055E-2,9.718133365E0
2.270984442E0,-6.400800496E-2,9.710372925E0,-6.191428751E-2,9.710781263E0
2.273410328E0,-6.640082598E-2,9.707980156E0,-5.234299600E-2,9.708348344E0
2.275836213E0,-9.272187948E-2,9.681659698E0,-6.669992954E-2,9.682333435E0
2.278262047E0,-7.836493850E-2,9.705587387E0,-6.430710852E-2,9.706116783E0
2.280687932E0,-8.554340899E-2,9.691230774E0,-4.755735025E-2,9.691724990E0
2.283113817E0,-9.032905847E-2,9.696016312E0,-5.712864175E-2,9.696605351E0
2.285539703E0,-9.750752151E-2,9.686445236E0,-4.037888348E-2,9.687020155E0
2.287965588E0,-9.032905847E-2,9.676874161E0,-4.995017126E-2,9.677424651E0
2.290391474E0,-6.640082598E-2,9.693623543E0,-4.516452923E-2,9.693956173E0
2.292817359E0,-9.032905847E-2,9.684052467E0,-4.995017126E-2,9.684602550E0
2.295243245E0,-8.315058798E-2,9.679266930E0,-6.191428751E-2,9.679822090E0
2.297669130E0,-5.204389244E-2,9.698409081E0,-5.473581702E-2,9.698703175E0
2.300095015E0,-7.836493850E-2,9.693623543E0,-4.755735025E-2,9.694056950E0
2.302520901E0,-1.142572835E-1,9.700801849E0,-4.995017126E-2,9.701603283E0
2.304946786E0,-9.272187948E-2,9.707980156E0,-5.473581702E-2,9.708577242E0
2.307372620E0,-6.400800496E-2,9.710372925E0,-3.559323773E-2,9.710649115E0
2.309798505E0,-9.511470050E-2,9.715159416E0,-4.277170449E-2,9.715719155E0
2.312224390E0,-9.032905847E-2,9.707980156E0,-5.712864175E-2,9.708568470E0
2.314650276E0,-7.118647546E-2,9.717552185E0,-4.755735025E-2,9.717929290E0
2.317076161E0,-8.554340899E-2,9.712766647E0,-4.277170449E-2,9.713237516E0
2.319502047E0,-1.094716340E-1,9.693623543E0,-7.387840003E-2,9.694523168E0
2.321927932E0,-8.315058798E-2,9.688838005E0,-6.669992954E-2,9.689424379E0
2.324353817E0,-8.793623000E-2,9.719944954E0,-7.627122104E-2,9.720641953E0
2.326779703E0,-8.554340899E-2,9.705587387E0,-5.234299600E-2,9.706105501E0
2.329205588E0,-7.836493850E-2,9.698409081E0,-5.473581702E-2,9.698880129E0
2.331631474E0,-7.357929647E-2,9.693623543E0,-6.191428751E-2,9.694100509E0
2.334057307E0,-5.443671346E-2,9.688838005E0,-4.755735025E-2,9.689107644E0
2.336483192E0,-6.640082598E-2,9.698409081E0,-3.798605874E-2,9.698710775E0
2.338909078E0,-9.032905847E-2,9.729516029E0,-4.755735025E-2,9.730051552E0
2.341334963E0,-7.118647546E-2,9.696016312E0,-3.798605874E-2,9.696352034E0
2.343760849E0,-9.032905847E-2,9.700801849E0,-4.516452923E-2,9.701327522E0
2.346186734E0,-8.793623000E-2,9.693623543E0,-5.712864175E-2,9.694190727E0
2.348612620E0,-9.272187948E-2,9.705587387E0,-1.645065658E-2,9.706044225E0
2.351038505E0,-9.990034252E-2,9.672088623E0,-4.037888348E-2,9.672688813E0
2.353464390E0,-9.990034252E-2,9.688838005E0,-2.362912335E-2,9.689381833E0
2.355890276E0,-9.511470050E-2,9.719944954E0,-3.320041299E-2,9.720467015E0
2.358316161E0,-6.879365444E-2,9.705587387E0,-3.798605874E-2,9.705905524E0
2.360742047E0,-8.315058798E-2,9.686445236E0,-4.995017126E-2,9.686930905E0
2.363167880E0,-5.204389244E-2,9.688838005E0,-5.473581702E-2,9.689132390E0
2.365593765E0,-7.836493850E-2,9.686445236E0,-4.037888348E-2,9.686846382E0
2.368019651E0,-9.032905847E-2,9.712766647E0,-4.037888348E-2,9.713270599E0
2.370445536E0,-8.793623000E-2,9.712766647E0,-3.798605874E-2,9.713238989E0
2.372871422E0,-9.032905847E-2,9.700801849E0,-4.755735025E-2,9.701338957E0
2.375297307E0,-8.554340899E-2,9.700801849E0,-4.995017126E-2,9.701307603E0
2.377723192E0,-1.166501045E-1,9.686445236E0,-3.798605874E-2,9.687222074E0
2.380149078E0,-8.554340899E-2,9.693623543E0,-2.602194622E-2,9.694035909E0
2.382574963E0,-6.640082598E-2,9.712766647E0,-3.320041299E-2,9.713050359E0
2.385000849E0,-9.272187948E-2,9.688838005E0,-6.191428751E-2,9.689479481E0
2.387426682E0,-8.075776696E-2,9.696016312E0,-4.995017126E-2,9.696481277E0
2.389852567E0,-1.046859920E-1,9.703194618E0,-4.995017126E-2,9.703887879E0
2.392278453E0,-8.315058798E-2,9.684052467E0,-6.191428751E-2,9.684607353E0
2.394704338E0,-7.597211748E-2,9.672088623E0,-5.234299600E-2,9.672528619E0
2.397130224E0,-1.046859920E-1,9.717552185E0,-4.277170449E-2,9.718210177E0
2.399556109E0,-8.793623000E-2,9.684052467E0,-4.277170449E-2,9.684546163E0
2.401981995E0,-6.400800496E-2,9.705587387E0,-5.473581702E-2,9.705952790E0
2.404407880E0,-6.161518395E-2,9.719944954E0,-4.995017126E-2,9.720268585E0
2.406833765E0,-8.554340899E-2,9.710372925E0,-5.712864175E-2,9.710917758E0
2.409259651E0,-7.836493850E-2,9.719944954E0,-4.995017126E-2,9.720389189E0
2.411685536E0,-9.032905847E-2,9.705587387E0,-4.516452923E-2,9.706112801E0
2.414111422E0,-9.032905847E-2,9.691230774E0,-4.037888348E-2,9.691735846E0
2.416537255E0,-9.032905847E-2,9.710372925E0,-5.234299600E-2,9.710934119E0
2.418963192E0,-8.075776696E-2,9.729516029E0,-4.516452923E-2,9.729956003E0
2.421389026E0,-9.032905847E-2,9.696016312E0,-3.559323773E-2,9.696502387E0
2.423814911E0,-7.118647546E-2,9.686445236E0,-5.473581702E-2,9.686861454E0
2.426240797E0,-6.161518395E-2,9.707980156E0,-4.995017126E-2,9.708304186E0
2.428666682E0,-8.554340899E-2,9.700801849E0,-4.516452923E-2,9.701284143E0
2.431092567E0,-7.357929647E-2,9.676874161E0,-3.320041299E-2,9.677210843E0
2.433518453E0,-6.879365444E-2,9.688838005E0,-2.362912335E-2,9.689111042E0
2.435944338E0,-5.922235921E-2,9.693623543E0,-3.798605874E-2,9.693878874E0
2.438370224E0,-7.836493850E-2,9.696016312E0,-3.798605874E-2,9.696407392E0
2.440796109E0,-6.400800496E-2,9.712766647E0,-5.952146277E-2,9.713159927E0
2.443221995E0,-7.597211748E-2,9.698409081E0,-4.995017126E-2,9.698835264E0
2.445647828E0,-5.922235921E-2,9.686445236E0,-5.234299600E-2,9.686767696E0
2.448073713E0,-8.075776696E-2,9.698409081E0,-5.473581702E-2,9.698899758E0
2.450499599E0,-6.640082598E-2,9.684052467E0,-4.995017126E-2,9.684408928E0
2.452925484E0,-9.511470050E-2,9.681659698E0,-4.277170449E-2,9.682221374E0
2.455351370E0,-8.075776696E-2,9.715159416E0,-5.234299600E-2,9.715636062E0
2.457777255E0,-6.879365444E-2,9.715159416E0,-3.320041299E-2,9.715459707E0
2.460203140E0,-7.118647546E-2,9.707980156E0,-3.798605874E-2,9.708315465E0
2.462629026E0,-7.118647546E-2,9.698409081E0,-5.234299600E-2,9.698811576E0
2.465054911E0,-5.922235921E-2,9.717552185E0,-4.277170449E-2,9.717826772E0
2.467480797E0,-7.597211748E-2,9.715159416E0,-4.516452923E-2,9.715561439E0
2.469906682E0,-9.750752151E-2,9.722337723E0,-5.234299600E-2,9.722967567E0
2.472332515E0,-6.879365444E-2,9.712766647E0,-2.602194622E-2,9.713045128E0
2.474758401E0,-7.357929647E-2,9.693623543E0,-3.320041299E-2,9.693959643E0
2.477184286E0,-7.836493850E-2,9.688838005E0,-4.037888348E-2,9.689239052E0
2.479610172E0,-9.272187948E-2,9.693623543E0,-4.516452923E-2,9.694172196E0
2.482036057E0,-5.922235921E-2,9.703194618E0,-5.234299600E-2,9.703516521E0
2.484461942E0,-7.357929647E-2,9.693623543E0,-4.755735025E-2,9.694019445E0
2.486887828E0,-7.118647546E-2,9.691230774E0,-5.234299600E-2,9.691633568E0
2.489313713E0,-8.075776696E-2,9.705587387E0,-3.798605874E-2,9.705997697E0
2.491739599E0,-7.357929647E-2,9.700801849E0,-4.516452923E-2,9.701186024E0
2.494165484E0,-7.118647546E-2,9.686445236E0,-4.516452923E-2,9.686812100E0
2.496591370E0,-7.836493850E-2,9.703194618E0,-5.952146277E-2,9.703693610E0
2.499017255E0,-4.725824669E-2,9.700801849E0,-3.798605874E-2,9.700991331E0
2.501443088E0,-9.272187948E-2,9.688838005E0,-4.995017126E-2,9.689410418E0
2.503868974E0,-8.554340899E-2,9.696016312E0,-5.234299600E-2,9.696534937E0
2.506294859E0,-8.793623000E-2,9.698409081E0,-4.037888348E-2,9.698891789E0
2.508720745E0,-5.682953820E-2,9.717552185E0,-5.234299600E-2,9.717859325E0
2.511146630E0,-9.511470050E-2,9.707980156E0,-3.559323773E-2,9.708511338E0
2.513572515E0,-1.022931710E-1,9.715159416E0,-3.798605874E-2,9.715772193E0
2.515998401E0,-9.272187948E-2,9.700801849E0,-6.669992954E-2,9.701474256E0
2.518424286E0,-9.750752151E-2,9.698409081E0,-4.755735025E-2,9.699015832E0
2.520850172E0,-9.272187948E-2,9.691230774E0,-5.952146277E-2,9.691857101E0
2.523276057E0,-7.597211748E-2,9.691230774E0,-4.277170449E-2,9.691622934E0
2.525701942E0,-6.640082598E-2,9.712766647E0,-5.234299600E-2,9.713134654E0
2.528127776E0,-9.032905847E-2,9.707980156E0,-6.191428751E-2,9.708597809E0
2.530553661E0,-9.750752151E-2,9.710372925E0,-9.062815458E-2,9.711285369E0
2.532979547E0,-9.272187948E-2,9.703194618E0,-4.995017126E-2,9.703766185E0
2.535405432E0,-7.836493850E-2,9.686445236E0,-7.148557901E-2,9.687025992E0
2.537831317E0,-6.640082598E-2,9.688838005E0,-5.473581702E-2,9.689220142E0
2.540257203E0,-5.922235921E-2,9.722337723E0,-5.234299600E-2,9.722658992E0
2.542683088E0,-7.118647546E-2,9.686445236E0,-4.277170449E-2,9.686801239E0
2.545108974E0,-6.640082598E-2,9.700801849E0,-7.148557901E-2,9.701292480E0
2.547534859E0,-9.032905847E-2,9.707980156E0,-3.559323773E-2,9.708465632E0
2.549960745E0,-7.836493850E-2,9.710372925E0,-4.516452923E-2,9.710794161E0
2.552386630E0,-7.118647546E-2,9.688838005E0,-5.952146277E-2,9.689282337E0
2.554812515E0,-8.075776696E-2,9.698409081E0,-5.473581702E-2,9.698899758E0
2.557238349E0,-7.118647546E-2,9.693623543E0,-4.516452923E-2,9.693990135E0
2.559664234E0,-7.118647546E-2,9.691230774E0,-3.559323773E-2,9.691557579E0
2.562090120E0,-7.118647546E-2,9.703194618E0,-4.037888348E-2,9.703539755E0
2.564516005E0,-9.750752151E-2,9.719944954E0,-4.755735025E-2,9.720550361E0
2.566941890E0,-9.511470050E-2,9.696016312E0,-3.559323773E-2,9.696548149E0
2.569367776E0,-8.315058798E-2,9.703194618E0,-3.798605874E-2,9.703625238E0
2.571793661E0,-8.075776696E-2,9.681659698E0,-4.995017126E-2,9.682125353E0
2.574219547E0,-6.879365444E-2,9.698409081E0,-5.234299600E-2,9.698794309E0
2.576645432E0,-8.793623000E-2,9.674481392E0,-4.037888348E-2,9.674965294E0
2.579071317E0,-1.214357466E-1,9.681659698E0,-4.516452923E-2,9.682526581E0
2.581497203E0,-9.750752151E-2,9.710372925E0,-4.037888348E-2,9.710946427E0
2.583923036E0,-8.793623000E-2,9.684052467E0,-5.473581702E-2,9.684606393E0
2.586348922E0,-8.075776696E-2,9.688838005E0,-6.669992954E-2,9.689404140E0
2.588774807E0,-8.075776696E-2,9.700801849E0,-4.516452923E-2,9.701243125E0
2.591200692E0,-7.836493850E-2,9.696016312E0,-4.516452923E-2,9.696438172E0
2.593626578E0,-8.315058798E-2,9.705587387E0,-4.995017126E-2,9.706072098E0
2.596052463E0,-7.357929647E-2,9.717552185E0,-5.952146277E-2,9.718013027E0
2.598478349E0,-9.032905847E-2,9.707980156E0,-6.191428751E-2,9.708597809E0
2.600904234E0,-1.022931710E-1,9.700801849E0,-6.909275055E-2,9.701587201E0
2.603330120E0,-1.142572835E-1,9.684052467E0,-6.669992954E-2,9.684956159E0
2.605756005E0,-1.022931710E-1,9.727123260E0,-6.909275055E-2,9.727906487E0
2.608181890E0,-8.793623000E-2,9.691230774E0,-3.798605874E-2,9.691704166E0
2.610607776E0,-8.793623000E-2,9.715159416E0,-4.516452923E-2,9.715662360E0
2.613033609E0,-9.272187948E-2,9.715159416E0,-3.559323773E-2,9.715667075E0
2.615459495E0,-8.793623000E-2,9.693623543E0,-3.798605874E-2,9.694096818E0
2.617885380E0,-8.315058798E-2,9.705587387E0,-3.798605874E-2,9.706017901E0
2.620311265E0,-7.836493850E-2,9.719944954E0,-2.602194622E-2,9.720295680E0
2.622737151E0,-9.272187948E-2,9.691230774E0,-9.272187948E-3,9.691678762E0
2.625163036E0,-7.836493850E-2,9.705587387E0,-4.486542661E-3,9.705904786E0
2.627588922E0,-8.554340899E-2,9.688838005E0,-1.405783277E-2,9.689225830E0
2.630014807E0,-8.315058798E-2,9.698409081E0,-6.879365072E-3,9.698767965E0
2.632440692E0,-6.879365444E-2,9.698409081E0,-3.559323773E-2,9.698718376E0
2.634866578E0,-9.750752151E-2,9.696016312E0,-3.559323773E-2,9.696571915E0
2.637292411E0,-9.032905847E-2,9.693623543E0,-4.755735025E-2,9.694161048E0
2.639718297E0,-7.118647546E-2,9.717552185E0,-4.995017126E-2,9.717941294E0
2.642144182E0,-8.554340899E-2,9.715159416E0,-8.105687052E-2,9.715874144E0
2.644570067E0,-7.836493850E-2,9.693623543E0,-7.866404206E-2,9.694259460E0
2.646995953E0,-6.400800496E-2,9.703194618E0,-8.584251255E-2,9.703785435E0
2.649421838E0,-7.836493850E-2,9.705587387E0,-8.344969153E-2,9.706262486E0
2.651847724E0,-5.443671346E-2,9.693623543E0,-7.148557901E-2,9.694039970E0
2.654273609E0,-6.640082598E-2,9.693623543E0,-7.387840003E-2,9.694132477E0
2.656699495E0,-7.836493850E-2,9.698409081E0,-7.627122104E-2,9.699025572E0
2.659125380E0,-8.554340899E-2,9.698409081E0,-5.712864175E-2,9.698954585E0
2.661551265E0,-7.118647546E-2,9.710372925E0,-5.473581702E-2,9.710788117E0
2.663977151E0,-7.118647546E-2,9.698409081E0,-3.798605874E-2,9.698744720E0
2.666402984E0,-6.640082598E-2,9.691230774E0,-5.234299600E-2,9.691599598E0
2.668828870E0,-1.022931710E-1,9.693623543E0,-6.191428751E-2,9.694360972E0
2.671254755E0,-7.118647546E-2,9.703194618E0,-3.559323773E-2,9.703521020E0
2.673680640E0,-7.357929647E-2,9.703194618E0,-3.080759197E-2,9.703522495E0
2.676106526E0,-7.118647546E-2,9.698409081E0,-2.602194622E-2,9.698705241E0
2.678532411E0,-1.118644550E-1,9.712766647E0,-2.602194622E-2,9.713445668E0
2.680958297E0,-1.046859920E-1,9.698409081E0,-1.645065658E-2,9.698988013E0
2.683384182E0,-8.793623000E-2,9.696016312E0,-3.798605874E-2,9.696489470E0
2.685810067E0,-1.094716340E-1,9.717552185E0,-3.320041299E-2,9.718225495E0
2.688235953E0,-1.046859920E-1,9.712766647E0,-2.123630047E-2,9.713354008E0
2.690661838E0,-6.161518395E-2,9.715159416E0,-4.037888348E-2,9.715438712E0
2.693087724E0,-7.597211748E-2,9.707980156E0,-3.798605874E-2,9.708351735E0
2.695513557E0,-9.511470050E-2,9.700801849E0,-5.473581702E-2,9.701422542E0
2.697939442E0,-5.682953820E-2,9.686445236E0,-3.798605874E-2,9.686686423E0
2.700365328E0,-1.094716340E-1,9.681659698E0,-5.712864175E-2,9.682447120E0
2.702791213E0,-9.032905847E-2,9.674481392E0,-7.148557901E-2,9.675167168E0
2.705217099E0,-9.990034252E-2,9.686445236E0,-4.755735025E-2,9.687077118E0
2.707642984E0,-1.046859920E-1,9.710372925E0,-5.473581702E-2,9.711091468E0
2.710068870E0,-1.070788130E-1,9.715159416E0,-6.669992954E-2,9.715978450E0
2.712494755E0,-1.022931710E-1,9.707980156E0,-6.909275055E-2,9.708764927E0
2.714920640E0,-7.357929647E-2,9.705587387E0,-5.952146277E-2,9.706048797E0
2.717346526E0,-7.118647546E-2,9.674481392E0,-5.712864175E-2,9.674911958E0
2.719772411E0,-8.075776696E-2,9.705587387E0,-5.712864175E-2,9.706091491E0
2.722198245E0,-6.879365444E-2,9.693623543E0,-6.909275055E-2,9.694113872E0
2.724624130E0,-7.597211748E-2,9.712766647E0,-6.669992954E-2,9.713292778E0
2.727050015E0,-8.554340899E-2,9.707980156E0,-5.473581702E-2,9.708511338E0
2.729475901E0,-9.511470050E-2,9.696016312E0,-4.516452923E-2,9.696588006E0
2.731901786E0,-9.032905847E-2,9.686445236E0,-4.516452923E-2,9.686971688E0
2.734327672E0,-8.793623000E-2,9.707980156E0,-4.516452923E-2,9.708483472E0
2.736753557E0,-7.597211748E-2,9.703194618E0,-4.277170449E-2,9.703586295E0
2.739179442E0,-8.075776696E-2,9.705587387E0,-4.995017126E-2,9.706051894E0
2.741605328E0,-7.597211748E-2,9.700801849E0,-5.712864175E-2,9.701267544E0
2.744031213E0,-6.879365444E-2,9.693623543E0,-4.516452923E-2,9.693972859E0
2.746457099E0,-8.793623000E-2,9.693623543E0,-4.516452923E-2,9.694127604E0
2.748882984E0,-6.879365444E-2,9.712766647E0,-4.277170449E-2,9.713104444E0
2.751308870E0,-5.922235921E-2,9.703194618E0,-4.995017126E-2,9.703503909E0
2.753734703E0,-7.836493850E-2,9.691230774E0,-4.516452923E-2,9.691652842E0
2.756160588E0,-1.094716340E-1,9.686445236E0,-4.516452923E-2,9.687169101E0
2.758586474E0,-8.075776696E-2,9.672088623E0,-4.755735025E-2,9.672542678E0
2.761012359E0,-8.315058798E-2,9.707980156E0,-4.037888348E-2,9.708420221E0
2.763438245E0,-7.118647546E-2,9.700801849E0,-6.191428751E-2,9.701260610E0
2.765864130E0,-8.315058798E-2,9.729516029E0,-6.669992954E-2,9.730099952E0
2.768290015E0,-9.990034252E-2,9.696016312E0,-6.191428751E-2,9.696728612E0
2.770715901E0,-8.315058798E-2,9.710372925E0,-5.234299600E-2,9.710870000E0
2.773141786E0,-7.357929647E-2,9.696016312E0,-4.755735025E-2,9.696412116E0
2.775567672E0,-7.118647546E-2,9.705587387E0,-5.234299600E-2,9.705989585E0
2.777993557E0,-8.793623000E-2,9.686445236E0,-5.952146277E-2,9.687027248E0
2.780419390E0,-8.315058798E-2,9.705587387E0,-6.669992954E-2,9.706172749E0
2.782845276E0,-7.597211748E-2,9.705587387E0,-7.627122104E-2,9.706184399E0
2.785271161E0,-9.032905847E-2,9.700801849E0,-6.430710852E-2,9.701435526E0
2.787697047E0,-8.554340899E-2,9.688838005E0,-5.473581702E-2,9.689370236E0
2.790122932E0,-9.990034252E-2,9.703194618E0,-3.798605874E-2,9.703783222E0
2.792548817E0,-7.357929647E-2,9.705587387E0,-4.037888348E-2,9.705950283E0
2.794974703E0,-7.836493850E-2,9.681659698E0,-4.995017126E-2,9.682105690E0
2.797400588E0,-5.204389244E-2,9.700801849E0,-3.320041299E-2,9.700998266E0
2.799826474E0,-6.640082598E-2,9.700801849E0,-2.841476910E-2,9.701070714E0
2.802252359E0,-7.118647546E-2,9.700801849E0,-2.841476910E-2,9.701104650E0
2.804678245E0,-8.075776696E-2,9.700801849E0,-2.362912335E-2,9.701166769E0
2.807104078E0,-8.075776696E-2,9.691230774E0,-2.841476910E-2,9.691608903E0
2.809529963E0,-5.922235921E-2,9.700801849E0,-2.602194622E-2,9.701017521E0
2.811955849E0,-8.075776696E-2,9.696016312E0,-4.755735025E-2,9.696469246E0
2.814381734E0,-9.272187948E-2,9.676874161E0,-4.037888348E-2,9.677402613E0
2.816807620E0,-8.793623000E-2,9.712766647E0,-5.234299600E-2,9.713305746E0
2.819233505E0,-8.793623000E-2,9.707980156E0,-4.277170449E-2,9.708472635E0
2.821659390E0,-5.922235921E-2,9.719944954E0,-4.277170449E-2,9.720219474E0
2.824085276E0,-8.315058798E-2,9.719944954E0,-5.952146277E-2,9.720482845E0
2.826511161E0,-8.075776696E-2,9.700801849E0,-5.952146277E-2,9.701320588E0
2.828937047E0,-9.032905847E-2,9.700801849E0,-5.952146277E-2,9.701404984E0
2.831362932E0,-7.357929647E-2,9.712766647E0,-4.516452923E-2,9.713150349E0
2.833788817E0,-8.554340899E-2,9.715159416E0,-5.712864175E-2,9.715703981E0
2.836214651E0,-8.315058798E-2,9.715159416E0,-6.191428751E-2,9.715712526E0
2.838640536E0,-1.142572835E-1,9.691230774E0,-6.191428751E-2,9.692102043E0
2.841066422E0,-1.022931710E-1,9.688838005E0,-7.148557901E-2,9.689641684E0
2.843492307E0,-8.315058798E-2,9.679266930E0,-4.516452923E-2,9.679729446E0
2.845918192E0,-8.075776696E-2,9.703194618E0,-5.712864175E-2,9.703698846E0
2.848344078E0,-1.046859920E-1,9.722337723E0,-3.798605874E-2,9.722975516E0
2.850769963E0,-9.750752151E-2,9.717552185E0,-4.277170449E-2,9.718135500E0
2.853195849E0,-7.836493850E-2,9.698409081E0,-6.669992954E-2,9.698955028E0
2.855621734E0,-7.357929647E-2,9.686445236E0,-6.430710852E-2,9.686938145E0
2.858047620E0,-9.511470050E-2,9.698409081E0,-3.798605874E-2,9.698949863E0
2.860473505E0,-8.554340899E-2,9.688838005E0,-3.798605874E-2,9.689290093E0
2.862899390E0,-6.640082598E-2,9.698409081E0,-5.234299600E-2,9.698777632E0
2.865325224E0,-8.554340899E-2,9.698409081E0,-2.841476910E-2,9.698827958E0
2.867751109E0,-9.990034252E-2,9.674481392E0,-4.277170449E-2,9.675091715E0
2.870176995E0,-9.990034252E-2,9.722337723E0,-4.037888348E-2,9.722934810E0
2.872602880E0,-7.118647546E-2,9.707980156E0,-4.995017126E-2,9.708369649E0
2.875028765E0,-7.597211748E-2,9.688838005E0,-4.037888348E-2,9.689219995E0
2.877454651E0,-8.793623000E-2,9.710372925E0,-5.473581702E-2,9.710925349E0
2.879880536E0,-8.075776696E-2,9.710372925E0,-4.995017126E-2,9.710837203E0
2.882306422E0,-9.272187948E-2,9.691230774E0,-4.755735025E-2,9.691791009E0
2.884732307E0,-7.118647546E-2,9.717552185E0,-5.952146277E-2,9.717995204E0
2.887158192E0,-5.922235921E-2,9.688838005E0,-5.234299600E-2,9.689160385E0
2.889584078E0,-1.022931710E-1,9.693623543E0,-3.798605874E-2,9.694237681E0
2.892009911E0,-7.836493850E-2,9.688838005E0,-5.473581702E-2,9.689309519E0
2.894435797E0,-6.161518395E-2,9.691230774E0,-4.277170449E-2,9.691521024E0
2.896861682E0,-8.315058798E-2,9.707980156E0,-4.277170449E-2,9.708430468E0
2.899287567E0,-8.075776696E-2,9.715159416E0,-6.669992954E-2,9.715724017E0
2.901713453E0,-7.597211748E-2,9.681659698E0,-6.191428751E-2,9.682155734E0
2.904139338E0,-8.075776696E-2,9.700801849E0,-4.755735025E-2,9.701254560E0
2.906565224E0,-9.990034252E-2,9.705587387E0,-6.430710852E-2,9.706314543E0
2.908991109E0,-9.750752151E-2,9.700801849E0,-6.191428751E-2,9.701489454E0
2.911416995E0,-7.597211748E-2,9.719944954E0,-5.234299600E-2,9.720382784E0
2.913842880E0,-7.357929647E-2,9.715159416E0,-6.430710852E-2,9.715650869E0
2.916268765E0,-8.554340899E-2,9.717552185E0,-4.755735025E-2,9.718045063E0
2.918694599E0,-1.022931710E-1,9.688838005E0,-6.669992954E-2,9.689607560E0
2.921120484E0,-7.836493850E-2,9.684052467E0,-4.516452923E-2,9.684474848E0
2.923546370E0,-1.190429255E-1,9.679266930E0,-6.191428751E-2,9.680196945E0
2.925972255E0,-8.793623000E-2,9.705587387E0,-4.755735025E-2,9.706102256E0
2.928398140E0,-8.793623000E-2,9.679266930E0,-4.277170449E-2,9.679760870E0
2.930824026E0,-9.032905847E-2,9.698409081E0,-3.559323773E-2,9.698895036E0
2.933249911E0,-9.511470050E-2,9.705587387E0,-5.473581702E-2,9.706207774E0
2.935675797E0,-9.032905847E-2,9.715159416E0,-3.559323773E-2,9.715644533E0
2.938101682E0,-8.793623000E-2,9.727123260E0,-4.277170449E-2,9.727614771E0
2.940527567E0,-7.118647546E-2,9.698409081E0,-6.191428751E-2,9.698867954E0
2.942953453E0,-8.793623000E-2,9.707980156E0,-4.277170449E-2,9.708472635E0
2.945379338E0,-8.793623000E-2,9.722337723E0,-4.995017126E-2,9.722863703E0
2.947805172E0,-7.836493850E-2,9.696016312E0,-3.559323773E-2,9.696398314E0
2.950231057E0,-9.032905847E-2,9.700801849E0,-4.755735025E-2,9.701338957E0
2.952656942E0,-7.597211748E-2,9.707980156E0,-4.277170449E-2,9.708371639E0
2.955082828E0,-7.118647546E-2,9.691230774E0,-4.037888348E-2,9.691576336E0
2.957508713E0,-1.046859920E-1,9.672088623E0,-6.430710852E-2,9.672868907E0
2.959934599E0,-8.793623000E-2,9.712766647E0,-5.712864175E-2,9.713332714E0
2.962360484E0,-1.094716340E-1,9.698409081E0,-3.080759197E-2,9.699075824E0
2.964786370E0,-1.046859920E-1,9.688838005E0,-4.755735025E-2,9.689520254E0
2.967212255E0,-9.272187948E-2,9.698409081E0,-4.995017126E-2,9.698980929E0
2.969638140E0,-9.032905847E-2,9.703194618E0,-6.430710852E-2,9.703828139E0
2.972064026E0,-8.793623000E-2,9.686445236E0,-5.473581702E-2,9.686999025E0
2.974489911E0,-6.879365444E-2,9.700801849E0,-6.669992954E-2,9.701275069E0
2.976915745E0,-6.400800496E-2,9.696016312E0,-7.148557901E-2,9.696491094E0
2.979341630E0,-1.142572835E-1,9.688838005E0,-4.995017126E-2,9.689640429E0
2.981767515E0,-5.682953820E-2,9.710372925E0,-4.755735025E-2,9.710655675E0
2.984193401E0,-8.554340899E-2,9.696016312E0,-5.952146277E-2,9.696576344E0
2.986619286E0,-9.032905847E-2,9.710372925E0,-5.952146277E-2,9.710975465E0
2.989045172E0,-8.315058798E-2,9.712766647E0,-4.277170449E-2,9.713216737E0
2.991471057E0,-9.032905847E-2,9.696016312E0,-5.952146277E-2,9.696619744E0
2.993896942E0,-6.879365444E-2,9.684052467E0,-5.473581702E-2,9.684451495E0
2.996322828E0,-8.075776696E-2,9.710372925E0,-3.798605874E-2,9.710783032E0
2.998748713E0,-8.315058798E-2,9.691230774E0,-3.559323773E-2,9.691652842E0
3.001174599E0,-6.161518395E-2,9.693623543E0,-2.362912335E-2,9.693848160E0
3.003600432E0,-7.597211748E-2,9.712766647E0,-2.841476910E-2,9.713105328E0
3.006026317E0,-6.879365444E-2,9.703194618E0,-4.995017126E-2,9.703567044E0
3.008452203E0,-4.725824669E-2,9.705587387E0,-5.712864175E-2,9.705870572E0
3.010878088E0,-6.879365444E-2,9.698409081E0,-3.080759197E-2,9.698701994E0
3.013303974E0,-7.836493850E-2,9.691230774E0,-5.952146277E-2,9.691730381E0
3.015729859E0,-8.793623000E-2,9.700801849E0,-3.080759197E-2,9.701249322E0
3.018155745E0,-7.597211748E-2,9.696016312E0,-3.080759197E-2,9.696362884E0
3.020581630E0,-9.511470050E-2,9.681659698E0,-4.277170449E-2,9.682221374E0
3.023007515E0,-7.597211748E-2,9.703194618E0,-4.755735025E-2,9.703608569E0
3.025433401E0,-9.032905847E-2,9.710372925E0,-4.516452923E-2,9.710898080E0
3.027859286E0,-1.046859920E-1,9.698409081E0,-7.148557901E-2,9.699237498E0
3.030285172E0,-9.032905847E-2,9.719944954E0,-4.755735025E-2,9.720481004E0
3.032711005E0,-9.272187948E-2,9.693623543E0,-4.516452923E-2,9.694172196E0
3.035136890E0,-6.879365444E-2,9.698409081E0,-4.755735025E-2,9.698769662E0
3.037562776E0,-7.836493850E-2,9.693623543E0,-5.952146277E-2,9.694123027E0
3.039988661E0,-6.400800496E-2,9.717552185E0,-5.473581702E-2,9.717917138E0
3.042414547E0,-8.315058798E-2,9.698409081E0,-6.430710852E-2,9.698978715E0
3.044840432E0,-7.597211748E-2,9.703194618E0,-5.952146277E-2,9.703674581E0
3.047266317E0,-7.836493850E-2,9.705587387E0,-4.755735025E-2,9.706020260E0
3.049692203E0,-9.272187948E-2,9.688838005E0,-5.952146277E-2,9.689464487E0
3.052118088E0,-8.793623000E-2,9.703194618E0,-4.277170449E-2,9.703687340E0
3.054543974E0,-7.836493850E-2,9.696016312E0,-4.277170449E-2,9.696427321E0
3.056969859E0,-7.118647546E-2,9.698409081E0,-3.559323773E-2,9.698735644E0
3.059395692E0,-7.597211748E-2,9.681659698E0,-4.277170449E-2,9.682052246E0
3.061821578E0,-8.315058798E-2,9.707980156E0,-3.320041299E-2,9.708393018E0
3.064247463E0,-7.836493850E-2,9.693623543E0,-4.516452923E-2,9.694045507E0
3.066673349E0,-8.793623000E-2,9.705587387E0,-4.516452923E-2,9.706090827E0
3.069099234E0,-1.070788130E-1,9.691230774E0,-5.234299600E-2,9.691963659E0
3.071525120E0,-9.511470050E-2,9.688838005E0,-4.037888348E-2,9.689388998E0
3.073951005E0,-9.032905847E-2,9.724730492E0,-4.995017126E-2,9.725278273E0
3.076376890E0,-9.990034252E-2,9.705587387E0,-5.234299600E-2,9.706242651E0
3.078802776E0,-8.315058798E-2,9.698409081E0,-4.277170449E-2,9.698859837E0
3.081228661E0,-9.511470050E-2,9.698409081E0,-4.037888348E-2,9.698959529E0
3.083654547E0,-6.640082598E-2,9.707980156E0,-3.798605874E-2,9.708281553E0
3.086080432E0,-7.836493850E-2,9.696016312E0,-5.712864175E-2,9.696501279E0
3.088506265E0,-7.357929647E-2,9.693623543E0,-4.755735025E-2,9.694019445E0
3.090932151E0,-8.554340899E-2,9.691230774E0,-5.473581702E-2,9.691762874E0
3.093358036E0,-7.357929647E-2,9.705587387E0,-6.430710852E-2,9.706079324E0
3.095783922E0,-9.750752151E-2,9.703194618E0,-5.473581702E-2,9.703838907E0
3.098209807E0,-6.161518395E-2,9.703194618E0,-3.559323773E-2,9.703455524E0
3.100635692E0,-5.204389244E-2,9.686445236E0,-5.952146277E-2,9.686767917E0
3.103061578E0,-9.032905847E-2,9.676874161E0,-6.430710852E-2,9.677509404E0
3.105487463E0,-8.793623000E-2,9.698409081E0,-6.430710852E-2,9.699020924E0
3.107913349E0,-9.511470050E-2,9.688838005E0,-4.516452923E-2,9.689410123E0
3.110339234E0,-1.022931710E-1,9.688838005E0,-5.473581702E-2,9.689532589E0
3.112765120E0,-8.554340899E-2,9.667302132E0,-4.277170449E-2,9.667775215E0
3.115191005E0,-8.075776696E-2,9.686445236E0,-4.516452923E-2,9.686887166E0
3.117616838E0,-5.443671346E-2,9.698409081E0,-4.516452923E-2,9.698667016E0
3.120042724E0,-8.315058798E-2,9.696016312E0,-5.712864175E-2,9.696541137E0
3.122468609E0,-6.400800496E-2,9.705587387E0,-5.712864175E-2,9.705966579E0
3.124894495E0,-7.118647546E-2,9.719944954E0,-4.516452923E-2,9.720310553E0
3.127320380E0,-6.400800496E-2,9.736694336E0,-3.559323773E-2,9.736969780E0
3.129746265E0,-8.075776696E-2,9.741479874E0,-3.559323773E-2,9.741879635E0
3.132172151E0,-7.597211748E-2,9.710372925E0,-4.516452923E-2,9.710775146E0
3.134598036E0,-6.400800496E-2,9.710372925E0,-4.037888348E-2,9.710667836E0
3.137023922E0,-6.161518395E-2,9.707980156E0,-3.798605874E-2,9.708250001E0
3.139449807E0,-7.597211748E-2,9.703194618E0,-2.602194622E-2,9.703526921E0
3.141875692E0,-9.032905847E-2,9.696016312E0,-4.277170449E-2,9.696531394E0
3.144301526E0,-1.094716340E-1,9.705587387E0,-4.277170449E-2,9.706298985E0
3.146727411E0,-8.793623000E-2,9.705587387E0,-7.148557901E-2,9.706248992E0
3.149153297E0,-7.836493850E-2,9.715159416E0,-4.277170449E-2,9.715569616E0
3.151579182E0,-5.682953820E-2,9.698409081E0,-5.473581702E-2,9.698730035E0
3.154005067E0,-8.075776696E-2,9.717552185E0,-3.798605874E-2,9.717961989E0
3.156430953E0,-1.046859920E-1,9.719944954E0,-5.952146277E-2,9.720690915E0
3.158856838E0,-9.272187948E-2,9.696016312E0,-4.277170449E-2,9.696553980E0
3.161282724E0,-1.262213886E-1,9.696016312E0,-6.191428751E-2,9.697035502E0
3.163708609E0,-8.075776696E-2,9.693623543E0,-5.952146277E-2,9.694142665E0
3.166134495E0,-7.118647546E-2,9.705587387E0,-8.823533356E-2,9.706249508E0
3.168560380E0,-8.554340899E-2,9.698409081E0,-8.344969153E-2,9.699145334E0
3.170986265E0,-9.750752151E-2,9.705587387E0,-6.430710852E-2,9.706290210E0
3.173412151E0,-8.554340899E-2,9.705587387E0,-6.191428751E-2,9.706161836E0
3.175837984E0,-7.357929647E-2,9.712766647E0,-5.473581702E-2,9.713199569E0
3.178263870E0,-6.161518395E-2,9.712766647E0,-6.430710852E-2,9.713174959E0
3.180689755E0,-7.357929647E-2,9.691230774E0,-3.320041299E-2,9.691566958E0
3.183115640E0,-6.400800496E-2,9.707980156E0,-4.037888348E-2,9.708275140E0
3.185541526E0,-8.793623000E-2,9.705587387E0,-2.841476910E-2,9.706027339E0
3.187967411E0,-9.511470050E-2,9.693623543E0,-4.037888348E-2,9.694174263E0
3.190393297E0,-9.750752151E-2,9.672088623E0,-3.080759197E-2,9.672629175E0
3.192819182E0,-9.990034252E-2,9.719944954E0,-3.080759197E-2,9.720507142E0
3.195245067E0,-6.640082598E-2,9.710372925E0,-3.559323773E-2,9.710665183E0
3.197670953E0,-8.315058798E-2,9.693623543E0,-3.080759197E-2,9.694029117E0
3.200096838E0,-9.990034252E-2,9.700801849E0,-4.516452923E-2,9.701421362E0
3.202522672E0,-9.511470050E-2,9.700801849E0,-3.798605874E-2,9.701342498E0
3.204948557E0,-9.990034252E-2,9.703194618E0,-3.798605874E-2,9.703783222E0
3.207374442E0,-7.597211748E-2,9.698409081E0,-3.559323773E-2,9.698771950E0
3.209800328E0,-8.315058798E-2,9.688838005E0,-6.430710852E-2,9.689408202E0
3.212226213E0,-9.032905847E-2,9.710372925E0,-4.995017126E-2,9.710921516E0
3.214652099E0,-8.793623000E-2,9.712766647E0,-5.712864175E-2,9.713332714E0
3.217077984E0,-8.315058798E-2,9.698409081E0,-8.344969153E-2,9.699124526E0
3.219503870E0,-8.315058798E-2,9.698409081E0,-7.148557901E-2,9.699028967E0
3.221929755E0,-7.357929647E-2,9.688838005E0,-6.669992954E-2,9.689346969E0
3.224355640E0,-8.554340899E-2,9.705587387E0,-4.755735025E-2,9.706080873E0
3.226781526E0,-8.315058798E-2,9.710372925E0,-9.062815458E-2,9.711151828E0
3.229207411E0,-6.879365444E-2,9.710372925E0,-6.669992954E-2,9.710845678E0
3.231633297E0,-7.118647546E-2,9.705587387E0,-4.516452923E-2,9.705953527E0
3.234059130E0,-1.022931710E-1,9.698409081E0,-5.234299600E-2,9.699089770E0
3.236485015E0,-7.118647546E-2,9.698409081E0,-6.430710852E-2,9.698883524E0
3.238910901E0,-5.682953820E-2,9.698409081E0,-5.712864175E-2,9.698743835E0
3.241336786E0,-8.793623000E-2,9.696016312E0,-5.473581702E-2,9.696569554E0
3.243762672E0,-1.094716340E-1,9.722337723E0,-4.037888348E-2,9.723037863E0
3.246188557E0,-7.597211748E-2,9.717552185E0,-4.037888348E-2,9.717933046E0
3.248614442E0,-8.793623000E-2,9.707980156E0,-3.080759197E-2,9.708427298E0
3.251040328E0,-8.554340899E-2,9.691230774E0,-2.841476910E-2,9.691649962E0
3.253466213E0,-9.750752151E-2,9.705587387E0,-4.995017126E-2,9.706205709E0
3.255892099E0,-9.272187948E-2,9.703194618E0,-4.277170449E-2,9.703731889E0
3.258317932E0,-7.836493850E-2,9.710372925E0,-9.272187948E-3,9.710693558E0
3.260743817E0,-9.032905847E-2,9.686445236E0,-4.037888348E-2,9.686950558E0
3.263169703E0,-7.357929647E-2,9.669695854E0,-5.234299600E-2,9.670117456E0
3.265595588E0,-7.357929647E-2,9.698409081E0,-4.755735025E-2,9.698804788E0
3.268021474E0,-6.640082598E-2,9.700801849E0,-4.755735025E-2,9.701145669E0
3.270447359E0,-5.682953820E-2,9.712766647E0,-4.755735025E-2,9.713049328E0
3.272873245E0,-1.214357466E-1,9.712766647E0,-4.755735025E-2,9.713642174E0
3.275299130E0,-9.032905847E-2,9.693623543E0,-5.952146277E-2,9.694227124E0
3.277725015E0,-9.032905847E-2,9.712766647E0,-6.669992954E-2,9.713415680E0
3.280150901E0,-9.032905847E-2,9.696016312E0,-5.234299600E-2,9.696578337E0
3.282576786E0,-7.836493850E-2,9.722337723E0,-4.995017126E-2,9.722781849E0
3.285002672E0,-8.075776696E-2,9.707980156E0,-5.952146277E-2,9.708498511E0
3.287428505E0,-9.990034252E-2,9.691230774E0,-5.473581702E-2,9.691900227E0
3.289854390E0,-7.597211748E-2,9.698409081E0,-5.234299600E-2,9.698847882E0
3.292280276E0,-7.118647546E-2,9.705587387E0,-3.798605874E-2,9.705922779E0
3.294706161E0,-1.022931710E-1,9.696016312E0,-4.995017126E-2,9.696684548E0
3.297132047E0,-7.357929647E-2,9.722337723E0,-4.277170449E-2,9.722710225E0
3.299557932E0,-7.836493850E-2,9.707980156E0,-5.234299600E-2,9.708437545E0
3.301983817E0,-8.554340899E-2,9.693623543E0,-4.277170449E-2,9.694095341E0
3.304409703E0,-7.597211748E-2,9.691230774E0,-5.712864175E-2,9.691696929E0
3.306835588E0,-5.922235921E-2,9.703194618E0,-3.320041299E-2,9.703432143E0
3.309261474E0,-5.204389244E-2,9.717552185E0,-2.362912335E-2,9.717720276E0
3.311687359E0,-8.315058798E-2,9.700801849E0,-4.037888348E-2,9.701242240E0
3.314113245E0,-6.640082598E-2,9.703194618E0,-3.798605874E-2,9.703496164E0
3.316539130E0,-8.793623000E-2,9.703194618E0,-6.669992954E-2,9.703822312E0
3.318964963E0,-7.836493850E-2,9.696016312E0,-3.080759197E-2,9.696381928E0
3.321390849E0,-5.443671346E-2,9.669695854E0,-5.712864175E-2,9.670017836E0
3.323816734E0,-6.640082598E-2,9.696016312E0,-5.712864175E-2,9.696411969E0
3.326242620E0,-8.075776696E-2,9.724730492E0,-2.602194622E-2,9.725100621E0
3.328668505E0,-9.272187948E-2,9.707980156E0,-5.473581702E-2,9.708577242E0
3.331094390E0,-7.597211748E-2,9.703194618E0,-4.755735025E-2,9.703608569E0
3.333520276E0,-6.161518395E-2,9.707980156E0,-3.080759197E-2,9.708224567E0
3.335946161E0,-8.554340899E-2,9.703194618E0,-5.234299600E-2,9.703712860E0
3.338372047E0,-8.315058798E-2,9.703194618E0,-6.430710852E-2,9.703763972E0
3.340797932E0,-7.836493850E-2,9.731908798E0,-5.712864175E-2,9.732391977E0
3.343223817E0,-7.836493850E-2,9.717552185E0,-4.516452923E-2,9.717973110E0
3.345649703E0,-1.046859920E-1,9.707980156E0,-5.234299600E-2,9.708685681E0
3.348075536E0,-7.836493850E-2,9.693623543E0,-5.712864175E-2,9.694108630E0
3.350501422E0,-9.272187948E-2,9.686445236E0,-5.952146277E-2,9.687071873E0
3.352927307E0,-6.640082598E-2,9.696016312E0,-6.909275055E-2,9.696489839E0
3.355353192E0,-8.554340899E-2,9.696016312E0,-5.952146277E-2,9.696576344E0
3.357779078E0,-9.032905847E-2,9.703194618E0,-6.669992954E-2,9.703844291E0
3.360204963E0,-9.750752151E-2,9.707980156E0,-4.995017126E-2,9.708598325E0
3.362630849E0,-7.357929647E-2,9.727123260E0,-4.277170449E-2,9.727495580E0
3.365056734E0,-6.161518395E-2,9.741479874E0,-4.037888348E-2,9.741758415E0
3.367482620E0,-5.204389244E-2,9.717552185E0,-4.277170449E-2,9.717785677E0
3.369908505E0,-5.204389244E-2,9.717552185E0,-5.952146277E-2,9.717873833E0
3.372334390E0,-5.922235921E-2,9.693623543E0,-4.995017126E-2,9.693933139E0
3.374760224E0,-7.836493850E-2,9.712766647E0,-3.798605874E-2,9.713157054E0
3.377186109E0,-9.272187948E-2,9.703194618E0,-4.755735025E-2,9.703754163E0
3.379611995E0,-1.022931710E-1,9.719944954E0,-4.995017126E-2,9.720611546E0
3.382037880E0,-6.400800496E-2,9.700801849E0,-5.473581702E-2,9.701167433E0
3.384463765E0,-6.400800496E-2,9.703194618E0,-5.712864175E-2,9.703573904E0
3.386889651E0,-6.400800496E-2,9.727123260E0,-5.234299600E-2,9.727474685E0
3.389315536E0,-9.750752151E-2,9.710372925E0,-4.995017126E-2,9.710990942E0
3.391741422E0,-6.400800496E-2,9.710372925E0,-2.841476910E-2,9.710625457E0
3.394167307E0,-7.836493850E-2,9.700801849E0,-4.995017126E-2,9.701246961E0
3.396593192E0,-7.836493850E-2,9.686445236E0,-5.952146277E-2,9.686945090E0
3.399019078E0,-7.118647546E-2,9.686445236E0,-5.234299600E-2,9.686848229E0
3.401444911E0,-8.075776696E-2,9.691230774E0,-5.712864175E-2,9.691735624E0
3.403870797E0,-8.554340899E-2,9.703194618E0,-5.712864175E-2,9.703739854E0
3.406296682E0,-6.400800496E-2,9.693623543E0,-4.755735025E-2,9.693951522E0
3.408722567E0,-4.965107143E-2,9.700801849E0,-4.995017126E-2,9.701057508E0
3.411148453E0,-7.597211748E-2,9.696016312E0,-4.995017126E-2,9.696442600E0
3.413574338E0,-5.204389244E-2,9.736694336E0,-6.669992954E-2,9.737061879E0
3.416000224E0,-8.315058798E-2,9.724730492E0,-6.191428751E-2,9.725283057E0
3.418426109E0,-8.075776696E-2,9.712766647E0,-4.755735025E-2,9.713218800E0
3.420851995E0,-9.511470050E-2,9.715159416E0,-2.841476910E-2,9.715666559E0
3.423277880E0,-8.554340899E-2,9.703194618E0,-3.080759197E-2,9.703620591E0
3.425703765E0,-6.640082598E-2,9.715159416E0,-3.798605874E-2,9.715460591E0
3.428129651E0,-6.879365444E-2,9.707980156E0,-5.234299600E-2,9.708365005E0
3.430555484E0,-7.597211748E-2,9.698409081E0,-3.559323773E-2,9.698771950E0
3.432981370E0,-1.262213886E-1,9.696016312E0,-3.320041299E-2,9.696894679E0
3.435407255E0,-9.750752151E-2,9.696016312E0,-4.995017126E-2,9.696635244E0
3.437833140E0,-8.793623000E-2,9.703194618E0,-4.037888348E-2,9.703677088E0
3.440259026E0,-7.836493850E-2,9.679266930E0,-3.798605874E-2,9.679658687E0
3.442684911E0,-7.357929647E-2,9.688838005E0,-4.755735025E-2,9.689234103E0
3.445110797E0,-7.597211748E-2,9.698409081E0,-4.516452923E-2,9.698811798E0
3.447536682E0,-8.793623000E-2,9.676874161E0,-2.362912335E-2,9.677302550E0
3.449962567E0,-8.075776696E-2,9.693623543E0,-3.559323773E-2,9.694025278E0
3.452388453E0,-5.204389244E-2,9.696016312E0,-4.037888348E-2,9.696240062E0
3.454814338E0,-8.075776696E-2,9.686445236E0,-6.430710852E-2,9.686995331E0
3.457240224E0,-6.879365444E-2,9.710372925E0,-4.516452923E-2,9.710721638E0
3.459666057E0,-4.965107143E-2,9.719944954E0,-3.320041299E-2,9.720128466E0
3.462091942E0,-9.511470050E-2,9.696016312E0,-6.191428751E-2,9.696680489E0
3.464517828E0,-6.640082598E-2,9.696016312E0,-7.866404206E-2,9.696562763E0
3.466943713E0,-8.793623000E-2,9.727123260E0,-5.952146277E-2,9.727702838E0
3.469369599E0,-8.075776696E-2,9.705587387E0,-5.712864175E-2,9.706091491E0
3.471795484E0,-9.511470050E-2,9.698409081E0,-6.669992954E-2,9.699104824E0
3.474221370E0,-8.554340899E-2,9.705587387E0,-6.430710852E-2,9.706177394E0
3.476647255E0,-7.597211748E-2,9.698409081E0,-5.952146277E-2,9.698889280E0
3.479073140E0,-6.161518395E-2,9.700801849E0,-7.387840003E-2,9.701278832E0
3.481499026E0,-7.836493850E-2,9.681659698E0,-3.320041299E-2,9.682033766E0
3.483924911E0,-6.640082598E-2,9.657731056E0,-4.995017126E-2,9.658088488E0
3.486350797E0,-5.443671346E-2,9.707980156E0,-4.755735025E-2,9.708249264E0
3.488776630E0,-7.836493850E-2,9.705587387E0,-4.995017126E-2,9.706032280E0
3.491202515E0,-7.597211748E-2,9.705587387E0,-6.909275055E-2,9.706130645E0
3.493628401E0,-8.075776696E-2,9.710372925E0,-6.909275055E-2,9.710954534E0
3.496054286E0,-7.836493850E-2,9.717552185E0,-5.473581702E-2,9.718022306E0
3.498480172E0,-8.075776696E-2,9.693623543E0,-5.473581702E-2,9.694114463E0
3.500906057E0,-9.990034252E-2,9.715159416E0,-4.516452923E-2,9.715778013E0
3.503331942E0,-7.836493850E-2,9.722337723E0,-3.080759197E-2,9.722702349E0
3.505757828E0,-6.879365444E-2,9.717552185E0,-5.473581702E-2,9.717949838E0
3.508183713E0,-8.075776696E-2,9.700801849E0,-5.234299600E-2,9.701279201E0
3.510609599E0,-8.075776696E-2,9.712766647E0,-5.473581702E-2,9.713256600E0
3.513035484E0,-8.075776696E-2,9.676874161E0,-4.516452923E-2,9.677316528E0
3.515461370E0,-9.750752151E-2,9.700801849E0,-4.516452923E-2,9.701397017E0
3.517887203E0,-8.075776696E-2,9.698409081E0,-5.712864175E-2,9.698913557E0
3.520313088E0,-9.990034252E-2,9.700801849E0,-5.712864175E-2,9.701484437E0
3.522738974E0,-8.554340899E-2,9.724730492E0,-6.909275055E-2,9.725352159E0
3.525164859E0,-7.357929647E-2,9.696016312E0,-5.952146277E-2,9.696478177E0
3.527590745E0,-5.922235921E-2,9.712766647E0,-5.952146277E-2,9.713129570E0
3.530016630E0,-7.836493850E-2,9.715159416E0,-5.712864175E-2,9.715643428E0
3.532442515E0,-6.640082598E-2,9.715159416E0,-4.755735025E-2,9.715502728E0
3.534868401E0,-1.094716340E-1,9.686445236E0,-6.191428751E-2,9.687261674E0
3.537294286E0,-4.725824669E-2,9.698409081E0,-5.473581702E-2,9.698678675E0
3.539720172E0,-6.879365444E-2,9.696016312E0,-5.234299600E-2,9.696401635E0
3.542146057E0,-9.272187948E-2,9.707980156E0,-5.712864175E-2,9.708591027E0
3.544571890E0,-9.032905847E-2,9.712766647E0,-4.995017126E-2,9.713315104E0
3.546997776E0,-1.046859920E-1,9.693623543E0,-4.277170449E-2,9.694283159E0
3.549423661E0,-7.118647546E-2,9.707980156E0,-4.755735025E-2,9.708357633E0
3.551849547E0,-6.640082598E-2,9.693623543E0,-4.516452923E-2,9.693956173E0
3.554275432E0,-9.272187948E-2,9.707980156E0,-6.191428751E-2,9.708620367E0
3.556701317E0,-1.046859920E-1,9.698409081E0,-4.277170449E-2,9.699068371E0
3.559127203E0,-9.511470050E-2,9.698409081E0,-4.516452923E-2,9.698980634E0
3.561553088E0,-8.554340899E-2,9.698409081E0,-3.559323773E-2,9.698851646E0
3.563978974E0,-8.315058798E-2,9.707980156E0,-3.559323773E-2,9.708401496E0
3.566404859E0,-7.357929647E-2,9.698409081E0,-2.602194622E-2,9.698723099E0
3.568830745E0,-9.272187948E-2,9.696016312E0,-4.995017126E-2,9.696588301E0
3.571256630E0,-6.640082598E-2,9.688838005E0,-3.320041299E-2,9.689122418E0
3.573682515E0,-9.750752151E-2,9.693623543E0,-5.234299600E-2,9.694255252E0
3.576108349E0,-9.750752151E-2,9.703194618E0,-4.277170449E-2,9.703778797E0
3.578534234E0,-8.554340899E-2,9.698409081E0,-4.995017126E-2,9.698914959E0
3.580960120E0,-7.836493850E-2,9.707980156E0,-3.798605874E-2,9.708370755E0
3.583386005E0,-8.315058798E-2,9.688838005E0,-4.037888348E-2,9.689278939E0
3.585811890E0,-9.032905847E-2,9.681659698E0,-3.080759197E-2,9.682130084E0
3.588237776E0,-8.315058798E-2,9.705587387E0,-4.755735025E-2,9.706060079E0
3.590663661E0,-6.161518395E-2,9.691230774E0,-4.037888348E-2,9.691510759E0
3.593089547E0,-9.032905847E-2,9.698409081E0,-4.277170449E-2,9.698924036E0
3.595515432E0,-6.879365444E-2,9.681659698E0,-3.080759197E-2,9.681953119E0
3.597941317E0,-7.357929647E-2,9.700801849E0,-5.234299600E-2,9.701222099E0
3.600367203E0,-6.879365444E-2,9.681659698E0,-4.995017126E-2,9.682032953E0
3.602793036E0,-9.511470050E-2,9.684052467E0,-4.037888348E-2,9.684603732E0
3.605218922E0,-7.118647546E-2,9.691230774E0,-7.148557901E-2,9.691755858E0
3.607644807E0,-6.879365444E-2,9.705587387E0,-3.798605874E-2,9.705905524E0
3.610070692E0,-8.554340899E-2,9.688838005E0,-5.234299600E-2,9.689357014E0
3.612496578E0,-9.272187948E-2,9.715159416E0,-7.627122104E-2,9.715901251E0
3.614922463E0,-6.879365444E-2,9.710372925E0,-4.037888348E-2,9.710700560E0
3.617348349E0,-6.640082598E-2,9.696016312E0,-4.995017126E-2,9.696372332E0
3.619774234E0,-8.793623000E-2,9.691230774E0,-6.191428751E-2,9.691827489E0
3.622200120E0,-8.075776696E-2,9.700801849E0,-3.559323773E-2,9.701203287E0
3.624626005E0,-9.750752151E-2,9.688838005E0,-7.387840003E-2,9.689610293E0
3.627051890E0,-9.272187948E-2,9.698409081E0,-4.516452923E-2,9.698957463E0
3.629477776E0,-9.272187948E-2,9.715159416E0,-5.712864175E-2,9.715769836E0
3.631903609E0,-7.597211748E-2,9.693623543E0,-4.277170449E-2,9.694015606E0
3.634329495E0,-6.640082598E-2,9.710372925E0,-4.516452923E-2,9.710704982E0
3.636755380E0,-7.357929647E-2,9.669695854E0,-5.952146277E-2,9.670158976E0
3.639181265E0,-6.400800496E-2,9.700801849E0,-5.234299600E-2,9.701154227E0
3.641607151E0,-6.640082598E-2,9.691230774E0,-3.559323773E-2,9.691523609E0
3.644033036E0,-9.990034252E-2,9.707980156E0,-3.798605874E-2,9.708568470E0
3.646458922E0,-7.118647546E-2,9.703194618E0,-5.473581702E-2,9.703610118E0
3.648884807E0,-6.879365444E-2,9.676874161E0,-4.277170449E-2,9.677213210E0
3.651310692E0,-7.836493850E-2,9.707980156E0,-6.191428751E-2,9.708493866E0
3.653736578E0,-6.640082598E-2,9.700801849E0,-4.037888348E-2,9.701113134E0
3.656162463E0,-8.793623000E-2,9.700801849E0,-5.952146277E-2,9.701383000E0
3.658588349E0,-8.554340899E-2,9.686445236E0,-3.798605874E-2,9.686897436E0
3.661014182E0,-8.554340899E-2,9.715159416E0,-4.995017126E-2,9.715664423E0
3.663440067E0,-9.032905847E-2,9.707980156E0,-4.037888348E-2,9.708484357E0
3.665865953E0,-7.597211748E-2,9.724730492E0,-5.234299600E-2,9.725168106E0
3.668291838E0,-7.597211748E-2,9.722337723E0,-2.841476910E-2,9.722676070E0
3.670717724E0,-7.357929647E-2,9.705587387E0,-4.516452923E-2,9.705971372E0
3.673143609E0,-6.879365444E-2,9.705587387E0,-5.234299600E-2,9.705972331E0
3.675569495E0,-7.118647546E-2,9.707980156E0,-5.952146277E-2,9.708423612E0
3.677995380E0,-8.075776696E-2,9.698409081E0,-4.755735025E-2,9.698861903E0
3.680421265E0,-7.118647546E-2,9.707980156E0,-4.755735025E-2,9.708357633E0
3.682847151E0,-8.075776696E-2,9.727123260E0,-3.559323773E-2,9.727523612E0
3.685273036E0,-7.836493850E-2,9.703194618E0,-4.995017126E-2,9.703639620E0
3.687698922E0,-7.836493850E-2,9.698409081E0,-4.755735025E-2,9.698842274E0
3.690124755E0,-6.161518395E-2,9.700801849E0,-4.755735025E-2,9.701114093E0
3.692550640E0,-7.597211748E-2,9.710372925E0,-3.798605874E-2,9.710744412E0
3.694976526E0,-7.357929647E-2,9.698409081E0,-1.884347759E-2,9.698706495E0
3.697402411E0,-8.554340899E-2,9.686445236E0,-2.841476910E-2,9.686864631E0
3.699828297E0,-6.640082598E-2,9.686445236E0,-6.430710852E-2,9.686886279E0
3.702254182E0,-9.032905847E-2,9.710372925E0,-5.473581702E-2,9.710947312E0
3.704680067E0,-7.597211748E-2,9.688838005E0,-4.037888348E-2,9.689219995E0
3.707105953E0,-8.315058798E-2,9.705587387E0,-5.952146277E-2,9.706126073E0
3.709531838E0,-7.357929647E-2,9.693623543E0,-6.669992954E-2,9.694132255E0
3.711957724E0,-1.094716340E-1,9.703194618E0,-5.234299600E-2,9.703953299E0
3.714383609E0,-7.118647546E-2,9.696016312E0,-6.909275055E-2,9.696523791E0
3.716809495E0,-9.032905847E-2,9.688838005E0,-5.234299600E-2,9.689400447E0
3.719235328E0,-8.554340899E-2,9.719944954E0,-3.320041299E-2,9.720378071E0
3.721661213E0,-7.118647546E-2,9.681659698E0,-4.755735025E-2,9.682038201E0
3.724087099E0,-8.075776696E-2,9.710372925E0,-4.755735025E-2,9.710825189E0
3.726512984E0,-7.597211748E-2,9.700801849E0,-6.669992954E-2,9.701328629E0
3.728938870E0,-8.554340899E-2,9.705587387E0,-4.755735025E-2,9.706080873E0
3.731364755E0,-8.315058798E-2,9.684052467E0,-3.559323773E-2,9.684474848E0
3.733790640E0,-6.879365444E-2,9.684052467E0,-3.798605874E-2,9.684371311E0
3.736216526E0,-8.075776696E-2,9.693623543E0,-3.798605874E-2,9.694034359E0
3.738642411E0,-8.075776696E-2,9.679266930E0,-3.798605874E-2,9.679678355E0
3.741068297E0,-7.118647546E-2,9.703194618E0,-4.516452923E-2,9.703560849E0
3.743494182E0,-7.118647546E-2,9.710372925E0,-2.841476910E-2,9.710675427E0
3.745920015E0,-8.315058798E-2,9.705587387E0,-3.798605874E-2,9.706017901E0
3.748345901E0,-9.990034252E-2,9.719944954E0,-4.995017126E-2,9.720586660E0
3.750771786E0,-8.075776696E-2,9.700801849E0,-5.234299600E-2,9.701279201E0
3.753197672E0,-8.075776696E-2,9.691230774E0,-4.516452923E-2,9.691672485E0
3.755623557E0,-7.836493850E-2,9.698409081E0,-4.037888348E-2,9.698809732E0
3.758049442E0,-8.554340899E-2,9.705587387E0,-2.841476910E-2,9.706005955E0
3.760475328E0,-7.597211748E-2,9.688838005E0,-4.755735025E-2,9.689252569E0
3.762901213E0,-1.046859920E-1,9.686445236E0,-4.995017126E-2,9.687139696E0
3.765327099E0,-9.750752151E-2,9.707980156E0,-6.430710852E-2,9.708682806E0
3.767752984E0,-8.793623000E-2,9.715159416E0,-6.430710852E-2,9.715770205E0
3.770178870E0,-9.272187948E-2,9.703194618E0,-5.712864175E-2,9.703805791E0
3.772604755E0,-8.075776696E-2,9.724730492E0,-5.952146277E-2,9.725247953E0
3.775030640E0,-7.118647546E-2,9.707980156E0,-6.430710852E-2,9.708454132E0
3.777456474E0,-9.032905847E-2,9.712766647E0,-5.234299600E-2,9.713327703E0
3.779882359E0,-7.597211748E-2,9.696016312E0,-4.995017126E-2,9.696442600E0
3.782308245E0,-1.094716340E-1,9.667302132E0,-6.669992954E-2,9.668152017E0
3.784734130E0,-7.118647546E-2,9.705587387E0,-4.995017126E-2,9.705976976E0
3.787160015E0,-6.879365444E-2,9.688838005E0,-5.473581702E-2,9.689236836E0
3.789585901E0,-8.075776696E-2,9.724730492E0,-3.798605874E-2,9.725139993E0
3.792011786E0,-6.640082598E-2,9.703194618E0,-4.516452923E-2,9.703526921E0
3.794437672E0,-1.022931710E-1,9.700801849E0,-5.712864175E-2,9.701509372E0
3.796863557E0,-9.272187948E-2,9.700801849E0,-5.234299600E-2,9.701386172E0
3.799289442E0,-8.075776696E-2,9.712766647E0,-4.755735025E-2,9.713218800E0
3.801715328E0,-7.836493850E-2,9.691230774E0,-2.602194622E-2,9.691582539E0
3.804141161E0,-7.118647546E-2,9.703194618E0,-3.798605874E-2,9.703530092E0
3.806567047E0,-9.511470050E-2,9.715159416E0,-4.995017126E-2,9.715753409E0
3.808992932E0,-8.315058798E-2,9.705587387E0,-3.798605874E-2,9.706017901E0
3.811418817E0,-9.272187948E-2,9.712766647E0,-3.559323773E-2,9.713274431E0
3.813844703E0,-7.357929647E-2,9.693623543E0,-2.362912335E-2,9.693931588E0
3.816270588E0,-7.357929647E-2,9.696016312E0,-4.277170449E-2,9.696389825E0
3.818696474E0,-8.554340899E-2,9.686445236E0,-3.080759197E-2,9.686871946E0
3.821122359E0,-9.032905847E-2,9.669695854E0,-2.602194622E-2,9.670152760E0
3.823548245E0,-5.443671346E-2,9.686445236E0,-4.277170449E-2,9.686692629E0
3.825974130E0,-7.597211748E-2,9.693623543E0,-6.191428751E-2,9.694118966E0
3.828400015E0,-1.022931710E-1,9.700801849E0,-5.712864175E-2,9.701509372E0
3.830825901E0,-7.357929647E-2,9.688838005E0,-6.191428751E-2,9.689315207E0
3.833251786E0,-6.640082598E-2,9.693623543E0,-6.191428751E-2,9.694048681E0
3.835677620E0,-8.075776696E-2,9.679266930E0,-5.473581702E-2,9.679758578E0
3.838103505E0,-8.075776696E-2,9.707980156E0,-7.148557901E-2,9.708579232E0
3.840529390E0,-7.118647546E-2,9.707980156E0,-7.387840003E-2,9.708522248E0
3.842955276E0,-8.793623000E-2,9.712766647E0,-7.627122104E-2,9.713464162E0
3.845381161E0,-8.793623000E-2,9.698409081E0,-5.712864175E-2,9.698975985E0
3.847807047E0,-8.793623000E-2,9.691230774E0,-7.866404206E-2,9.691948964E0
3.850232932E0,-8.793623000E-2,9.719944954E0,-6.430710852E-2,9.720555442E0
3.852658817E0,-8.315058798E-2,9.734301567E0,-5.473581702E-2,9.734810580E0
3.855084703E0,-9.272187948E-2,9.691230774E0,-4.516452923E-2,9.691779563E0
3.857510588E0,-9.990034252E-2,9.688838005E0,-6.909275055E-2,9.689599361E0
3.859936474E0,-9.511470050E-2,9.703194618E0,-4.277170449E-2,9.703755048E0
3.862362359E0,-6.161518395E-2,9.722337723E0,-2.602194622E-2,9.722567787E0
3.864788192E0,-8.554340899E-2,9.696016312E0,-3.798605874E-2,9.696468065E0
3.867214078E0,-9.272187948E-2,9.712766647E0,-2.362912335E-2,9.713237958E0
3.869639963E0,-9.272187948E-2,9.698409081E0,-2.362912335E-2,9.698881089E0
3.872065849E0,-8.315058798E-2,9.707980156E0,-1.166501082E-2,9.708343257E0
3.874491734E0,-8.554340899E-2,9.696016312E0,-3.320041299E-2,9.696450498E0
3.876917620E0,-8.315058798E-2,9.719944954E0,-3.320041299E-2,9.720357308E0
3.879343505E0,-7.597211748E-2,9.698409081E0,-2.362912335E-2,9.698735422E0
3.881769390E0,-7.357929647E-2,9.717552185E0,-2.602194622E-2,9.717865585E0
3.884195276E0,-6.161518395E-2,9.717552185E0,-4.037888348E-2,9.717831412E0
3.886621161E0,-7.836493850E-2,9.705587387E0,-5.952146277E-2,9.706086255E0
3.889047047E0,-8.554340899E-2,9.693623543E0,-5.712864175E-2,9.694169317E0
3.891472880E0,-8.554340899E-2,9.712766647E0,-5.952146277E-2,9.713325714E0
3.893898765E0,-9.511470050E-2,9.691230774E0,-5.952146277E-2,9.691880288E0
3.896324651E0,-8.075776696E-2,9.715159416E0,-5.234299600E-2,9.715636062E0
3.898750536E0,-1.094716340E-1,9.722337723E0,-7.387840003E-2,9.723234691E0
3.901176422E0,-8.315058798E-2,9.707980156E0,-5.234299600E-2,9.708477353E0
3.903602307E0,-9.990034252E-2,9.693623543E0,-4.037888348E-2,9.694222399E0
3.906028192E0,-8.075776696E-2,9.717552185E0,-5.234299600E-2,9.718028713E0
3.908454078E0,-7.836493850E-2,9.717552185E0,-4.037888348E-2,9.717952047E0
3.910879963E0,-1.022931710E-1,9.686445236E0,-4.037888348E-2,9.687069508E0
3.913305849E0,-6.400800496E-2,9.693623543E0,-4.516452923E-2,9.693940079E0
3.915731734E0,-5.922235921E-2,9.681659698E0,-5.473581702E-2,9.681995549E0
3.918157620E0,-8.793623000E-2,9.717552185E0,-4.037888348E-2,9.718033942E0
3.920583505E0,-8.554340899E-2,9.710372925E0,-3.080759197E-2,9.710798583E0
3.923009338E0,-9.032905847E-2,9.719944954E0,-4.277170449E-2,9.720458768E0
3.925435224E0,-7.357929647E-2,9.719944954E0,-4.037888348E-2,9.720307314E0
3.927861109E0,-9.990034252E-2,9.669695854E0,-1.884347759E-2,9.670230249E0
3.930286995E0,-7.118647546E-2,9.698409081E0,-4.277170449E-2,9.698764644E0
3.932712880E0,-7.836493850E-2,9.681659698E0,-5.712864175E-2,9.682145385E0
3.935138765E0,-7.118647546E-2,9.696016312E0,-3.080759197E-2,9.696326569E0
3.937564651E0,-6.879365444E-2,9.707980156E0,-3.559323773E-2,9.708289147E0
3.939990536E0,-6.879365444E-2,9.705587387E0,-3.559323773E-2,9.705896454E0
