"Time (s)","Acceleration x (m/s^2)","Acceleration y (m/s^2)","Acceleration z (m/s^2)","Absolute acceleration (m/s^2)"
2.546901900E-2,9.672686577E0,-1.028913707E-1,-1.671984792E-1,9.674678681E0
2.789490500E-2,9.665508270E0,-1.244267747E-1,-1.600200087E-1,9.667633555E0
3.032073800E-2,9.672686577E0,-9.092725813E-2,-1.648056656E-1,9.674517781E0
3.274662400E-2,9.670293808E0,-1.196411327E-1,-1.743769497E-1,9.672605836E0
3.517250900E-2,9.675079346E0,-1.124626622E-1,-1.648056656E-1,9.677136410E0
3.759839400E-2,9.689435959E0,-1.124626622E-1,-1.695913076E-1,9.691572538E0
4.002428000E-2,9.682257652E0,-7.896314561E-2,-1.743769497E-1,9.684149717E0
4.245011300E-2,9.684650421E0,-8.614161611E-2,-1.576271951E-1,9.686316147E0
4.487599900E-2,9.670293808E0,-1.076770201E-1,-1.887338907E-1,9.672734730E0
4.730188400E-2,9.684650421E0,-1.028913707E-1,-1.600200087E-1,9.686518818E0
4.972776900E-2,9.655936241E0,-1.220339537E-1,-1.863410622E-1,9.658505059E0
5.215360300E-2,9.675079346E0,-9.332008660E-2,-1.743769497E-1,9.677100615E0
5.457948800E-2,9.667901039E0,-1.100698411E-1,-1.648056656E-1,9.669932098E0
5.700537400E-2,9.679864883E0,-1.100698411E-1,-1.576271951E-1,9.681773901E0
5.943125900E-2,9.675079346E0,-1.052841991E-1,-1.600200087E-1,9.676975329E0
6.185714400E-2,9.663115501E0,-9.332008660E-2,-1.552343667E-1,9.664812856E0
6.428297800E-2,9.689435959E0,-1.148554832E-1,-1.480558962E-1,9.691247677E0
6.670886300E-2,9.672686577E0,-1.076770201E-1,-1.432702541E-1,9.674346816E0
6.913474900E-2,9.663115501E0,-1.004985496E-1,-1.648056656E-1,9.665043304E0
7.156063400E-2,9.694221497E0,-1.028913707E-1,-1.624128371E-1,9.696127835E0
7.398651900E-2,9.660722733E0,-1.028913707E-1,-1.576271951E-1,9.662556426E0
7.641235300E-2,9.672686577E0,-9.332008660E-2,-1.600200087E-1,9.674460226E0
7.883823800E-2,9.655936241E0,-9.810572863E-2,-1.648056656E-1,9.657840873E0
8.126412400E-2,9.682257652E0,-8.614161611E-2,-1.504487246E-1,9.683809604E0
8.369000900E-2,9.677472115E0,-1.124626622E-1,-1.600200087E-1,9.679448372E0
8.611589400E-2,9.665508270E0,-1.100698411E-1,-1.600200087E-1,9.667459433E0
8.854172800E-2,9.651150703E0,-1.124626622E-1,-1.695913076E-1,9.653295756E0
9.096761300E-2,9.663115501E0,-1.124626622E-1,-1.624128371E-1,9.665134607E0
9.339349900E-2,9.696614265E0,-8.853443712E-2,-1.648056656E-1,9.698418813E0
9.581938400E-2,9.677472115E0,-1.148554832E-1,-1.719841212E-1,9.679681650E0
9.824526900E-2,9.648757935E0,-1.244267747E-1,-1.767697781E-1,9.651179164E0
1.006711550E-1,9.701400757E0,-1.100698411E-1,-1.576271951E-1,9.703305537E0
1.030969880E-1,9.675079346E0,-9.571290761E-2,-1.600200087E-1,9.676875927E0
1.055228740E-1,9.679864883E0,-1.148554832E-1,-1.767697781E-1,9.682160064E0
1.079487590E-1,9.696614265E0,-1.148554832E-1,-1.695913076E-1,9.698777305E0
1.103746440E-1,9.679864883E0,-1.100698411E-1,-1.695913076E-1,9.681976076E0
1.128005300E-1,9.670293808E0,-1.268195957E-1,-1.695913076E-1,9.672612199E0
1.152263630E-1,9.665508270E0,-1.363908947E-1,-1.695913076E-1,9.667958099E0
1.176522490E-1,9.682257652E0,-1.028913707E-1,-1.624128371E-1,9.684166346E0
1.200781340E-1,9.672686577E0,-1.052841991E-1,-1.695913076E-1,9.674746074E0
1.225040190E-1,9.667901039E0,-1.244267747E-1,-1.695913076E-1,9.670188919E0
1.249298530E-1,9.684650421E0,-1.148554832E-1,-1.719841212E-1,9.686858319E0
1.273557380E-1,9.691828728E0,-1.172483116E-1,-1.648056656E-1,9.693938939E0
1.297816240E-1,9.672686577E0,-1.363908947E-1,-1.863410622E-1,9.675442681E0
1.322075090E-1,9.665508270E0,-1.076770201E-1,-1.624128371E-1,9.667472389E0
1.346333940E-1,9.694221497E0,-1.076770201E-1,-1.695913076E-1,9.696302696E0
1.370592280E-1,9.682257652E0,-9.810572863E-2,-1.743769497E-1,9.684324721E0
1.394851130E-1,9.675079346E0,-9.810572863E-2,-1.576271951E-1,9.676860618E0
1.419109990E-1,9.687043190E0,-9.571290761E-2,-1.600200087E-1,9.688837553E0
1.443368840E-1,9.670293808E0,-1.172483116E-1,-1.839482337E-1,9.672753819E0
1.467627690E-1,9.658329964E0,-1.339980662E-1,-1.576271951E-1,9.660545507E0
1.491886030E-1,9.665508270E0,-1.148554832E-1,-1.504487246E-1,9.667361415E0
1.516144880E-1,9.670293808E0,-1.028913707E-1,-1.504487246E-1,9.672011362E0
1.540403740E-1,9.687043190E0,-8.374879509E-2,-1.528415531E-1,9.688610848E0
1.564662590E-1,9.675079346E0,-1.052841991E-1,-1.528415531E-1,9.676859286E0
1.588921440E-1,9.677472115E0,-1.172483116E-1,-1.624128371E-1,9.679545011E0
1.613179780E-1,9.663115501E0,-1.124626622E-1,-1.576271951E-1,9.665055374E0
1.637438630E-1,9.653543472E0,-1.004985496E-1,-1.648056656E-1,9.655473186E0
1.661697490E-1,9.653543472E0,-1.052841991E-1,-1.648056656E-1,9.655524183E0
1.685956340E-1,9.660722733E0,-9.810572863E-2,-1.695913076E-1,9.662709230E0
1.710215190E-1,9.670293808E0,-9.571290761E-2,-1.456630826E-1,9.671864403E0
1.734474050E-1,9.667901039E0,-9.810572863E-2,-1.504487246E-1,9.669569280E0
1.758732380E-1,9.672686577E0,-1.052841991E-1,-1.552343667E-1,9.674505056E0
1.782991240E-1,9.679864883E0,-8.374879509E-2,-1.528415531E-1,9.681433704E0
1.807250090E-1,9.679864883E0,-9.571290761E-2,-1.624128371E-1,9.681700422E0
1.831508940E-1,9.694221497E0,-1.076770201E-1,-1.695913076E-1,9.696302696E0
1.855767280E-1,9.672686577E0,-1.076770201E-1,-1.648056656E-1,9.674689704E0
1.880026130E-1,9.665508270E0,-9.810572863E-2,-1.600200087E-1,9.667330617E0
1.904284990E-1,9.663115501E0,-1.004985496E-1,-1.624128371E-1,9.665002798E0
1.928543840E-1,9.665508270E0,-1.244267747E-1,-1.504487246E-1,9.667479866E0
1.952802690E-1,9.694221497E0,-1.172483116E-1,-1.600200087E-1,9.696251028E0
1.977061550E-1,9.672686577E0,-1.196411327E-1,-1.528415531E-1,9.674633851E0
2.001319880E-1,9.679864883E0,-9.810572863E-2,-1.671984792E-1,9.681805835E0
2.025578740E-1,9.675079346E0,-9.810572863E-2,-1.815554202E-1,9.677279961E0
2.049837590E-1,9.660722733E0,-1.100698411E-1,-1.648056656E-1,9.662755300E0
2.074096440E-1,9.679864883E0,-1.244267747E-1,-1.767697781E-1,9.682278334E0
2.098355300E-1,9.684650421E0,-1.363908947E-1,-1.719841212E-1,9.687137595E0
2.122613630E-1,9.682257652E0,-1.100698411E-1,-1.719841212E-1,9.684410522E0
2.146872490E-1,9.679864883E0,-1.124626622E-1,-1.911267042E-1,9.682404734E0
2.171131340E-1,9.675079346E0,-1.100698411E-1,-1.839482337E-1,9.677453832E0
2.195390190E-1,9.658329964E0,-9.810572863E-2,-1.935195327E-1,9.660766648E0
2.219648530E-1,9.672686577E0,-1.100698411E-1,-1.839482337E-1,9.675061650E0
2.243907380E-1,9.667901039E0,-1.244267747E-1,-1.600200087E-1,9.670025798E0
2.268166240E-1,9.672686577E0,-9.571290761E-2,-1.648056656E-1,9.674563943E0
2.292425090E-1,9.672686577E0,-1.124626622E-1,-1.695913076E-1,9.674826855E0
2.316683940E-1,9.684650421E0,-1.363908947E-1,-1.791625917E-1,9.687267700E0
2.340942280E-1,9.706186295E0,-9.092725813E-2,-1.911267042E-1,9.708493682E0
2.365201130E-1,9.660722733E0,-1.124626622E-1,-1.839482337E-1,9.663128299E0
2.389459990E-1,9.663115501E0,-1.268195957E-1,-1.695913076E-1,9.665435614E0
2.413718840E-1,9.670293808E0,-1.124626622E-1,-1.911267042E-1,9.672836171E0
2.437977690E-1,9.670293808E0,-1.220339537E-1,-1.839482337E-1,9.672813012E0
2.462236030E-1,9.689435959E0,-9.092725813E-2,-1.839482337E-1,9.691608428E0
2.486494880E-1,9.691828728E0,-1.148554832E-1,-1.743769497E-1,9.694077738E0
2.510753740E-1,9.665508270E0,-9.332008660E-2,-1.648056656E-1,9.667363636E0
2.535012590E-1,9.696614265E0,-7.896314561E-2,-1.863410622E-1,9.698726019E0
2.559271440E-1,9.675079346E0,-8.614161611E-2,-1.600200087E-1,9.676785992E0
2.583529780E-1,9.665508270E0,-1.244267747E-1,-1.648056656E-1,9.667713952E0
2.607788630E-1,9.682257652E0,-1.100698411E-1,-1.719841212E-1,9.684410522E0
2.632047490E-1,9.689435959E0,-1.292124242E-1,-1.695913076E-1,9.691781377E0
2.656306340E-1,9.687043190E0,-9.571290761E-2,-1.624128371E-1,9.688877368E0
2.680565190E-1,9.696614265E0,-1.100698411E-1,-1.528415531E-1,9.698443387E0
2.704824050E-1,9.682257652E0,-1.100698411E-1,-1.743769497E-1,9.684453311E0
2.729082380E-1,9.672686577E0,-1.100698411E-1,-1.576271951E-1,9.674597011E0
2.753341240E-1,9.646365166E0,-1.100698411E-1,-1.719841212E-1,9.648526044E0
2.777600090E-1,9.675079346E0,-8.853443712E-2,-1.552343667E-1,9.676729634E0
2.801858940E-1,9.701400757E0,-9.571290761E-2,-1.528415531E-1,9.703076736E0
2.826117280E-1,9.699007034E0,-9.332008660E-2,-1.600200087E-1,9.700775871E0
2.850376130E-1,9.694221497E0,-1.124626622E-1,-1.384846121E-1,9.695862843E0
2.874634990E-1,9.684650421E0,-9.810572863E-2,-1.576271951E-1,9.686429933E0
2.898893840E-1,9.672686577E0,-1.148554832E-1,-1.600200087E-1,9.674691923E0
2.923152690E-1,9.679864883E0,-9.810572863E-2,-1.839482337E-1,9.682109576E0
2.947411030E-1,9.675079346E0,-1.292124242E-1,-1.624128371E-1,9.677305107E0
2.971669880E-1,9.665508270E0,-1.148554832E-1,-1.528415531E-1,9.667398949E0
2.995928740E-1,9.675079346E0,-1.148554832E-1,-1.671984792E-1,9.677205560E0
3.020187590E-1,9.672686577E0,-1.100698411E-1,-1.863410622E-1,9.675107440E0
3.044446440E-1,9.699007034E0,-1.076770201E-1,-1.791625917E-1,9.701259250E0
3.068704780E-1,9.679864883E0,-1.124626622E-1,-1.552343667E-1,9.681762738E0
3.092963630E-1,9.663115501E0,-1.028913707E-1,-1.624128371E-1,9.665027975E0
3.117222490E-1,9.682257652E0,-1.028913707E-1,-1.743769497E-1,9.684374384E0
3.141481340E-1,9.670293808E0,-9.810572863E-2,-1.791625917E-1,9.672450894E0
3.165740190E-1,9.655936241E0,-1.076770201E-1,-1.815554202E-1,9.658243184E0
3.189998530E-1,9.651150703E0,-9.571290761E-2,-1.719841212E-1,9.653157483E0
3.214257380E-1,9.655936241E0,-1.076770201E-1,-1.600200087E-1,9.657862364E0
3.238516240E-1,9.660722733E0,-9.810572863E-2,-1.576271951E-1,9.662506651E0
3.262775090E-1,9.670293808E0,-1.244267747E-1,-1.600200087E-1,9.672418041E0
3.287033940E-1,9.689435959E0,-1.100698411E-1,-1.719841212E-1,9.691587234E0
3.311292280E-1,9.667901039E0,-1.076770201E-1,-1.743769497E-1,9.670073017E0
3.335551130E-1,9.672686577E0,-1.124626622E-1,-1.624128371E-1,9.674703685E0
3.359809990E-1,9.708579063E0,-8.853443712E-2,-1.719841212E-1,9.710505873E0
3.384068840E-1,9.682257652E0,-9.571290761E-2,-1.887338907E-1,9.684569928E0
3.408327690E-1,9.670293808E0,-1.220339537E-1,-1.863410622E-1,9.672858813E0
3.432586030E-1,9.679864883E0,-1.148554832E-1,-1.719841212E-1,9.682073873E0
3.456844880E-1,9.675079346E0,-1.172483116E-1,-1.695913076E-1,9.677275894E0
3.481103740E-1,9.687043190E0,-1.100698411E-1,-1.528415531E-1,9.688874118E0
3.505362590E-1,9.670293808E0,-9.810572863E-2,-1.863410622E-1,9.672586524E0
3.529621440E-1,9.672686577E0,-1.004985496E-1,-1.839482337E-1,9.674957495E0
3.553879780E-1,9.653543472E0,-1.124626622E-1,-1.863410622E-1,9.655996707E0
3.578138630E-1,9.667901039E0,-1.028913707E-1,-1.719841212E-1,9.669978060E0
3.602397490E-1,9.687043190E0,-1.100698411E-1,-1.624128371E-1,9.689029831E0
3.626656340E-1,9.677472115E0,-1.172483116E-1,-1.576271951E-1,9.679465896E0
3.650915190E-1,9.672686577E0,-1.148554832E-1,-1.552343667E-1,9.674613951E0
3.675173530E-1,9.677472115E0,-9.571290761E-2,-1.600200087E-1,9.679268252E0
3.699432380E-1,9.675079346E0,-1.316052526E-1,-1.624128371E-1,9.677337352E0
3.723691240E-1,9.687043190E0,-1.124626622E-1,-1.600200087E-1,9.689017495E0
3.747950090E-1,9.667901039E0,-9.332008660E-2,-1.624128371E-1,9.669715460E0
3.772208420E-1,9.684650421E0,-1.316052526E-1,-1.839482337E-1,9.687291194E0
3.796467280E-1,9.684650421E0,-9.571290761E-2,-1.576271951E-1,9.686405994E0
3.820726130E-1,9.675079346E0,-1.004985496E-1,-1.528415531E-1,9.676808402E0
3.844984990E-1,9.701400757E0,-1.052841991E-1,-1.719841212E-1,9.703496274E0
3.869243840E-1,9.691828728E0,-1.196411327E-1,-1.576271951E-1,9.693848793E0
3.893502170E-1,9.675079346E0,-9.092725813E-2,-1.839482337E-1,9.677255038E0
3.917761030E-1,9.701400757E0,-9.092725813E-2,-1.432702541E-1,9.702884663E0
3.942019880E-1,9.675079346E0,-1.196411327E-1,-1.767697781E-1,9.677433642E0
3.966278740E-1,9.677472115E0,-1.148554832E-1,-1.767697781E-1,9.679767862E0
3.990537590E-1,9.665508270E0,-8.853443712E-2,-1.671984792E-1,9.667359712E0
4.014795920E-1,9.675079346E0,-1.148554832E-1,-1.600200087E-1,9.677084196E0
4.039054780E-1,9.682257652E0,-9.571290761E-2,-1.648056656E-1,9.684133163E0
4.063313630E-1,9.679864883E0,-1.100698411E-1,-1.719841212E-1,9.682018285E0
4.087572490E-1,9.687043190E0,-1.004985496E-1,-1.600200087E-1,9.688886011E0
4.111831340E-1,9.672686577E0,-9.332008660E-2,-1.695913076E-1,9.674623272E0
4.136090190E-1,9.682257652E0,-1.052841991E-1,-1.743769497E-1,9.684400102E0
4.160348530E-1,9.682257652E0,-1.100698411E-1,-1.887338907E-1,9.684722458E0
4.184607380E-1,9.677472115E0,-1.244267747E-1,-1.791625917E-1,9.679930154E0
4.208866240E-1,9.684650421E0,-1.363908947E-1,-1.743769497E-1,9.687180373E0
4.233125090E-1,9.691828728E0,-1.100698411E-1,-1.576271951E-1,9.693735389E0
4.257383940E-1,9.699007034E0,-1.292124242E-1,-1.648056656E-1,9.701267660E0
4.281642280E-1,9.648757935E0,-1.004985496E-1,-1.648056656E-1,9.650688605E0
4.305901130E-1,9.675079346E0,-1.100698411E-1,-1.648056656E-1,9.677108898E0
4.330159990E-1,9.670293808E0,-1.316052526E-1,-1.767697781E-1,9.672804652E0
4.354418840E-1,9.699007034E0,-1.268195957E-1,-1.815554202E-1,9.701535086E0
4.378677690E-1,9.658329964E0,-1.244267747E-1,-1.671984792E-1,9.660578401E0
4.402936030E-1,9.665508270E0,-1.076770201E-1,-1.719841212E-1,9.667637923E0
4.427194880E-1,9.682257652E0,-1.148554832E-1,-1.935195327E-1,9.684872474E0
4.451453740E-1,9.670293808E0,-1.339980662E-1,-1.911267042E-1,9.673110525E0
4.475712590E-1,9.682257652E0,-1.004985496E-1,-1.624128371E-1,9.684141218E0
4.499970920E-1,9.687043190E0,-1.148554832E-1,-1.695913076E-1,9.689208366E0
4.524229780E-1,9.675079346E0,-1.196411327E-1,-1.719841212E-1,9.677347410E0
4.548488630E-1,9.687043190E0,-1.076770201E-1,-1.624128371E-1,9.689002943E0
4.572747490E-1,9.675079346E0,-1.028913707E-1,-1.648056656E-1,9.677029910E0
4.597006340E-1,9.672686577E0,-1.148554832E-1,-1.648056656E-1,9.674772261E0
4.621264670E-1,9.701400757E0,-9.332008660E-2,-1.743769497E-1,9.703416543E0
4.645523530E-1,9.672686577E0,-1.052841991E-1,-1.863410622E-1,9.675054179E0
4.669782380E-1,9.667901039E0,-1.028913707E-1,-1.695913076E-1,9.669935799E0
4.694041240E-1,9.651150703E0,-1.052841991E-1,-1.671984792E-1,9.653173053E0
4.718300090E-1,9.651150703E0,-9.571290761E-2,-1.671984792E-1,9.653073407E0
4.742558420E-1,9.679864883E0,-1.076770201E-1,-1.600200087E-1,9.681786246E0
4.766817280E-1,9.665508270E0,-1.004985496E-1,-1.576271951E-1,9.667315885E0
4.791076130E-1,9.670293808E0,-1.028913707E-1,-1.552343667E-1,9.672086987E0
4.815334990E-1,9.651150703E0,-9.571290761E-2,-1.600200087E-1,9.652951738E0
4.839593840E-1,9.677472115E0,-1.124626622E-1,-1.552343667E-1,9.679370439E0
4.863852170E-1,9.708579063E0,-1.100698411E-1,-1.576271951E-1,9.710482436E0
4.888111030E-1,9.689435959E0,-9.810572863E-2,-1.480558962E-1,9.691063640E0
4.912369880E-1,9.679864883E0,-1.100698411E-1,-1.743769497E-1,9.682061085E0
4.936628740E-1,9.682257652E0,-9.092725813E-2,-1.719841212E-1,9.684211870E0
4.960887590E-1,9.648757935E0,-1.100698411E-1,-1.767697781E-1,9.651004746E0
4.985145920E-1,9.677472115E0,-8.614161611E-2,-1.648056656E-1,9.679258640E0
5.009404780E-1,9.663115501E0,-1.052841991E-1,-1.600200087E-1,9.665013831E0
5.033663630E-1,9.689435959E0,-1.244267747E-1,-1.480558962E-1,9.691365836E0
5.057922490E-1,9.675079346E0,-1.076770201E-1,-1.695913076E-1,9.677164662E0
5.082181340E-1,9.653543472E0,-1.172483116E-1,-1.648056656E-1,9.655662051E0
5.106439670E-1,9.687043190E0,-9.810572863E-2,-1.767697781E-1,9.689152597E0
5.130698530E-1,9.696614265E0,-1.052841991E-1,-1.695913076E-1,9.698668681E0
5.154957380E-1,9.687043190E0,-8.853443712E-2,-1.719841212E-1,9.688974283E0
5.179216240E-1,9.672686577E0,-1.196411327E-1,-1.600200087E-1,9.674749920E0
5.203475090E-1,9.663115501E0,-1.220339537E-1,-1.504487246E-1,9.665057077E0
5.227733420E-1,9.655936241E0,-1.124626622E-1,-1.791625917E-1,9.658253040E0
5.251992280E-1,9.665508270E0,-1.052841991E-1,-1.791625917E-1,9.667741935E0
5.276251130E-1,9.679864883E0,-8.853443712E-2,-1.719841212E-1,9.681797408E0
5.300509990E-1,9.675079346E0,-1.100698411E-1,-1.600200087E-1,9.677028579E0
5.324768320E-1,9.675079346E0,-1.124626622E-1,-1.695913076E-1,9.677219095E0
5.349027170E-1,9.653543472E0,-1.100698411E-1,-1.648056656E-1,9.655577551E0
5.373286030E-1,9.660722733E0,-1.100698411E-1,-1.791625917E-1,9.663010831E0
5.397544880E-1,9.663115501E0,-1.052841991E-1,-1.719841212E-1,9.665219319E0
5.421803740E-1,9.663115501E0,-1.028913707E-1,-1.839482337E-1,9.665413844E0
5.446062070E-1,9.703793526E0,-9.810572863E-2,-1.695913076E-1,9.705771208E0
5.470320920E-1,9.672686577E0,-1.100698411E-1,-1.648056656E-1,9.674716631E0
5.494579780E-1,9.658329964E0,-1.339980662E-1,-1.695913076E-1,9.660748127E0
5.518838630E-1,9.667901039E0,-1.004985496E-1,-1.791625917E-1,9.670083231E0
5.543097490E-1,9.667901039E0,-1.172483116E-1,-1.648056656E-1,9.670016472E0
5.567355820E-1,9.663115501E0,-1.148554832E-1,-1.815554202E-1,9.665503367E0
5.591614670E-1,9.660722733E0,-8.135596663E-2,-1.671984792E-1,9.662511984E0
5.615873530E-1,9.679864883E0,-1.244267747E-1,-1.743769497E-1,9.682234944E0
5.640132380E-1,9.677472115E0,-1.076770201E-1,-1.863410622E-1,9.679864868E0
5.664391240E-1,9.677472115E0,-1.172483116E-1,-1.839482337E-1,9.679930302E0
5.688649570E-1,9.677472115E0,-1.148554832E-1,-1.671984792E-1,9.679597804E0
5.712908420E-1,9.687043190E0,-1.148554832E-1,-1.624128371E-1,9.689085379E0
5.737167280E-1,9.675079346E0,-9.810572863E-2,-1.743769497E-1,9.677147948E0
5.761426130E-1,9.663115501E0,-9.571290761E-2,-1.719841212E-1,9.665119797E0
5.785684990E-1,9.682257652E0,-8.614161611E-2,-1.791625917E-1,9.684298264E0
5.809943320E-1,9.687043190E0,-9.810572863E-2,-1.624128371E-1,9.688901301E0
5.834202170E-1,9.682257652E0,-1.004985496E-1,-1.528415531E-1,9.683985427E0
5.858461030E-1,9.658329964E0,-1.124626622E-1,-1.552343667E-1,9.660232049E0
5.882719880E-1,9.694221497E0,-1.004985496E-1,-1.648056656E-1,9.696143114E0
5.906978740E-1,9.677472115E0,-1.076770201E-1,-1.456630826E-1,9.679167247E0
5.931237070E-1,9.689435959E0,-9.092725813E-2,-1.648056656E-1,9.691263998E0
5.955495920E-1,9.677472115E0,-9.810572863E-2,-1.719841212E-1,9.679497394E0
5.979754780E-1,9.679864883E0,-1.004985496E-1,-1.648056656E-1,9.681789350E0
6.004013630E-1,9.687043190E0,-8.853443712E-2,-1.719841212E-1,9.688974283E0
6.028272490E-1,9.691828728E0,-9.332008660E-2,-1.743769497E-1,9.693846504E0
6.052530820E-1,9.682257652E0,-1.268195957E-1,-1.719841212E-1,9.684615377E0
6.076789670E-1,9.658329964E0,-1.244267747E-1,-1.719841212E-1,9.660662412E0
6.101048530E-1,9.672686577E0,-1.076770201E-1,-1.600200087E-1,9.674609365E0
6.125307380E-1,9.665508270E0,-9.810572863E-2,-1.767697781E-1,9.667622376E0
6.149566240E-1,9.682257652E0,-1.124626622E-1,-1.743769497E-1,9.684480803E0
6.173824570E-1,9.672686577E0,-9.092725813E-2,-1.767697781E-1,9.674728985E0
6.198083420E-1,9.687043190E0,-9.092725813E-2,-1.504487246E-1,9.688638106E0
6.222342280E-1,9.672686577E0,-1.268195957E-1,-1.648056656E-1,9.674921691E0
6.246601130E-1,9.684650421E0,-9.092725813E-2,-1.719841212E-1,9.686604156E0
6.270859470E-1,9.682257652E0,-9.571290761E-2,-1.480558962E-1,9.683862595E0
6.295118320E-1,9.684650421E0,-1.172483116E-1,-1.671984792E-1,9.686803202E0
6.319377170E-1,9.687043190E0,-1.172483116E-1,-1.719841212E-1,9.689279203E0
6.343636030E-1,9.684650421E0,-1.052841991E-1,-1.719841212E-1,9.686749562E0
6.367894880E-1,9.696614265E0,-1.148554832E-1,-1.528415531E-1,9.698498881E0
6.392153220E-1,9.667901039E0,-1.244267747E-1,-1.432702541E-1,9.669763125E0
6.416412070E-1,9.684650421E0,-1.004985496E-1,-1.839482337E-1,9.686918534E0
6.440670920E-1,9.672686577E0,-1.172483116E-1,-1.743769497E-1,9.674968739E0
6.464929780E-1,9.691828728E0,-1.148554832E-1,-1.600200087E-1,9.693830114E0
6.489188630E-1,9.677472115E0,-1.100698411E-1,-1.576271951E-1,9.679381604E0
6.513446970E-1,9.684650421E0,-9.810572863E-2,-1.791625917E-1,9.686804310E0
6.537705820E-1,9.660722733E0,-1.100698411E-1,-1.719841212E-1,9.662880400E0
6.561964670E-1,9.670293808E0,-1.124626622E-1,-1.648056656E-1,9.672351890E0
6.586223530E-1,9.665508270E0,-1.124626622E-1,-1.671984792E-1,9.667608458E0
6.610482380E-1,9.677472115E0,-1.052841991E-1,-1.648056656E-1,9.679447928E0
6.634740720E-1,9.675079346E0,-1.196411327E-1,-1.648056656E-1,9.677222497E0
6.658999570E-1,9.670293808E0,-1.004985496E-1,-1.791625917E-1,9.672475460E0
6.683258420E-1,9.682257652E0,-1.124626622E-1,-1.576271951E-1,9.684193690E0
6.707517280E-1,9.667901039E0,-1.148554832E-1,-1.552343667E-1,9.669829367E0
6.731776130E-1,9.703793526E0,-8.853443712E-2,-1.671984792E-1,9.705637664E0
6.756034990E-1,9.684650421E0,-9.332008660E-2,-1.600200087E-1,9.686421879E0
6.780293320E-1,9.670293808E0,-1.076770201E-1,-1.552343667E-1,9.672139080E0
6.804552170E-1,9.687043190E0,-8.853443712E-2,-1.695913076E-1,9.688932104E0
6.828811030E-1,9.689435959E0,-1.004985496E-1,-1.456630826E-1,9.691051898E0
6.853069880E-1,9.665508270E0,-8.614161611E-2,-1.432702541E-1,9.666953857E0
6.877328220E-1,9.689435959E0,-1.172483116E-1,-1.624128371E-1,9.691506297E0
6.901587070E-1,9.655936241E0,-9.092725813E-2,-1.719841212E-1,9.657895785E0
6.925845920E-1,9.675079346E0,-9.092725813E-2,-1.480558962E-1,9.676639327E0
6.950104780E-1,9.660722733E0,-1.076770201E-1,-1.671984792E-1,9.662769447E0
6.974363630E-1,9.651150703E0,-1.100698411E-1,-1.408774406E-1,9.652806417E0
6.998621970E-1,9.655936241E0,-1.196411327E-1,-1.576271951E-1,9.657963814E0
7.022880820E-1,9.667901039E0,-1.004985496E-1,-1.552343667E-1,9.669669496E0
7.047139670E-1,9.687043190E0,-1.244267747E-1,-1.408774406E-1,9.688866510E0
7.071398530E-1,9.679864883E0,-1.052841991E-1,-1.695913076E-1,9.681922853E0
7.095657380E-1,9.675079346E0,-1.148554832E-1,-1.624128371E-1,9.677124059E0
7.119915720E-1,9.672686577E0,-8.374879509E-2,-1.719841212E-1,9.674577924E0
7.144174570E-1,9.663115501E0,-1.004985496E-1,-1.480558962E-1,9.664772201E0
7.168433420E-1,9.665508270E0,-1.244267747E-1,-1.528415531E-1,9.667517400E0
7.192692280E-1,9.679864883E0,-1.316052526E-1,-1.552343667E-1,9.682004018E0
7.216951130E-1,9.687043190E0,-1.172483116E-1,-1.504487246E-1,9.688920876E0
7.241209470E-1,9.689435959E0,-1.148554832E-1,-1.504487246E-1,9.691284528E0
7.265468320E-1,9.687043190E0,-1.124626622E-1,-1.695913076E-1,9.689180297E0
7.289727170E-1,9.670293808E0,-1.316052526E-1,-1.743769497E-1,9.672761219E0
7.313986030E-1,9.691828728E0,-1.148554832E-1,-1.767697781E-1,9.694121075E0
7.338244880E-1,9.670293808E0,-1.076770201E-1,-1.695913076E-1,9.672380156E0
7.362503220E-1,9.677472115E0,-1.124626622E-1,-1.576271951E-1,9.679409110E0
7.386762070E-1,9.677472115E0,-1.148554832E-1,-1.695913076E-1,9.679639431E0
7.411020920E-1,9.670293808E0,-1.100698411E-1,-1.743769497E-1,9.672492183E0
7.435279780E-1,9.672686577E0,-1.148554832E-1,-1.671984792E-1,9.674813317E0
7.459538110E-1,9.670293808E0,-1.052841991E-1,-1.528415531E-1,9.672074629E0
7.483796970E-1,9.696614265E0,-8.374879509E-2,-1.600200087E-1,9.698296164E0
7.508055820E-1,9.694221497E0,-1.100698411E-1,-1.600200087E-1,9.696166882E0
7.532314670E-1,9.679864883E0,-9.571290761E-2,-1.600200087E-1,9.681660577E0
7.556573530E-1,9.689435959E0,-1.028913707E-1,-1.528415531E-1,9.691187563E0
7.580831860E-1,9.675079346E0,-1.124626622E-1,-1.624128371E-1,9.677095955E0
7.605090720E-1,9.682257652E0,-1.052841991E-1,-1.528415531E-1,9.684036274E0
7.629349570E-1,9.677472115E0,-9.810572863E-2,-1.671984792E-1,9.679413546E0
7.653608420E-1,9.684650421E0,-1.148554832E-1,-1.719841212E-1,9.686858319E0
7.677867280E-1,9.658329964E0,-1.148554832E-1,-1.408774406E-1,9.660040162E0
7.702125610E-1,9.655936241E0,-1.004985496E-1,-1.408774406E-1,9.657486790E0
7.726384470E-1,9.660722733E0,-1.172483116E-1,-1.671984792E-1,9.662880844E0
7.750643320E-1,9.660722733E0,-1.076770201E-1,-1.576271951E-1,9.662608571E0
7.774902170E-1,9.658329964E0,-1.100698411E-1,-1.719841212E-1,9.660488165E0
7.799161030E-1,9.651150703E0,-1.172483116E-1,-1.432702541E-1,9.652926159E0
7.823419360E-1,9.689435959E0,-7.657032460E-2,-1.528415531E-1,9.690943853E0
7.847678220E-1,9.677472115E0,-8.853443712E-2,-1.600200087E-1,9.679199930E0
7.871937070E-1,9.677472115E0,-8.614161611E-2,-1.624128371E-1,9.679218193E0
7.896195920E-1,9.675079346E0,-8.614161611E-2,-1.504487246E-1,9.676632448E0
7.920454780E-1,9.679864883E0,-1.052841991E-1,-1.504487246E-1,9.681606465E0
7.944713110E-1,9.675079346E0,-9.571290761E-2,-1.671984792E-1,9.676997295E0
7.968971970E-1,9.689435959E0,-1.028913707E-1,-1.504487246E-1,9.691150120E0
7.993230820E-1,9.684650421E0,-1.268195957E-1,-1.648056656E-1,9.686882775E0
8.017489670E-1,9.663115501E0,-1.052841991E-1,-1.456630826E-1,9.664786790E0
8.041748530E-1,9.653543472E0,-1.292124242E-1,-1.552343667E-1,9.655656121E0
8.066006860E-1,9.675079346E0,-1.028913707E-1,-1.480558962E-1,9.676759144E0
8.090265720E-1,9.672686577E0,-1.052841991E-1,-1.552343667E-1,9.674505056E0
8.114524570E-1,9.658329964E0,-1.148554832E-1,-1.456630826E-1,9.660111138E0
8.138783420E-1,9.675079346E0,-9.092725813E-2,-1.552343667E-1,9.676751822E0
8.163042280E-1,9.675079346E0,-1.076770201E-1,-1.528415531E-1,9.676885616E0
8.187300610E-1,9.658329964E0,-1.052841991E-1,-1.719841212E-1,9.660434824E0
8.211559470E-1,9.672686577E0,-1.172483116E-1,-1.695913076E-1,9.674883668E0
8.235818320E-1,9.679864883E0,-9.092725813E-2,-1.552343667E-1,9.681536533E0
8.260077170E-1,9.679864883E0,-8.614161611E-2,-1.384846121E-1,9.681238688E0
8.284336030E-1,9.660722733E0,-8.135596663E-2,-1.504487246E-1,9.662236663E0
8.308594360E-1,9.639186859E0,-1.172483116E-1,-1.576271951E-1,9.641188558E0
8.332853220E-1,9.667901039E0,-1.028913707E-1,-1.719841212E-1,9.669978060E0
8.357112070E-1,9.675079346E0,-9.571290761E-2,-1.528415531E-1,9.676759884E0
8.381370920E-1,9.658329964E0,-1.316052526E-1,-1.600200087E-1,9.660551953E0
8.405629780E-1,9.682257652E0,-1.052841991E-1,-1.576271951E-1,9.684112987E0
8.429888110E-1,9.682257652E0,-1.052841991E-1,-1.456630826E-1,9.683925637E0
8.454146970E-1,9.677472115E0,-1.196411327E-1,-1.576271951E-1,9.679495176E0
8.478405820E-1,9.679864883E0,-9.810572863E-2,-1.624128371E-1,9.681724372E0
8.502664670E-1,9.658329964E0,-1.004985496E-1,-1.671984792E-1,9.660299839E0
8.526923530E-1,9.694221497E0,-9.332008660E-2,-1.504487246E-1,9.695837967E0
8.551181860E-1,9.677472115E0,-1.124626622E-1,-1.456630826E-1,9.679221669E0
8.575440720E-1,9.701400757E0,-9.332008660E-2,-1.815554202E-1,9.703548199E0
8.599699570E-1,9.687043190E0,-9.332008660E-2,-1.624128371E-1,9.688854026E0
8.623958420E-1,9.670293808E0,-1.172483116E-1,-1.791625917E-1,9.672663994E0
8.648216760E-1,9.660722733E0,-9.810572863E-2,-1.719841212E-1,9.662751523E0
8.672475610E-1,9.655936241E0,-1.172483116E-1,-1.504487246E-1,9.657819975E0
8.696734470E-1,9.660722733E0,-1.052841991E-1,-1.648056656E-1,9.662701971E0
8.720993320E-1,9.658329964E0,-9.332008660E-2,-1.767697781E-1,9.660398226E0
8.745252170E-1,9.665508270E0,-9.092725813E-2,-1.719841212E-1,9.667465874E0
8.769510510E-1,9.670293808E0,-1.148554832E-1,-1.576271951E-1,9.672260359E0
8.793769360E-1,9.670293808E0,-1.172483116E-1,-1.528415531E-1,9.672212262E0
8.818028220E-1,9.710971832E0,-1.124626622E-1,-1.648056656E-1,9.713021295E0
8.842287070E-1,9.691828728E0,-1.076770201E-1,-1.504487246E-1,9.693594444E0
8.866545400E-1,9.677472115E0,-1.052841991E-1,-1.767697781E-1,9.679659025E0
8.890804260E-1,9.679864883E0,-1.076770201E-1,-1.695913076E-1,9.681949169E0
8.915063110E-1,9.672686577E0,-1.124626622E-1,-1.504487246E-1,9.674510235E0
8.939321970E-1,9.665508270E0,-1.196411327E-1,-1.576271951E-1,9.667533835E0
8.963580820E-1,9.691828728E0,-1.196411327E-1,-1.719841212E-1,9.694092873E0
8.987839670E-1,9.699007034E0,-1.004985496E-1,-1.624128371E-1,9.700887348E0
9.012098010E-1,9.699007034E0,-1.076770201E-1,-1.743769497E-1,9.701172048E0
9.036356860E-1,9.694221497E0,-1.100698411E-1,-1.719841212E-1,9.696371710E0
9.060615720E-1,9.667901039E0,-1.100698411E-1,-1.671984792E-1,9.669973175E0
9.084874570E-1,9.670293808E0,-1.363908947E-1,-1.695913076E-1,9.672742425E0
9.109133420E-1,9.677472115E0,-1.148554832E-1,-1.600200087E-1,9.679476469E0
9.133391760E-1,9.684650421E0,-8.374879509E-2,-1.719841212E-1,9.686539433E0
9.157650610E-1,9.658329964E0,-1.076770201E-1,-1.671984792E-1,9.660377185E0
9.181909470E-1,9.667901039E0,-1.196411327E-1,-1.671984792E-1,9.670086858E0
9.206168320E-1,9.684650421E0,-1.028913707E-1,-1.528415531E-1,9.686402890E0
9.230426650E-1,9.710971832E0,-8.853443712E-2,-1.743769497E-1,9.712940831E0
9.254685510E-1,9.684650421E0,-9.332008660E-2,-1.695913076E-1,9.686584725E0
9.278944360E-1,9.679864883E0,-1.196411327E-1,-1.791625917E-1,9.682261998E0
9.303203220E-1,9.677472115E0,-1.028913707E-1,-1.600200087E-1,9.679341897E0
9.327462070E-1,9.687043190E0,-1.124626622E-1,-1.528415531E-1,9.688901597E0
9.351720400E-1,9.670293808E0,-1.028913707E-1,-1.743769497E-1,9.672413157E0
9.375979260E-1,9.653543472E0,-1.076770201E-1,-1.552343667E-1,9.655391945E0
9.400238110E-1,9.684650421E0,-8.374879509E-2,-1.887338907E-1,9.686851301E0
9.424496970E-1,9.682257652E0,-9.571290761E-2,-1.528415531E-1,9.683936945E0
9.448755820E-1,9.667901039E0,-7.657032460E-2,-1.576271951E-1,9.669489120E0
9.473014150E-1,9.684650421E0,-9.332008660E-2,-1.935195327E-1,9.687033201E0
9.497273010E-1,9.684650421E0,-9.571290761E-2,-1.743769497E-1,9.686693041E0
9.521531860E-1,9.687043190E0,-9.571290761E-2,-1.743769497E-1,9.689085305E0
9.545790720E-1,9.658329964E0,-1.196411327E-1,-1.624128371E-1,9.660436306E0
9.570049570E-1,9.653543472E0,-1.004985496E-1,-1.528415531E-1,9.655276385E0
9.594307900E-1,9.655936241E0,-9.810572863E-2,-1.480558962E-1,9.657569569E0
9.618566760E-1,9.682257652E0,-1.028913707E-1,-1.480558962E-1,9.683936205E0
9.642825610E-1,9.675079346E0,-1.100698411E-1,-1.384846121E-1,9.676696425E0
9.667084470E-1,9.682257652E0,-1.124626622E-1,-1.552343667E-1,9.684155038E0
9.691343320E-1,9.684650421E0,-1.196411327E-1,-1.743769497E-1,9.686959022E0
9.715601650E-1,9.653543472E0,-1.148554832E-1,-1.552343667E-1,9.655474668E0
9.739860510E-1,9.679864883E0,-1.244267747E-1,-1.456630826E-1,9.681760373E0
9.764119360E-1,9.679864883E0,-1.196411327E-1,-1.528415531E-1,9.681810714E0
9.788378220E-1,9.684650421E0,-1.268195957E-1,-1.648056656E-1,9.686882775E0
9.812637070E-1,9.653543472E0,-8.853443712E-2,-1.456630826E-1,9.655048299E0
9.836895400E-1,9.648757935E0,-1.220339537E-1,-1.791625917E-1,9.651192735E0
9.861154260E-1,9.687043190E0,-9.332008660E-2,-1.624128371E-1,9.688854026E0
9.885413110E-1,9.682257652E0,-9.571290761E-2,-1.432702541E-1,9.683790610E0
9.909671970E-1,9.682257652E0,-1.100698411E-1,-1.791625917E-1,9.684540663E0
9.933930300E-1,9.677472115E0,-1.148554832E-1,-1.671984792E-1,9.679597804E0
9.958189150E-1,9.708579063E0,-1.004985496E-1,-1.624128371E-1,9.710457524E0
9.982448010E-1,9.667901039E0,-8.374879509E-2,-1.695913076E-1,9.669751061E0
1.000670686E0,9.677472115E0,-1.100698411E-1,-1.456630826E-1,9.679194162E0
1.003096572E0,9.665508270E0,-9.810572863E-2,-1.504487246E-1,9.667176924E0
1.005522405E0,9.675079346E0,-1.100698411E-1,-1.432702541E-1,9.676766096E0
1.007948290E0,9.655936241E0,-1.172483116E-1,-1.432702541E-1,9.657710817E0
1.010374176E0,9.670293808E0,-8.853443712E-2,-1.480558962E-1,9.671832361E0
1.012800061E0,9.696614265E0,-9.332008660E-2,-1.241276711E-1,9.697857729E0
1.015225947E0,9.672686577E0,-8.614161611E-2,-1.624128371E-1,9.674433519E0
1.017651780E0,9.677472115E0,-1.124626622E-1,-1.600200087E-1,9.679448372E0
1.020077665E0,9.663115501E0,-1.244267747E-1,-1.504487246E-1,9.665087585E0
1.022503551E0,9.679864883E0,-9.571290761E-2,-1.456630826E-1,9.681433926E0
1.024929436E0,9.675079346E0,-1.148554832E-1,-1.432702541E-1,9.676821714E0
1.027355322E0,9.675079346E0,-1.028913707E-1,-1.624128371E-1,9.676989455E0
1.029781155E0,9.682257652E0,-1.076770201E-1,-1.336989701E-1,9.683779376E0
1.032207040E0,9.696614265E0,-8.853443712E-2,-1.528415531E-1,9.698222884E0
1.034632926E0,9.684650421E0,-1.052841991E-1,-1.552343667E-1,9.686466655E0
1.037058811E0,9.677472115E0,-1.076770201E-1,-1.600200087E-1,9.679393952E0
1.039484644E0,9.670293808E0,-9.092725813E-2,-1.504487246E-1,9.671891486E0
1.041910530E0,9.658329964E0,-1.268195957E-1,-1.480558962E-1,9.660297172E0
1.044336415E0,9.653543472E0,-8.614161611E-2,-1.600200087E-1,9.655253925E0
1.046762301E0,9.653543472E0,-9.810572863E-2,-1.671984792E-1,9.655489715E0
1.049188186E0,9.677472115E0,-9.571290761E-2,-1.528415531E-1,9.679152237E0
1.051614072E0,9.684650421E0,-1.052841991E-1,-1.480558962E-1,9.686354272E0
1.054039905E0,9.672686577E0,-1.124626622E-1,-1.336989701E-1,9.674264255E0
1.056465790E0,9.660722733E0,-1.124626622E-1,-1.600200087E-1,9.662702415E0
1.058891676E0,9.670293808E0,-1.292124242E-1,-1.528415531E-1,9.672364691E0
1.061317561E0,9.689435959E0,-9.571290761E-2,-1.360917836E-1,9.690864313E0
1.063743394E0,9.670293808E0,-1.004985496E-1,-1.552343667E-1,9.672061828E0
1.066169280E0,9.660722733E0,-1.052841991E-1,-1.719841212E-1,9.662827072E0
1.068595165E0,9.665508270E0,-9.092725813E-2,-1.360917836E-1,9.666893961E0
1.071021051E0,9.677472115E0,-1.220339537E-1,-1.480558962E-1,9.679373914E0
1.073446936E0,9.682257652E0,-1.124626622E-1,-1.648056656E-1,9.684313192E0
1.075872769E0,9.675079346E0,-9.332008660E-2,-1.648056656E-1,9.676932876E0
1.078298655E0,9.684650421E0,-8.853443712E-2,-1.671984792E-1,9.686498204E0
1.080724540E0,9.679864883E0,-1.004985496E-1,-1.624128371E-1,9.681748915E0
1.083150426E0,9.672686577E0,-9.810572863E-2,-1.576271951E-1,9.674468289E0
1.085576311E0,9.670293808E0,-1.172483116E-1,-1.815554202E-1,9.672708611E0
1.088002144E0,9.667901039E0,-1.148554832E-1,-1.743769497E-1,9.670155614E0
1.090428030E0,9.665508270E0,-1.052841991E-1,-1.695913076E-1,9.667569296E0
1.092853915E0,9.655936241E0,-1.124626622E-1,-1.552343667E-1,9.657838798E0
1.095279801E0,9.675079346E0,-1.076770201E-1,-1.767697781E-1,9.677293126E0
1.097705686E0,9.677472115E0,-1.076770201E-1,-1.839482337E-1,9.679819101E0
1.100131519E0,9.679864883E0,-7.896314561E-2,-1.863410622E-1,9.681980290E0
1.102557405E0,9.670293808E0,-1.292124242E-1,-1.815554202E-1,9.672861032E0
1.104983290E0,9.643972397E0,-1.100698411E-1,-1.839482337E-1,9.646354540E0
1.107409176E0,9.684650421E0,-1.148554832E-1,-1.671984792E-1,9.686774535E0
1.109835061E0,9.691828728E0,-1.076770201E-1,-1.767697781E-1,9.694038683E0
1.112260894E0,9.663115501E0,-1.124626622E-1,-1.695913076E-1,9.665257899E0
1.114686780E0,9.660722733E0,-1.052841991E-1,-1.743769497E-1,9.662869957E0
1.117112665E0,9.665508270E0,-1.148554832E-1,-1.743769497E-1,9.667763403E0
1.119538551E0,9.646365166E0,-1.172483116E-1,-1.743769497E-1,9.648653554E0
1.121964436E0,9.648757935E0,-1.004985496E-1,-1.863410622E-1,9.651080387E0
1.124390269E0,9.655936241E0,-1.148554832E-1,-1.695913076E-1,9.658108391E0
1.126816155E0,9.655936241E0,-9.571290761E-2,-1.671984792E-1,9.657857992E0
1.129242040E0,9.655936241E0,-1.268195957E-1,-1.815554202E-1,9.658475567E0
1.131667926E0,9.679864883E0,-1.100698411E-1,-1.624128371E-1,9.681852997E0
1.134093759E0,9.646365166E0,-9.571290761E-2,-1.719841212E-1,9.648372941E0
1.136519644E0,9.682257652E0,-1.124626622E-1,-1.719841212E-1,9.684438013E0
1.138945530E0,9.667901039E0,-1.076770201E-1,-1.719841212E-1,9.670030164E0
1.141371415E0,9.689435959E0,-9.332008660E-2,-1.408774406E-1,9.690909364E0
1.143797301E0,9.667901039E0,-1.100698411E-1,-1.504487246E-1,9.669698066E0
1.146223134E0,9.663115501E0,-1.148554832E-1,-1.695913076E-1,9.665286038E0
1.148649019E0,9.677472115E0,-1.148554832E-1,-1.528415531E-1,9.679360457E0
1.151074905E0,9.696614265E0,-1.148554832E-1,-1.552343667E-1,9.698536885E0
1.153500790E0,9.660722733E0,-1.076770201E-1,-1.624128371E-1,9.662687824E0
1.155926676E0,9.679864883E0,-1.028913707E-1,-1.648056656E-1,9.681814484E0
1.158352509E0,9.663115501E0,-9.571290761E-2,-1.528415531E-1,9.664798120E0
1.160778394E0,9.655936241E0,-1.052841991E-1,-1.671984792E-1,9.657957589E0
1.163204280E0,9.689435959E0,-1.028913707E-1,-1.552343667E-1,9.691225596E0
1.165630165E0,9.682257652E0,-9.092725813E-2,-1.456630826E-1,9.683780189E0
1.168055999E0,9.689435959E0,-9.810572863E-2,-1.600200087E-1,9.691253806E0
1.170481884E0,9.677472115E0,-9.571290761E-2,-1.552343667E-1,9.679190317E0
1.172907769E0,9.653543472E0,-1.196411327E-1,-1.528415531E-1,9.655494607E0
1.175333655E0,9.684650421E0,-9.571290761E-2,-1.600200087E-1,9.686445227E0
1.177759540E0,9.672686577E0,-1.100698411E-1,-1.552343667E-1,9.674558320E0
1.180185374E0,9.670293808E0,-1.124626622E-1,-1.432702541E-1,9.672008920E0
1.182611259E0,9.699007034E0,-1.316052526E-1,-1.528415531E-1,9.701103954E0
1.185037144E0,9.672686577E0,-1.076770201E-1,-1.576271951E-1,9.674570083E0
1.187463030E0,9.658329964E0,-9.810572863E-2,-1.576271951E-1,9.660114324E0
1.189888915E0,9.670293808E0,-1.172483116E-1,-1.648056656E-1,9.672408718E0
1.192314749E0,9.675079346E0,-9.332008660E-2,-1.648056656E-1,9.676932876E0
1.194740634E0,9.648757935E0,-1.172483116E-1,-1.456630826E-1,9.650569651E0
1.197166519E0,9.653543472E0,-1.363908947E-1,-1.767697781E-1,9.656125082E0
1.199592405E0,9.663115501E0,-1.292124242E-1,-1.432702541E-1,9.665041304E0
1.202018290E0,9.694221497E0,-1.196411327E-1,-1.576271951E-1,9.696241063E0
1.204444124E0,9.687043190E0,-9.092725813E-2,-1.671984792E-1,9.688912677E0
1.206870009E0,9.687043190E0,-1.028913707E-1,-1.671984792E-1,9.689032342E0
1.209295894E0,9.677472115E0,-1.124626622E-1,-1.528415531E-1,9.679332359E0
1.211721780E0,9.694221497E0,-8.614161611E-2,-1.624128371E-1,9.695964559E0
1.214147613E0,9.689435959E0,-1.076770201E-1,-1.600200087E-1,9.691355424E0
1.216573499E0,9.665508270E0,-1.244267747E-1,-1.576271951E-1,9.667594245E0
1.218999384E0,9.670293808E0,-1.148554832E-1,-1.576271951E-1,9.672260359E0
1.221425269E0,9.658329964E0,-1.028913707E-1,-1.336989701E-1,9.659803297E0
1.223851155E0,9.672686577E0,-1.220339537E-1,-1.456630826E-1,9.674552994E0
1.226276988E0,9.691828728E0,-1.052841991E-1,-1.504487246E-1,9.693568160E0
1.228702874E0,9.675079346E0,-9.810572863E-2,-1.528415531E-1,9.676783847E0
1.231128759E0,9.667901039E0,-1.052841991E-1,-1.504487246E-1,9.669644775E0
1.233554644E0,9.677472115E0,-8.853443712E-2,-1.648056656E-1,9.679280231E0
1.235980530E0,9.703793526E0,-1.100698411E-1,-1.360917836E-1,9.705371973E0
1.238406363E0,9.682257652E0,-1.100698411E-1,-1.504487246E-1,9.684052015E0
1.240832249E0,9.682257652E0,-1.052841991E-1,-1.480558962E-1,9.683961925E0
1.243258134E0,9.675079346E0,-1.076770201E-1,-1.528415531E-1,9.676885616E0
1.245684019E0,9.660722733E0,-9.571290761E-2,-1.624128371E-1,9.662561907E0
1.248109905E0,9.658329964E0,-1.148554832E-1,-1.576271951E-1,9.660298950E0
1.250535738E0,9.651150703E0,-1.028913707E-1,-1.576271951E-1,9.652986215E0
1.252961624E0,9.646365166E0,-7.657032460E-2,-1.719841212E-1,9.648202033E0
1.255387509E0,9.663115501E0,-9.571290761E-2,-1.480558962E-1,9.664723623E0
1.257813394E0,9.660722733E0,-1.004985496E-1,-1.432702541E-1,9.662307697E0
1.260239280E0,9.665508270E0,-1.220339537E-1,-1.408774406E-1,9.667305150E0
1.262665113E0,9.672686577E0,-1.100698411E-1,-1.576271951E-1,9.674597011E0
1.265090999E0,9.696614265E0,-8.853443712E-2,-1.528415531E-1,9.698222884E0
1.267516884E0,9.689435959E0,-1.004985496E-1,-1.504487246E-1,9.691125011E0
1.269942769E0,9.691828728E0,-1.172483116E-1,-1.408774406E-1,9.693561663E0
1.272368655E0,9.665508270E0,-1.196411327E-1,-1.600200087E-1,9.667573146E0
1.274794488E0,9.663115501E0,-1.172483116E-1,-1.624128371E-1,9.665191477E0
1.277220374E0,9.677472115E0,-1.148554832E-1,-1.576271951E-1,9.679437207E0
1.279646259E0,9.706186295E0,-1.124626622E-1,-1.624128371E-1,9.708196442E0
1.282072144E0,9.689435959E0,-1.052841991E-1,-1.695913076E-1,9.691491896E0
1.284497978E0,9.682257652E0,-1.052841991E-1,-1.528415531E-1,9.684036274E0
1.286923863E0,9.655936241E0,-1.268195957E-1,-1.504487246E-1,9.657940915E0
1.289349749E0,9.665508270E0,-1.316052526E-1,-1.695913076E-1,9.667891770E0
1.291775634E0,9.689435959E0,-1.244267747E-1,-1.695913076E-1,9.691718755E0
1.294201467E0,9.679864883E0,-1.028913707E-1,-1.576271951E-1,9.681694951E0
1.296627353E0,9.665508270E0,-9.810572863E-2,-1.576271951E-1,9.667291306E0
1.299053238E0,9.660722733E0,-9.810572863E-2,-1.552343667E-1,9.662467912E0
1.301479124E0,9.667901039E0,-1.052841991E-1,-1.671984792E-1,9.669919886E0
1.303905009E0,9.663115501E0,-9.332008660E-2,-1.576271951E-1,9.664851585E0
1.306330894E0,9.670293808E0,-1.172483116E-1,-1.384846121E-1,9.671996045E0
1.308756728E0,9.682257652E0,-1.052841991E-1,-1.695913076E-1,9.684315114E0
1.311182613E0,9.655936241E0,-1.172483116E-1,-1.624128371E-1,9.658013760E0
1.313608499E0,9.667901039E0,-1.268195957E-1,-1.648056656E-1,9.670137260E0
1.316034384E0,9.677472115E0,-1.196411327E-1,-1.313061416E-1,9.679102326E0
1.318460217E0,9.694221497E0,-1.148554832E-1,-1.456630826E-1,9.695996078E0
1.320886103E0,9.708579063E0,-1.268195957E-1,-1.767697781E-1,9.711016332E0
1.323311988E0,9.699007034E0,-1.100698411E-1,-1.671984792E-1,9.701072526E0
1.325737874E0,9.679864883E0,-1.076770201E-1,-1.504487246E-1,9.681632782E0
1.328163759E0,9.670293808E0,-1.244267747E-1,-1.671984792E-1,9.672539464E0
1.330589592E0,9.677472115E0,-9.332008660E-2,-1.480558962E-1,9.679054485E0
1.333015478E0,9.665508270E0,-1.028913707E-1,-1.600200087E-1,9.667380367E0
1.335441363E0,9.682257652E0,-8.853443712E-2,-1.552343667E-1,9.683906717E0
1.337867249E0,9.689435959E0,-1.172483116E-1,-1.624128371E-1,9.691506297E0
1.340293134E0,9.670293808E0,-9.332008660E-2,-1.624128371E-1,9.672107780E0
1.342718967E0,9.684650421E0,-9.810572863E-2,-1.600200087E-1,9.686469167E0
1.345144853E0,9.672686577E0,-1.052841991E-1,-1.552343667E-1,9.674505056E0
1.347570738E0,9.684650421E0,-1.268195957E-1,-1.528415531E-1,9.686686613E0
1.349996624E0,9.665508270E0,-1.076770201E-1,-1.432702541E-1,9.667169742E0
1.352422509E0,9.706186295E0,-1.196411327E-1,-1.648056656E-1,9.708322579E0
1.354848342E0,9.677472115E0,-1.052841991E-1,-1.528415531E-1,9.679251615E0
1.357274228E0,9.689435959E0,-1.052841991E-1,-1.552343667E-1,9.691251295E0
1.359700113E0,9.658329964E0,-1.052841991E-1,-1.408774406E-1,9.659931102E0
1.362125999E0,9.648757935E0,-1.028913707E-1,-1.695913076E-1,9.650796730E0
1.364551884E0,9.663115501E0,-8.614161611E-2,-1.600200087E-1,9.664824260E0
1.366977717E0,9.679864883E0,-1.028913707E-1,-1.600200087E-1,9.681734204E0
1.369403603E0,9.667901039E0,-1.172483116E-1,-1.456630826E-1,9.669709168E0
1.371829488E0,9.651150703E0,-1.292124242E-1,-1.456630826E-1,9.653114704E0
1.374255374E0,9.684650421E0,-1.100698411E-1,-1.504487246E-1,9.686444341E0
1.376681207E0,9.679864883E0,-1.076770201E-1,-1.552343667E-1,9.681708331E0
1.379107092E0,9.665508270E0,-1.124626622E-1,-1.408774406E-1,9.667189065E0
1.381532978E0,9.670293808E0,-9.571290761E-2,-1.528415531E-1,9.671975177E0
1.383958863E0,9.658329964E0,-9.092725813E-2,-1.552343667E-1,9.660005340E0
1.386384749E0,9.677472115E0,-1.100698411E-1,-1.576271951E-1,9.679381604E0
1.388810582E0,9.667901039E0,-1.172483116E-1,-1.624128371E-1,9.669975987E0
1.391236467E0,9.665508270E0,-1.100698411E-1,-1.671984792E-1,9.667580919E0
1.393662353E0,9.653543472E0,-9.332008660E-2,-1.456630826E-1,9.655093368E0
1.396088238E0,9.663115501E0,-1.028913707E-1,-1.336989701E-1,9.664588105E0
1.398514124E0,9.651150703E0,-1.028913707E-1,-1.648056656E-1,9.653106103E0
1.400939957E0,9.663115501E0,-1.148554832E-1,-1.552343667E-1,9.665044784E0
1.403365842E0,9.670293808E0,-9.092725813E-2,-1.408774406E-1,9.671747337E0
1.405791728E0,9.672686577E0,-1.292124242E-1,-1.384846121E-1,9.674540788E0
1.408217613E0,9.677472115E0,-1.028913707E-1,-1.432702541E-1,9.679079477E0
1.410643447E0,9.677472115E0,-1.100698411E-1,-1.528415531E-1,9.679304853E0
1.413069332E0,9.663115501E0,-1.100698411E-1,-1.648056656E-1,9.665147566E0
1.415495217E0,9.660722733E0,-1.076770201E-1,-1.480558962E-1,9.662457172E0
1.417921103E0,9.672686577E0,-1.196411327E-1,-1.576271951E-1,9.674710639E0
1.420346988E0,9.677472115E0,-1.172483116E-1,-1.528415531E-1,9.679389146E0
1.422772822E0,9.672686577E0,-1.148554832E-1,-1.552343667E-1,9.674613951E0
1.425198707E0,9.684650421E0,-1.220339537E-1,-1.576271951E-1,9.686701833E0
1.427624592E0,9.682257652E0,-1.196411327E-1,-1.600200087E-1,9.684318956E0
1.430050478E0,9.679864883E0,-1.028913707E-1,-1.480558962E-1,9.681543851E0
1.432476363E0,9.667901039E0,-1.100698411E-1,-1.480558962E-1,9.669661133E0
1.434902197E0,9.655936241E0,-1.268195957E-1,-1.097707376E-1,9.657392894E0
1.437328082E0,9.667901039E0,-1.124626622E-1,-1.671984792E-1,9.670000708E0
1.439753967E0,9.679864883E0,-1.100698411E-1,-1.313061416E-1,9.681381143E0
1.442179853E0,9.694221497E0,-1.196411327E-1,-1.671984792E-1,9.696401382E0
1.444605738E0,9.643972397E0,-1.052841991E-1,-1.911267042E-1,9.646440679E0
1.447031572E0,9.655936241E0,-1.076770201E-1,-1.456630826E-1,9.657635154E0
1.449457457E0,9.672686577E0,-9.810572863E-2,-1.552343667E-1,9.674429599E0
1.451883342E0,9.682257652E0,-1.124626622E-1,-1.528415531E-1,9.684116978E0
1.454309228E0,9.672686577E0,-9.571290761E-2,-1.432702541E-1,9.674221051E0
1.456735061E0,9.687043190E0,-1.124626622E-1,-1.528415531E-1,9.688901597E0
1.459160947E0,9.677472115E0,-1.172483116E-1,-1.624128371E-1,9.679545011E0
1.461586832E0,9.665508270E0,-1.076770201E-1,-1.504487246E-1,9.667278794E0
1.464012717E0,9.655936241E0,-1.004985496E-1,-1.384846121E-1,9.657452182E0
1.466438603E0,9.653543472E0,-1.292124242E-1,-1.384846121E-1,9.655401359E0
1.468864436E0,9.667901039E0,-1.004985496E-1,-1.528415531E-1,9.669631379E0
1.471290322E0,9.675079346E0,-1.076770201E-1,-1.480558962E-1,9.676811212E0
1.473716207E0,9.660722733E0,-1.220339537E-1,-1.384846121E-1,9.662485911E0
1.476142092E0,9.672686577E0,-1.148554832E-1,-1.432702541E-1,9.674429377E0
1.478567978E0,9.670293808E0,-1.052841991E-1,-1.408774406E-1,9.671892966E0
1.480993811E0,9.684650421E0,-1.196411327E-1,-1.528415531E-1,9.686595290E0
1.483419697E0,9.672686577E0,-1.196411327E-1,-1.313061416E-1,9.674317594E0
1.485845582E0,9.665508270E0,-1.220339537E-1,-1.528415531E-1,9.667486899E0
1.488271467E0,9.675079346E0,-1.124626622E-1,-1.408774406E-1,9.676758478E0
1.490697301E0,9.675079346E0,-1.172483116E-1,-1.265204996E-1,9.676616917E0
1.493123186E0,9.675079346E0,-9.092725813E-2,-1.528415531E-1,9.676713732E0
1.495549072E0,9.679864883E0,-1.004985496E-1,-1.432702541E-1,9.681446714E0
1.497974957E0,9.643972397E0,-8.614161611E-2,-1.576271951E-1,9.645645147E0
1.500400842E0,9.682257652E0,-1.028913707E-1,-1.480558962E-1,9.683936205E0
1.502826676E0,9.699007034E0,-1.148554832E-1,-1.552343667E-1,9.700929179E0
1.505252561E0,9.677472115E0,-1.100698411E-1,-1.432702541E-1,9.679158448E0
1.507678447E0,9.667901039E0,-1.172483116E-1,-1.528415531E-1,9.669819968E0
1.510104332E0,9.665508270E0,-1.196411327E-1,-1.528415531E-1,9.667456991E0
1.512530217E0,9.682257652E0,-9.332008660E-2,-1.600200087E-1,9.684029548E0
1.514956051E0,9.665508270E0,-8.853443712E-2,-1.528415531E-1,9.667122064E0
1.517381936E0,9.694221497E0,-1.076770201E-1,-1.528415531E-1,9.696024201E0
1.519807822E0,9.672686577E0,-1.148554832E-1,-1.576271951E-1,9.674652641E0
1.522233707E0,9.672686577E0,-1.172483116E-1,-1.552343667E-1,9.674642654E0
1.524659592E0,9.687043190E0,-1.292124242E-1,-1.408774406E-1,9.688929150E0
1.527085426E0,9.667901039E0,-1.363908947E-1,-1.552343667E-1,9.670109135E0
1.529511311E0,9.665508270E0,-1.172483116E-1,-1.671984792E-1,9.667665314E0
1.531937197E0,9.667901039E0,-1.196411327E-1,-1.624128371E-1,9.670005296E0
1.534363082E0,9.684650421E0,-1.100698411E-1,-1.504487246E-1,9.686444341E0
1.536788915E0,9.679864883E0,-1.100698411E-1,-1.671984792E-1,9.681934459E0
1.539214801E0,9.684650421E0,-1.196411327E-1,-1.671984792E-1,9.686832460E0
1.541640686E0,9.655936241E0,-1.148554832E-1,-1.695913076E-1,9.658108391E0
1.544066572E0,9.660722733E0,-8.614161611E-2,-1.552343667E-1,9.662353844E0
1.546492457E0,9.677472115E0,-1.220339537E-1,-1.432702541E-1,9.679301895E0
1.548918290E0,9.684650421E0,-1.148554832E-1,-1.432702541E-1,9.686391068E0
1.551344176E0,9.663115501E0,-1.124626622E-1,-1.504487246E-1,9.664940965E0
1.553770061E0,9.689435959E0,-1.172483116E-1,-1.600200087E-1,9.691466492E0
1.556195947E0,9.677472115E0,-1.076770201E-1,-1.456630826E-1,9.679167247E0
1.558621832E0,9.699007034E0,-1.004985496E-1,-1.408774406E-1,9.700550699E0
1.561047665E0,9.663115501E0,-9.332008660E-2,-1.241276711E-1,9.664363275E0
1.563473551E0,9.677472115E0,-1.076770201E-1,-1.336989701E-1,9.678994591E0
1.565899436E0,9.687043190E0,-1.244267747E-1,-1.313061416E-1,9.688732068E0
1.568325322E0,9.672686577E0,-1.124626622E-1,-1.432702541E-1,9.674401265E0
1.570751207E0,9.689435959E0,-1.268195957E-1,-1.360917836E-1,9.691221460E0
1.573177040E0,9.677472115E0,-1.196411327E-1,-1.408774406E-1,9.679236901E0
1.575602926E0,9.667901039E0,-1.076770201E-1,-1.360917836E-1,9.669458403E0
1.578028811E0,9.665508270E0,-1.172483116E-1,-1.265204996E-1,9.667047363E0
1.580454697E0,9.675079346E0,-9.810572863E-2,-1.576271951E-1,9.676860618E0
1.582880530E0,9.696614265E0,-1.172483116E-1,-1.480558962E-1,9.698453275E0
1.585306415E0,9.684650421E0,-7.417750359E-2,-1.600200087E-1,9.686256371E0
1.587732301E0,9.696614265E0,-1.028913707E-1,-1.528415531E-1,9.698364573E0
1.590158186E0,9.679864883E0,-8.853443712E-2,-1.504487246E-1,9.681438805E0
1.592584072E0,9.675079346E0,-9.571290761E-2,-1.504487246E-1,9.676722385E0
1.595009905E0,9.665508270E0,-1.052841991E-1,-1.360917836E-1,9.667039664E0
1.597435790E0,9.684650421E0,-9.092725813E-2,-1.624128371E-1,9.686438947E0
1.599861676E0,9.699007034E0,-1.148554832E-1,-1.480558962E-1,9.700816965E0
1.602287561E0,9.677472115E0,-1.052841991E-1,-1.336989701E-1,9.678968267E0
1.604713447E0,9.682257652E0,-1.100698411E-1,-1.456630826E-1,9.683978849E0
1.607139280E0,9.687043190E0,-1.100698411E-1,-1.671984792E-1,9.689111232E0
1.609565165E0,9.679864883E0,-1.220339537E-1,-1.624128371E-1,9.681996405E0
1.611991051E0,9.663115501E0,-1.076770201E-1,-1.528415531E-1,9.664924008E0
1.614416936E0,9.675079346E0,-9.332008660E-2,-1.719841212E-1,9.677057793E0
1.616842822E0,9.699007034E0,-9.092725813E-2,-1.528415531E-1,9.700637389E0
1.619268655E0,9.677472115E0,-1.100698411E-1,-1.504487246E-1,9.679267365E0
1.621694540E0,9.658329964E0,-9.810572863E-2,-1.384846121E-1,9.659820930E0
1.624120426E0,9.677472115E0,-1.076770201E-1,-1.600200087E-1,9.679393952E0
1.626546311E0,9.675079346E0,-1.148554832E-1,-1.480558962E-1,9.676893751E0
1.628972144E0,9.670293808E0,-1.028913707E-1,-1.504487246E-1,9.672011362E0
1.631398030E0,9.687043190E0,-1.028913707E-1,-1.552343667E-1,9.688833269E0
1.633823915E0,9.672686577E0,-8.614161611E-2,-1.624128371E-1,9.674433519E0
1.636249801E0,9.696614265E0,-1.268195957E-1,-1.552343667E-1,9.698685949E0
1.638675686E0,9.694221497E0,-1.172483116E-1,-1.600200087E-1,9.696251028E0
1.641101519E0,9.703793526E0,-1.124626622E-1,-1.528415531E-1,9.705648725E0
1.643527405E0,9.655936241E0,-1.100698411E-1,-1.504487246E-1,9.657735495E0
1.645953290E0,9.648757935E0,-1.268195957E-1,-1.313061416E-1,9.650484661E0
1.648379176E0,9.675079346E0,-1.244267747E-1,-1.528415531E-1,9.677086489E0
1.650805061E0,9.689435959E0,-1.028913707E-1,-1.504487246E-1,9.691150120E0
1.653230894E0,9.663115501E0,-1.339980662E-1,-1.384846121E-1,9.665036713E0
1.655656780E0,9.679864883E0,-1.244267747E-1,-1.360917836E-1,9.681621102E0
1.658082665E0,9.706186295E0,-1.148554832E-1,-1.384846121E-1,9.707853633E0
1.660508551E0,9.689435959E0,-9.571290761E-2,-1.360917836E-1,9.690864313E0
1.662934384E0,9.675079346E0,-1.004985496E-1,-1.648056656E-1,9.677004764E0
1.665360269E0,9.684650421E0,-1.196411327E-1,-1.432702541E-1,9.686448996E0
1.667786155E0,9.672686577E0,-1.052841991E-1,-1.624128371E-1,9.674622903E0
1.670212040E0,9.696614265E0,-1.028913707E-1,-1.313061416E-1,9.698049090E0
1.672637926E0,9.663115501E0,-9.092725813E-2,-1.624128371E-1,9.664908012E0
1.675063759E0,9.658329964E0,-8.614161611E-2,-1.528415531E-1,9.659923323E0
1.677489644E0,9.682257652E0,-1.196411327E-1,-1.456630826E-1,9.684092367E0
1.679915530E0,9.682257652E0,-1.052841991E-1,-1.528415531E-1,9.684036274E0
1.682341415E0,9.701400757E0,-1.052841991E-1,-1.743769497E-1,9.703538980E0
1.684767301E0,9.684650421E0,-1.076770201E-1,-1.624128371E-1,9.686610659E0
1.687193134E0,9.689435959E0,-1.076770201E-1,-1.408774406E-1,9.691058249E0
1.689619019E0,9.694221497E0,-9.810572863E-2,-1.576271951E-1,9.695999252E0
1.692044905E0,9.675079346E0,-1.148554832E-1,-1.504487246E-1,9.676930657E0
1.694470790E0,9.696614265E0,-1.316052526E-1,-1.648056656E-1,9.698907622E0
1.696896624E0,9.689435959E0,-1.076770201E-1,-1.600200087E-1,9.691355424E0
1.699322509E0,9.665508270E0,-1.004985496E-1,-1.289133132E-1,9.666890334E0
1.701748394E0,9.672686577E0,-1.148554832E-1,-1.624128371E-1,9.674731796E0
1.704174280E0,9.672686577E0,-1.172483116E-1,-1.648056656E-1,9.674800964E0
1.706600165E0,9.687043190E0,-1.028913707E-1,-1.432702541E-1,9.688648965E0
1.709025999E0,9.684650421E0,-9.092725813E-2,-1.624128371E-1,9.686438947E0
1.711451884E0,9.672686577E0,-9.571290761E-2,-1.528415531E-1,9.674367530E0
1.713877769E0,9.677472115E0,-1.435693651E-1,-1.528415531E-1,9.679743759E0
1.716303655E0,9.682257652E0,-1.100698411E-1,-1.528415531E-1,9.684089485E0
1.718729540E0,9.670293808E0,-1.028913707E-1,-1.528415531E-1,9.672048878E0
1.721155374E0,9.655936241E0,-1.148554832E-1,-1.576271951E-1,9.657905715E0
1.723581259E0,9.665508270E0,-1.076770201E-1,-1.552343667E-1,9.667354456E0
1.726007144E0,9.672686577E0,-1.100698411E-1,-1.648056656E-1,9.674716631E0
1.728433030E0,9.682257652E0,-1.004985496E-1,-1.600200087E-1,9.684101384E0
1.730858915E0,9.677472115E0,-1.172483116E-1,-1.384846121E-1,9.679173089E0
1.733284749E0,9.679864883E0,-1.172483116E-1,-1.504487246E-1,9.681743962E0
1.735710634E0,9.672686577E0,-9.092725813E-2,-1.480558962E-1,9.674246944E0
1.738136519E0,9.679864883E0,-1.076770201E-1,-1.767697781E-1,9.682077569E0
1.740562405E0,9.667901039E0,-1.028913707E-1,-1.624128371E-1,9.669812566E0
1.742988238E0,9.689435959E0,-1.244267747E-1,-1.576271951E-1,9.691516783E0
1.745414124E0,9.663115501E0,-1.220339537E-1,-1.624128371E-1,9.665250716E0
1.747840009E0,9.689435959E0,-1.172483116E-1,-1.576271951E-1,9.691427279E0
1.750265894E0,9.651150703E0,-1.316052526E-1,-1.576271951E-1,9.653334977E0
1.752691780E0,9.687043190E0,-1.052841991E-1,-1.408774406E-1,9.688639584E0
1.755117613E0,9.655936241E0,-1.148554832E-1,-1.432702541E-1,9.657682064E0
1.757543499E0,9.653543472E0,-1.100698411E-1,-1.432702541E-1,9.655233985E0
1.759969384E0,9.672686577E0,-1.196411327E-1,-1.360917836E-1,9.674383732E0
1.762395269E0,9.663115501E0,-1.292124242E-1,-1.743769497E-1,9.665552460E0
1.764821103E0,9.699007034E0,-1.004985496E-1,-1.576271951E-1,9.700808407E0
1.767246988E0,9.675079346E0,-1.076770201E-1,-1.289133132E-1,9.676537259E0
1.769672874E0,9.672686577E0,-9.092725813E-2,-1.480558962E-1,9.674246944E0
1.772098759E0,9.689435959E0,-9.810572863E-2,-1.384846121E-1,9.690922140E0
1.774524644E0,9.689435959E0,-9.810572863E-2,-1.552343667E-1,9.691175968E0
1.776950478E0,9.687043190E0,-1.196411327E-1,-1.289133132E-1,9.688639657E0
1.779376363E0,9.691828728E0,-1.028913707E-1,-1.384846121E-1,9.693364159E0
1.781802249E0,9.670293808E0,-1.148554832E-1,-1.480558962E-1,9.672109111E0
1.784228134E0,9.651150703E0,-9.332008660E-2,-1.408774406E-1,9.652629952E0
1.786654019E0,9.655936241E0,-9.332008660E-2,-1.456630826E-1,9.657485753E0
1.789079853E0,9.675079346E0,-9.810572863E-2,-1.624128371E-1,9.676939754E0
1.791505738E0,9.677472115E0,-1.172483116E-1,-1.384846121E-1,9.679173089E0
1.793931624E0,9.665508270E0,-1.100698411E-1,-1.432702541E-1,9.667196691E0
1.796357509E0,9.643972397E0,-9.571290761E-2,-1.648056656E-1,9.645855351E0
1.798783342E0,9.682257652E0,-1.100698411E-1,-1.600200087E-1,9.684205441E0
1.801209228E0,9.679864883E0,-1.124626622E-1,-1.504487246E-1,9.681687189E0
1.803635113E0,9.665508270E0,-1.004985496E-1,-1.552343667E-1,9.667277165E0
1.806060999E0,9.672686577E0,-1.100698411E-1,-1.528415531E-1,9.674520222E0
1.808486884E0,9.672686577E0,-1.028913707E-1,-1.576271951E-1,9.674518002E0
1.810912717E0,9.670293808E0,-1.148554832E-1,-1.384846121E-1,9.671967334E0
1.813338603E0,9.679864883E0,-1.028913707E-1,-1.504487246E-1,9.681580739E0
1.815764488E0,9.670293808E0,-1.124626622E-1,-1.265204996E-1,9.671775309E0
1.818190374E0,9.696614265E0,-1.196411327E-1,-1.408774406E-1,9.698375568E0
1.820616259E0,9.675079346E0,-1.028913707E-1,-1.480558962E-1,9.676759144E0
1.823042092E0,9.675079346E0,-8.853443712E-2,-1.360917836E-1,9.676441477E0
1.825467978E0,9.667901039E0,-1.028913707E-1,-1.528415531E-1,9.669656544E0
1.827893863E0,9.667901039E0,-1.076770201E-1,-1.504487246E-1,9.669671125E0
1.830319749E0,9.667901039E0,-1.100698411E-1,-1.600200087E-1,9.669851719E0
1.832745634E0,9.687043190E0,-1.100698411E-1,-1.576271951E-1,9.688950793E0
1.835171467E0,9.687043190E0,-1.124626622E-1,-1.528415531E-1,9.688901597E0
1.837597353E0,9.667901039E0,-1.172483116E-1,-1.552343667E-1,9.669858085E0
1.840023238E0,9.703793526E0,-1.268195957E-1,-1.576271951E-1,9.705902242E0
1.842449124E0,9.689435959E0,-1.052841991E-1,-1.432702541E-1,9.691067038E0
1.844874957E0,9.701400757E0,-9.332008660E-2,-1.456630826E-1,9.702943008E0
1.847300842E0,9.665508270E0,-1.172483116E-1,-1.432702541E-1,9.667281089E0
1.849726728E0,9.687043190E0,-1.148554832E-1,-1.313061416E-1,9.688613877E0
1.852152613E0,9.677472115E0,-9.332008660E-2,-1.336989701E-1,9.678845519E0
1.854578447E0,9.667901039E0,-1.076770201E-1,-1.336989701E-1,9.669425022E0
1.857004332E0,9.675079346E0,-1.124626622E-1,-1.671984792E-1,9.677177457E0
1.859430217E0,9.672686577E0,-1.172483116E-1,-1.552343667E-1,9.674642654E0
1.861856103E0,9.670293808E0,-1.004985496E-1,-1.552343667E-1,9.672061828E0
1.864281988E0,9.665508270E0,-1.148554832E-1,-1.456630826E-1,9.667288122E0
1.866707874E0,9.658329964E0,-1.100698411E-1,-1.552343667E-1,9.660204489E0
1.869133707E0,9.667901039E0,-7.417750359E-2,-1.456630826E-1,9.669282835E0
1.871559592E0,9.670293808E0,-1.148554832E-1,-1.624128371E-1,9.672339533E0
1.873985478E0,9.677472115E0,-9.332008660E-2,-1.504487246E-1,9.679091382E0
1.876411363E0,9.689435959E0,-8.374879509E-2,-1.576271951E-1,9.691079888E0
1.878837197E0,9.684650421E0,-9.092725813E-2,-1.576271951E-1,9.686359888E0
1.881263082E0,9.701400757E0,-8.853443712E-2,-1.624128371E-1,9.703164068E0
1.883688967E0,9.670293808E0,-1.100698411E-1,-1.456630826E-1,9.672017134E0
1.886114853E0,9.696614265E0,-1.100698411E-1,-1.576271951E-1,9.698519986E0
1.888540738E0,9.689435959E0,-1.004985496E-1,-1.432702541E-1,9.691016228E0
1.890966572E0,9.703793526E0,-1.100698411E-1,-1.456630826E-1,9.705510903E0
1.893392457E0,9.675079346E0,-1.148554832E-1,-1.528415531E-1,9.676968155E0
1.895818342E0,9.689435959E0,-9.571290761E-2,-1.576271951E-1,9.691190664E0
1.898244228E0,9.679864883E0,-9.332008660E-2,-1.600200087E-1,9.681637217E0
1.900670061E0,9.691828728E0,-1.004985496E-1,-1.719841212E-1,9.693875519E0
1.903095947E0,9.641579628E0,-1.052841991E-1,-1.719841212E-1,9.643688144E0
1.905521832E0,9.677472115E0,-9.092725813E-2,-1.480558962E-1,9.679031710E0
1.907947717E0,9.699007034E0,-8.374879509E-2,-1.432702541E-1,9.700426675E0
1.910373603E0,9.660722733E0,-9.571290761E-2,-1.480558962E-1,9.662331252E0
1.912799436E0,9.643972397E0,-1.004985496E-1,-1.528415531E-1,9.645707029E0
1.915225322E0,9.670293808E0,-8.374879509E-2,-1.552343667E-1,9.671902290E0
1.917651207E0,9.679864883E0,-1.148554832E-1,-1.719841212E-1,9.682073873E0
1.920077092E0,9.672686577E0,-1.076770201E-1,-1.624128371E-1,9.674649238E0
1.922502978E0,9.660722733E0,-1.004985496E-1,-1.576271951E-1,9.662531242E0
1.924928811E0,9.679864883E0,-1.052841991E-1,-1.504487246E-1,9.681606465E0
1.927354697E0,9.682257652E0,-9.332008660E-2,-1.671984792E-1,9.684150826E0
1.929780582E0,9.675079346E0,-1.028913707E-1,-1.624128371E-1,9.676989455E0
1.932206467E0,9.660722733E0,-1.172483116E-1,-1.791625917E-1,9.663095266E0
1.934632353E0,9.667901039E0,-9.810572863E-2,-1.791625917E-1,9.670058659E0
1.937058186E0,9.667901039E0,-9.810572863E-2,-1.624128371E-1,9.669762829E0
1.939484072E0,9.663115501E0,-8.853443712E-2,-1.719841212E-1,9.665051375E0
1.941909957E0,9.682257652E0,-1.196411327E-1,-1.671984792E-1,9.684440230E0
1.944335842E0,9.682257652E0,-1.124626622E-1,-1.552343667E-1,9.684155038E0
1.946761728E0,9.684650421E0,-1.220339537E-1,-1.480558962E-1,9.686550811E0
1.949187561E0,9.708579063E0,-1.100698411E-1,-1.360917836E-1,9.710156733E0
1.951613447E0,9.672686577E0,-1.004985496E-1,-1.432702541E-1,9.674269582E0
1.954039332E0,9.677472115E0,-1.124626622E-1,-1.791625917E-1,9.679783759E0
1.956465217E0,9.665508270E0,-1.100698411E-1,-1.624128371E-1,9.667499337E0
1.958891051E0,9.677472115E0,-9.571290761E-2,-1.480558962E-1,9.679077851E0
1.961316936E0,9.687043190E0,-9.810572863E-2,-1.624128371E-1,9.688901301E0
1.963742822E0,9.675079346E0,-8.853443712E-2,-1.671984792E-1,9.676928956E0
1.966168707E0,9.687043190E0,-1.004985496E-1,-1.456630826E-1,9.688659528E0
1.968594540E0,9.679864883E0,-1.076770201E-1,-1.648056656E-1,9.681866525E0
1.971020426E0,9.670293808E0,-9.571290761E-2,-1.671984792E-1,9.672212706E0
1.973446311E0,9.675079346E0,-9.332008660E-2,-1.671984792E-1,9.676973923E0
1.975872197E0,9.682257652E0,-9.332008660E-2,-1.576271951E-1,9.683990304E0
1.978298082E0,9.691828728E0,-1.028913707E-1,-1.528415531E-1,9.693579899E0
1.980723915E0,9.675079346E0,-1.076770201E-1,-1.624128371E-1,9.677041522E0
1.983149801E0,9.658329964E0,-1.196411327E-1,-1.719841212E-1,9.660601960E0
1.985575686E0,9.684650421E0,-9.332008660E-2,-1.336989701E-1,9.686022808E0
1.988001572E0,9.665508270E0,-9.810572863E-2,-1.384846121E-1,9.666998130E0
1.990427405E0,9.648757935E0,-1.076770201E-1,-1.480558962E-1,9.650494525E0
1.992853290E0,9.689435959E0,-8.853443712E-2,-1.456630826E-1,9.690935212E0
1.995279176E0,9.679864883E0,-1.244267747E-1,-1.456630826E-1,9.681760373E0
1.997705061E0,9.653543472E0,-1.076770201E-1,-1.528415531E-1,9.655353771E0
2.000130947E0,9.679864883E0,-1.052841991E-1,-1.624128371E-1,9.681799773E0
2.002556780E0,9.699007034E0,-9.571290761E-2,-1.456630826E-1,9.700572980E0
2.004982665E0,9.679864883E0,-1.196411327E-1,-1.576271951E-1,9.681887445E0
2.007408551E0,9.653543472E0,-1.196411327E-1,-1.576271951E-1,9.655571547E0
2.009834436E0,9.679864883E0,-1.052841991E-1,-1.576271951E-1,9.681720676E0
2.012260269E0,9.694221497E0,-9.332008660E-2,-1.719841212E-1,9.696196038E0
2.014686155E0,9.703793526E0,-9.571290761E-2,-1.480558962E-1,9.705394907E0
2.017112040E0,9.663115501E0,-1.100698411E-1,-1.384846121E-1,9.664734583E0
2.019537926E0,9.684650421E0,-1.124626622E-1,-1.504487246E-1,9.686471827E0
2.021963811E0,9.679864883E0,-9.810572863E-2,-1.743769497E-1,9.681932463E0
2.024389697E0,9.679864883E0,-1.148554832E-1,-1.815554202E-1,9.682248619E0
2.026815530E0,9.687043190E0,-1.172483116E-1,-1.504487246E-1,9.688920876E0
2.029241415E0,9.655936241E0,-1.076770201E-1,-1.624128371E-1,9.657902307E0
2.031667301E0,9.660722733E0,-1.148554832E-1,-1.552343667E-1,9.662652493E0
2.034093186E0,9.655936241E0,-1.124626622E-1,-1.671984792E-1,9.658038511E0
2.036519019E0,9.658329964E0,-1.148554832E-1,-1.671984792E-1,9.660459865E0
2.038944905E0,9.679864883E0,-1.172483116E-1,-1.552343667E-1,9.681819511E0
2.041370790E0,9.677472115E0,-1.076770201E-1,-1.456630826E-1,9.679167247E0
2.043796676E0,9.689435959E0,-1.172483116E-1,-1.552343667E-1,9.691388656E0
2.046222561E0,9.660722733E0,-1.148554832E-1,-1.600200087E-1,9.662730561E0
2.048648394E0,9.684650421E0,-1.052841991E-1,-1.695913076E-1,9.686707374E0
2.051074280E0,9.667901039E0,-1.028913707E-1,-1.743769497E-1,9.670020913E0
2.053500165E0,9.667901039E0,-1.052841991E-1,-1.671984792E-1,9.669919886E0
2.055926051E0,9.679864883E0,-1.076770201E-1,-1.648056656E-1,9.681866525E0
2.058351936E0,9.718150139E0,-1.076770201E-1,-1.671984792E-1,9.720184761E0
2.060777769E0,9.696614265E0,-1.148554832E-1,-1.480558962E-1,9.698424642E0
2.063203655E0,9.689435959E0,-1.052841991E-1,-1.600200087E-1,9.691329133E0
2.065629540E0,9.679864883E0,-1.052841991E-1,-1.552343667E-1,9.681682015E0
2.068055426E0,9.660722733E0,-1.435693651E-1,-1.648056656E-1,9.663194957E0
2.070481259E0,9.694221497E0,-1.459621787E-1,-1.767697781E-1,9.696931625E0
2.072907144E0,9.665508270E0,-1.052841991E-1,-1.815554202E-1,9.667786575E0
2.075333030E0,9.675079346E0,-1.316052526E-1,-1.456630826E-1,9.677070736E0
2.077758915E0,9.677472115E0,-9.092725813E-2,-1.600200087E-1,9.679222112E0
2.080184749E0,9.684650421E0,-1.028913707E-1,-1.600200087E-1,9.686518818E0
2.082610634E0,9.675079346E0,-1.052841991E-1,-1.624128371E-1,9.677015193E0
2.085036519E0,9.682257652E0,-8.374879509E-2,-1.791625917E-1,9.684277275E0
2.087462405E0,9.677472115E0,-1.124626622E-1,-1.504487246E-1,9.679294871E0
2.089888290E0,9.672686577E0,-1.172483116E-1,-1.671984792E-1,9.674842020E0
2.092314124E0,9.672686577E0,-1.100698411E-1,-1.767697781E-1,9.674927831E0
2.094740009E0,9.691828728E0,-1.100698411E-1,-1.695913076E-1,9.693937315E0
2.097165894E0,9.653543472E0,-9.571290761E-2,-1.863410622E-1,9.655816150E0
2.099591780E0,9.653543472E0,-1.172483116E-1,-1.695913076E-1,9.655744919E0
2.102017665E0,9.672686577E0,-9.810572863E-2,-1.600200087E-1,9.674507572E0
2.104443499E0,9.689435959E0,-1.220339537E-1,-1.552343667E-1,9.691447735E0
2.106869384E0,9.677472115E0,-1.028913707E-1,-1.695913076E-1,9.679504862E0
2.109295269E0,9.679864883E0,-1.124626622E-1,-1.576271951E-1,9.681801400E0
2.111721155E0,9.665508270E0,-9.571290761E-2,-1.504487246E-1,9.667152937E0
2.114147040E0,9.677472115E0,-9.092725813E-2,-1.480558962E-1,9.679031710E0
2.116572874E0,9.675079346E0,-1.076770201E-1,-1.576271951E-1,9.676962386E0
2.118998759E0,9.658329964E0,-1.124626622E-1,-1.552343667E-1,9.660232049E0
2.121424644E0,9.696614265E0,-1.196411327E-1,-1.648056656E-1,9.698752658E0
2.123850530E0,9.670293808E0,-1.148554832E-1,-1.671984792E-1,9.672421075E0
2.126276363E0,9.667901039E0,-1.076770201E-1,-1.624128371E-1,9.669864672E0
2.128702249E0,9.682257652E0,-8.374879509E-2,-1.624128371E-1,9.683981879E0
2.131128134E0,9.648757935E0,-1.028913707E-1,-1.791625917E-1,9.650969669E0
2.133554019E0,9.675079346E0,-9.571290761E-2,-1.504487246E-1,9.676722385E0
2.135979905E0,9.675079346E0,-1.004985496E-1,-1.360917836E-1,9.676558338E0
2.138405738E0,9.696614265E0,-1.076770201E-1,-1.408774406E-1,9.698235355E0
2.140831624E0,9.677472115E0,-1.100698411E-1,-1.552343667E-1,9.679342933E0
2.143257509E0,9.663115501E0,-1.220339537E-1,-1.552343667E-1,9.665132756E0
2.145683394E0,9.677472115E0,-1.076770201E-1,-1.624128371E-1,9.679433806E0
2.148109280E0,9.682257652E0,-1.052841991E-1,-1.528415531E-1,9.684036274E0
2.150535113E0,9.699007034E0,-1.076770201E-1,-1.552343667E-1,9.700846845E0
2.152960999E0,9.694221497E0,-1.292124242E-1,-1.624128371E-1,9.696442863E0
2.155386884E0,9.672686577E0,-9.092725813E-2,-1.600200087E-1,9.674437440E0
2.157812769E0,9.672686577E0,-8.374879509E-2,-1.504487246E-1,9.674219053E0
2.160238603E0,9.672686577E0,-1.124626622E-1,-1.576271951E-1,9.674624530E0
2.162664488E0,9.684650421E0,-1.268195957E-1,-1.767697781E-1,9.687093710E0
2.165090374E0,9.670293808E0,-1.004985496E-1,-1.671984792E-1,9.672261247E0
2.167516259E0,9.691828728E0,-1.028913707E-1,-1.624128371E-1,9.693735536E0
2.169942144E0,9.684650421E0,-1.028913707E-1,-1.576271951E-1,9.686479585E0
2.172367978E0,9.670293808E0,-1.076770201E-1,-1.624128371E-1,9.672256955E0
2.174793863E0,9.675079346E0,-8.614161611E-2,-1.456630826E-1,9.676559226E0
2.177219749E0,9.687043190E0,-1.076770201E-1,-1.432702541E-1,9.688700969E0
2.179645634E0,9.672686577E0,-1.028913707E-1,-1.767697781E-1,9.674848826E0
2.182071467E0,9.703793526E0,-1.148554832E-1,-1.648056656E-1,9.705872525E0
2.184497353E0,9.663115501E0,-1.004985496E-1,-1.504487246E-1,9.664809153E0
2.186923238E0,9.651150703E0,-1.004985496E-1,-1.552343667E-1,9.652922229E0
2.189349124E0,9.689435959E0,-1.100698411E-1,-1.528415531E-1,9.691266435E0
2.191775009E0,9.660722733E0,-1.196411327E-1,-1.480558962E-1,9.662597905E0
2.194200842E0,9.679864883E0,-1.028913707E-1,-1.432702541E-1,9.681471849E0
2.196626728E0,9.660722733E0,-1.148554832E-1,-1.384846121E-1,9.662397916E0
2.199052613E0,9.667901039E0,-8.853443712E-2,-1.456630826E-1,9.669403631E0
2.201478499E0,9.679864883E0,-1.148554832E-1,-1.648056656E-1,9.681949021E0
2.203904332E0,9.675079346E0,-9.810572863E-2,-1.552343667E-1,9.676821936E0
2.206330217E0,9.653543472E0,-1.028913707E-1,-1.695913076E-1,9.655581257E0
2.208756103E0,9.696614265E0,-1.004985496E-1,-1.671984792E-1,9.698576365E0
2.211181988E0,9.682257652E0,-1.028913707E-1,-1.480558962E-1,9.683936205E0
2.213607874E0,9.687043190E0,-1.148554832E-1,-1.528415531E-1,9.688929667E0
2.216033759E0,9.670293808E0,-8.374879509E-2,-1.624128371E-1,9.672020168E0
2.218459592E0,9.684650421E0,-9.810572863E-2,-1.600200087E-1,9.686469167E0
2.220885478E0,9.694221497E0,-1.292124242E-1,-1.408774406E-1,9.696106060E0
2.223311363E0,9.687043190E0,-9.810572863E-2,-1.480558962E-1,9.688671274E0
2.225737249E0,9.694221497E0,-9.810572863E-2,-1.480558962E-1,9.695848375E0
2.228163082E0,9.658329964E0,-1.339980662E-1,-1.432702541E-1,9.660321917E0
2.230588967E0,9.675079346E0,-1.052841991E-1,-1.552343667E-1,9.676897376E0
2.233014853E0,9.663115501E0,-1.028913707E-1,-1.719841212E-1,9.665193550E0
2.235440738E0,9.675079346E0,-1.148554832E-1,-1.671984792E-1,9.677205560E0
2.237866572E0,9.653543472E0,-9.571290761E-2,-1.504487246E-1,9.655190177E0
2.240292457E0,9.653543472E0,-1.028913707E-1,-1.600200087E-1,9.655417889E0
2.242718342E0,9.691828728E0,-1.028913707E-1,-1.552343667E-1,9.693617923E0
2.245144228E0,9.672686577E0,-1.076770201E-1,-1.600200087E-1,9.674609365E0
2.247570113E0,9.663115501E0,-1.028913707E-1,-1.695913076E-1,9.665151268E0
2.249995947E0,9.677472115E0,-8.853443712E-2,-1.552343667E-1,9.679121994E0
2.252421832E0,9.689435959E0,-8.614161611E-2,-1.552343667E-1,9.691062237E0
2.254847717E0,9.677472115E0,-1.004985496E-1,-1.432702541E-1,9.679054337E0
2.257273603E0,9.684650421E0,-1.052841991E-1,-1.600200087E-1,9.686544531E0
2.259699436E0,9.658329964E0,-1.148554832E-1,-1.528415531E-1,9.660222048E0
2.262125322E0,9.675079346E0,-1.196411327E-1,-1.528415531E-1,9.677026139E0
2.264551207E0,9.677472115E0,-1.004985496E-1,-1.552343667E-1,9.679238823E0
2.266977092E0,9.682257652E0,-8.853443712E-2,-1.408774406E-1,9.683687213E0
2.269402978E0,9.672686577E0,-1.076770201E-1,-1.648056656E-1,9.674689704E0
2.271828811E0,9.665508270E0,-1.052841991E-1,-1.600200087E-1,9.667406130E0
2.274254697E0,9.679864883E0,-1.100698411E-1,-1.576271951E-1,9.681773901E0
2.276680582E0,9.667901039E0,-1.196411327E-1,-1.671984792E-1,9.670086858E0
2.279106467E0,9.689435959E0,-1.316052526E-1,-1.600200087E-1,9.691650816E0
2.281532301E0,9.677472115E0,-1.076770201E-1,-1.600200087E-1,9.679393952E0
2.283958186E0,9.675079346E0,-1.196411327E-1,-1.576271951E-1,9.677102907E0
2.286384072E0,9.663115501E0,-1.268195957E-1,-1.576271951E-1,9.665233093E0
2.288809957E0,9.658329964E0,-9.810572863E-2,-1.552343667E-1,9.660075576E0
2.291235842E0,9.675079346E0,-1.052841991E-1,-1.624128371E-1,9.677015193E0
2.293661676E0,9.682257652E0,-1.124626622E-1,-1.552343667E-1,9.684155038E0
2.296087561E0,9.667901039E0,-1.004985496E-1,-1.384846121E-1,9.669415104E0
2.298513447E0,9.667901039E0,-1.028913707E-1,-1.313061416E-1,9.669340124E0
2.300939332E0,9.679864883E0,-1.076770201E-1,-1.408774406E-1,9.681488778E0
2.303365217E0,9.679864883E0,-1.052841991E-1,-1.624128371E-1,9.681799773E0
2.305791051E0,9.675079346E0,-9.571290761E-2,-1.432702541E-1,9.676613440E0
2.308216936E0,9.675079346E0,-1.076770201E-1,-1.456630826E-1,9.676774898E0
2.310642822E0,9.675079346E0,-1.004985496E-1,-1.504487246E-1,9.676770904E0
2.313068707E0,9.708579063E0,-1.052841991E-1,-1.432702541E-1,9.710206927E0
2.315494540E0,9.665508270E0,-1.244267747E-1,-1.576271951E-1,9.667594245E0
2.317920426E0,9.694221497E0,-1.268195957E-1,-1.432702541E-1,9.696109529E0
2.320346311E0,9.682257652E0,-1.100698411E-1,-1.576271951E-1,9.684166198E0
2.322772197E0,9.679864883E0,-1.004985496E-1,-1.624128371E-1,9.681748915E0
2.325198082E0,9.665508270E0,-1.100698411E-1,-1.624128371E-1,9.667499337E0
2.327623915E0,9.672686577E0,-9.092725813E-2,-1.528415531E-1,9.674321367E0
2.330049801E0,9.689435959E0,-9.810572863E-2,-1.504487246E-1,9.691100492E0
2.332475686E0,9.675079346E0,-1.124626622E-1,-1.552343667E-1,9.676978139E0
2.334901572E0,9.677472115E0,-1.220339537E-1,-1.648056656E-1,9.679644607E0
2.337327457E0,9.689435959E0,-1.220339537E-1,-1.528415531E-1,9.691409703E0
2.339753290E0,9.677472115E0,-1.148554832E-1,-1.648056656E-1,9.679556768E0
2.342179176E0,9.684650421E0,-1.148554832E-1,-1.600200087E-1,9.686653290E0
2.344605061E0,9.682257652E0,-1.100698411E-1,-1.648056656E-1,9.684285700E0
2.347030947E0,9.696614265E0,-1.004985496E-1,-1.456630826E-1,9.698229009E0
2.349456780E0,9.667901039E0,-9.810572863E-2,-1.648056656E-1,9.669803315E0
2.351882665E0,9.691828728E0,-1.076770201E-1,-1.504487246E-1,9.693594444E0
2.354308551E0,9.672686577E0,-1.028913707E-1,-1.600200087E-1,9.674557285E0
2.356734436E0,9.679864883E0,-1.076770201E-1,-1.743769497E-1,9.682034178E0
2.359160322E0,9.665508270E0,-1.148554832E-1,-1.480558962E-1,9.667324472E0
2.361586155E0,9.655936241E0,-1.172483116E-1,-1.600200087E-1,9.657973818E0
2.364012040E0,9.655936241E0,-1.052841991E-1,-1.600200087E-1,9.657835982E0
2.366437926E0,9.660722733E0,-1.076770201E-1,-1.624128371E-1,9.662687824E0
2.368863811E0,9.684650421E0,-1.028913707E-1,-1.528415531E-1,9.686402890E0
2.371289644E0,9.675079346E0,-1.076770201E-1,-1.743769497E-1,9.677249713E0
2.373715530E0,9.679864883E0,-1.292124242E-1,-1.576271951E-1,9.682010450E0
2.376141415E0,9.677472115E0,-1.100698411E-1,-1.576271951E-1,9.679381604E0
2.378567301E0,9.675079346E0,-9.332008660E-2,-1.767697781E-1,9.677144028E0
2.380993186E0,9.663115501E0,-1.172483116E-1,-1.743769497E-1,9.665399923E0
2.383419019E0,9.675079346E0,-1.411765367E-1,-1.695913076E-1,9.677595382E0
2.385844905E0,9.679864883E0,-1.148554832E-1,-1.576271951E-1,9.681829490E0
2.388270790E0,9.691828728E0,-1.052841991E-1,-1.576271951E-1,9.693682230E0
2.390696676E0,9.679864883E0,-9.092725813E-2,-1.432702541E-1,9.681352090E0
2.393122509E0,9.663115501E0,-1.244267747E-1,-1.695913076E-1,9.665404514E0
2.395548394E0,9.667901039E0,-1.220339537E-1,-1.504487246E-1,9.669841654E0
2.397974280E0,9.672686577E0,-1.052841991E-1,-1.528415531E-1,9.674466958E0
2.400400165E0,9.670293808E0,-1.052841991E-1,-1.695913076E-1,9.672353814E0
2.402826051E0,9.643972397E0,-1.124626622E-1,-1.528415531E-1,9.645839102E0
2.405251884E0,9.684650421E0,-1.100698411E-1,-1.480558962E-1,9.686407471E0
2.407677769E0,9.660722733E0,-1.028913707E-1,-1.600200087E-1,9.662595756E0
2.410103655E0,9.689435959E0,-1.172483116E-1,-1.719841212E-1,9.691671420E0
2.412529540E0,9.687043190E0,-1.124626622E-1,-1.432702541E-1,9.688755337E0
2.414955426E0,9.687043190E0,-1.004985496E-1,-1.576271951E-1,9.688846787E0
2.417381259E0,9.675079346E0,-9.571290761E-2,-1.504487246E-1,9.676722385E0
2.419807144E0,9.672686577E0,-8.853443712E-2,-1.552343667E-1,9.674337273E0
2.422233030E0,9.665508270E0,-1.244267747E-1,-1.480558962E-1,9.667442924E0
2.424658915E0,9.696614265E0,-1.004985496E-1,-1.648056656E-1,9.698535409E0
2.427084749E0,9.679864883E0,-1.052841991E-1,-1.624128371E-1,9.681799773E0
2.429510634E0,9.684650421E0,-1.196411327E-1,-1.552343667E-1,9.686633341E0
2.431936519E0,9.667901039E0,-9.571290761E-2,-1.576271951E-1,9.669659653E0
2.434362405E0,9.665508270E0,-9.810572863E-2,-1.815554202E-1,9.667711065E0
2.436788290E0,9.665508270E0,-1.052841991E-1,-1.552343667E-1,9.667328100E0
2.439214124E0,9.667901039E0,-1.268195957E-1,-1.743769497E-1,9.670305116E0
2.441640009E0,9.675079346E0,-9.810572863E-2,-1.719841212E-1,9.677105126E0
2.444065894E0,9.677472115E0,-8.853443712E-2,-1.624128371E-1,9.679239784E0
2.446491780E0,9.684650421E0,-1.172483116E-1,-1.576271951E-1,9.686642725E0
2.448917613E0,9.672686577E0,-1.100698411E-1,-1.552343667E-1,9.674558320E0
2.451343499E0,9.679864883E0,-1.004985496E-1,-1.863410622E-1,9.682179874E0
2.453769384E0,9.684650421E0,-1.148554832E-1,-1.432702541E-1,9.686391068E0
2.456195269E0,9.670293808E0,-1.100698411E-1,-1.624128371E-1,9.672283889E0
2.458621155E0,9.679864883E0,-1.052841991E-1,-1.600200087E-1,9.681759929E0
2.461046988E0,9.658329964E0,-1.172483116E-1,-1.791625917E-1,9.660703085E0
2.463472874E0,9.663115501E0,-1.316052526E-1,-1.600200087E-1,9.665336390E0
2.465898759E0,9.667901039E0,-1.124626622E-1,-1.743769497E-1,9.670127490E0
2.468324644E0,9.679864883E0,-1.028913707E-1,-1.743769497E-1,9.681982138E0
2.470750478E0,9.670293808E0,-1.052841991E-1,-1.600200087E-1,9.672190729E0
2.473176363E0,9.682257652E0,-1.076770201E-1,-1.576271951E-1,9.684139297E0
2.475602249E0,9.655936241E0,-1.148554832E-1,-1.480558962E-1,9.657754243E0
2.478028134E0,9.708579063E0,-8.614161611E-2,-1.671984792E-1,9.710400771E0
2.480454019E0,9.658329964E0,-1.028913707E-1,-1.624128371E-1,9.660243385E0
2.482879853E0,9.696614265E0,-1.100698411E-1,-1.648056656E-1,9.698639311E0
2.485305738E0,9.679864883E0,-8.614161611E-2,-1.528415531E-1,9.681454699E0
2.487731624E0,9.677472115E0,-7.417750359E-2,-1.480558962E-1,9.678888850E0
2.490157509E0,9.675079346E0,-1.076770201E-1,-1.648056656E-1,9.677081977E0
2.492583342E0,9.684650421E0,-9.571290761E-2,-1.839482337E-1,9.686870067E0
2.495009228E0,9.658329964E0,-1.004985496E-1,-1.719841212E-1,9.660383853E0
2.497435113E0,9.689435959E0,-8.853443712E-2,-1.600200087E-1,9.691161641E0
2.499860999E0,9.660722733E0,-1.292124242E-1,-1.624128371E-1,9.662951800E0
2.502286884E0,9.658329964E0,-1.124626622E-1,-1.839482337E-1,9.660736126E0
2.504712717E0,9.675079346E0,-1.028913707E-1,-1.576271951E-1,9.676910319E0
2.507138603E0,9.679864883E0,-9.810572863E-2,-1.528415531E-1,9.681568542E0
2.509564488E0,9.655936241E0,-1.172483116E-1,-1.791625917E-1,9.658309950E0
2.511990374E0,9.689435959E0,-1.100698411E-1,-1.576271951E-1,9.691343091E0
2.514416259E0,9.684650421E0,-1.172483116E-1,-1.719841212E-1,9.686886986E0
2.516842092E0,9.672686577E0,-1.004985496E-1,-1.791625917E-1,9.674867689E0
2.519267978E0,9.672686577E0,-1.196411327E-1,-1.456630826E-1,9.674523107E0
2.521693863E0,9.677472115E0,-1.220339537E-1,-1.360917836E-1,9.679198303E0
2.524119749E0,9.667901039E0,-1.124626622E-1,-1.241276711E-1,9.669351893E0
2.526545582E0,9.665508270E0,-1.124626622E-1,-1.432702541E-1,9.667224231E0
2.528971467E0,9.689435959E0,-9.092725813E-2,-1.384846121E-1,9.690852127E0
2.531397353E0,9.689435959E0,-1.028913707E-1,-1.552343667E-1,9.691225596E0
2.533823238E0,9.655936241E0,-1.148554832E-1,-1.839482337E-1,9.658371158E0
2.536249124E0,9.682257652E0,-1.100698411E-1,-1.695913076E-1,9.684368324E0
2.538674957E0,9.696614265E0,-1.148554832E-1,-1.504487246E-1,9.698461466E0
2.541100842E0,9.706186295E0,-1.196411327E-1,-1.552343667E-1,9.708164816E0
2.543526728E0,9.696614265E0,-1.100698411E-1,-1.671984792E-1,9.698680267E0
2.545952613E0,9.677472115E0,-9.092725813E-2,-1.552343667E-1,9.679144177E0
2.548378447E0,9.682257652E0,-1.076770201E-1,-1.408774406E-1,9.683881145E0
2.550804332E0,9.687043190E0,-1.100698411E-1,-1.456630826E-1,9.688763537E0
2.553230217E0,9.670293808E0,-1.244267747E-1,-1.576271951E-1,9.672378750E0
2.555656103E0,9.667901039E0,-1.124626622E-1,-1.528415531E-1,9.669763125E0
2.558081988E0,9.696614265E0,-1.196411327E-1,-1.528415531E-1,9.698556736E0
2.560507822E0,9.670293808E0,-1.172483116E-1,-1.528415531E-1,9.672212262E0
2.562933707E0,9.670293808E0,-9.092725813E-2,-1.671984792E-1,9.672166532E0
2.565359592E0,9.672686577E0,-1.148554832E-1,-1.432702541E-1,9.674429377E0
2.567785478E0,9.679864883E0,-1.076770201E-1,-1.408774406E-1,9.681488778E0
2.570211363E0,9.682257652E0,-1.339980662E-1,-1.576271951E-1,9.684467722E0
2.572637197E0,9.655936241E0,-1.196411327E-1,-1.456630826E-1,9.657775957E0
2.575063082E0,9.667901039E0,-1.100698411E-1,-1.432702541E-1,9.669589042E0
2.577488967E0,9.655936241E0,-1.196411327E-1,-1.600200087E-1,9.658003163E0
2.579914853E0,9.687043190E0,-9.810572863E-2,-1.695913076E-1,9.689024291E0
2.582340686E0,9.665508270E0,-1.076770201E-1,-1.743769497E-1,9.667680786E0
2.584766572E0,9.667901039E0,-1.100698411E-1,-1.648056656E-1,9.669932098E0
2.587192457E0,9.679864883E0,-9.810572863E-2,-1.456630826E-1,9.681457877E0
2.589618342E0,9.672686577E0,-1.028913707E-1,-1.576271951E-1,9.674518002E0
2.592044228E0,9.684650421E0,-9.810572863E-2,-1.624128371E-1,9.686508992E0
2.594470061E0,9.675079346E0,-1.076770201E-1,-1.719841212E-1,9.677206892E0
2.596895947E0,9.684650421E0,-1.172483116E-1,-1.648056656E-1,9.686762197E0
2.599321832E0,9.653543472E0,-1.076770201E-1,-1.600200087E-1,9.655470072E0
2.601747717E0,9.651150703E0,-1.244267747E-1,-1.600200087E-1,9.653279149E0
2.604173603E0,9.675079346E0,-1.028913707E-1,-1.552343667E-1,9.676871637E0
2.606599436E0,9.687043190E0,-1.148554832E-1,-1.552343667E-1,9.688967708E0
2.609025322E0,9.677472115E0,-1.100698411E-1,-1.432702541E-1,9.679158448E0
2.611451207E0,9.663115501E0,-1.172483116E-1,-1.600200087E-1,9.665151564E0
2.613877092E0,9.660722733E0,-1.244267747E-1,-1.504487246E-1,9.662695305E0
2.616302926E0,9.699007034E0,-1.244267747E-1,-1.408774406E-1,9.700828105E0
2.618728811E0,9.672686577E0,-1.124626622E-1,-1.552343667E-1,9.674585840E0
2.621154697E0,9.684650421E0,-1.052841991E-1,-1.600200087E-1,9.686544531E0
2.623580582E0,9.660722733E0,-1.196411327E-1,-1.528415531E-1,9.662672418E0
2.626006415E0,9.689435959E0,-1.100698411E-1,-1.480558962E-1,9.691192141E0
2.628432301E0,9.677472115E0,-1.124626622E-1,-1.815554202E-1,9.679828343E0
2.630858186E0,9.672686577E0,-1.124626622E-1,-1.648056656E-1,9.674744150E0
2.633284072E0,9.670293808E0,-1.220339537E-1,-1.600200087E-1,9.672387555E0
2.635709957E0,9.665508270E0,-1.028913707E-1,-1.624128371E-1,9.667420270E0
2.638135790E0,9.660722733E0,-1.124626622E-1,-1.480558962E-1,9.662511688E0
2.640561676E0,9.691828728E0,-1.172483116E-1,-1.624128371E-1,9.693898554E0
2.642987561E0,9.708579063E0,-1.244267747E-1,-1.576271951E-1,9.710655786E0
2.645413447E0,9.682257652E0,-1.292124242E-1,-1.695913076E-1,9.684604809E0
2.647839280E0,9.691828728E0,-9.092725813E-2,-1.528415531E-1,9.693460290E0
2.650265165E0,9.660722733E0,-1.148554832E-1,-1.408774406E-1,9.662432507E0
2.652691051E0,9.653543472E0,-1.220339537E-1,-1.576271951E-1,9.655601493E0
2.655116936E0,9.658329964E0,-9.332008660E-2,-1.600200087E-1,9.660106248E0
2.657542822E0,9.675079346E0,-1.100698411E-1,-1.480558962E-1,9.676838134E0
2.659968655E0,9.670293808E0,-1.124626622E-1,-1.456630826E-1,9.672044661E0
2.662394540E0,9.682257652E0,-1.148554832E-1,-1.480558962E-1,9.684070713E0
2.664820426E0,9.658329964E0,-1.076770201E-1,-1.671984792E-1,9.660377185E0
2.667246311E0,9.687043190E0,-1.100698411E-1,-1.648056656E-1,9.689070236E0
2.669672197E0,9.691828728E0,-1.076770201E-1,-1.528415531E-1,9.693631877E0
2.672098030E0,9.675079346E0,-8.614161611E-2,-1.719841212E-1,9.676991230E0
2.674523915E0,9.677472115E0,-1.028913707E-1,-1.576271951E-1,9.679302635E0
2.676949801E0,9.682257652E0,-9.332008660E-2,-1.408774406E-1,9.683732149E0
2.679375686E0,9.689435959E0,-1.004985496E-1,-1.384846121E-1,9.690946659E0
2.681801519E0,9.684650421E0,-1.028913707E-1,-1.624128371E-1,9.686558643E0
2.684227405E0,9.682257652E0,-9.810572863E-2,-1.504487246E-1,9.683923420E0
2.686653290E0,9.691828728E0,-1.100698411E-1,-1.456630826E-1,9.693548225E0
2.689079176E0,9.667901039E0,-1.411765367E-1,-1.767697781E-1,9.670547496E0
2.691505061E0,9.687043190E0,-1.244267747E-1,-1.528415531E-1,9.689047855E0
2.693930894E0,9.691828728E0,-1.148554832E-1,-1.336989701E-1,9.693431347E0
2.696356780E0,9.663115501E0,-1.028913707E-1,-1.624128371E-1,9.665027975E0
2.698782665E0,9.675079346E0,-1.100698411E-1,-1.600200087E-1,9.677028579E0
2.701208551E0,9.682257652E0,-1.124626622E-1,-1.552343667E-1,9.684155038E0
2.703634384E0,9.677472115E0,-8.614161611E-2,-1.480558962E-1,9.678987935E0
2.706060269E0,9.672686577E0,-1.172483116E-1,-1.456630826E-1,9.674493812E0
2.708486155E0,9.691828728E0,-1.100698411E-1,-1.504487246E-1,9.693621319E0
2.710912040E0,9.694221497E0,-1.100698411E-1,-1.600200087E-1,9.696166882E0
2.713337874E0,9.658329964E0,-1.196411327E-1,-1.624128371E-1,9.660436306E0
2.715763759E0,9.648757935E0,-1.316052526E-1,-1.624128371E-1,9.651022099E0
2.718189644E0,9.682257652E0,-9.332008660E-2,-1.576271951E-1,9.683990304E0
2.720615530E0,9.682257652E0,-1.148554832E-1,-1.480558962E-1,9.684070713E0
2.723041415E0,9.682257652E0,-1.028913707E-1,-1.791625917E-1,9.684461736E0
2.725467249E0,9.675079346E0,-1.052841991E-1,-1.504487246E-1,9.676821789E0
2.727893134E0,9.667901039E0,-9.571290761E-2,-1.480558962E-1,9.669508365E0
2.730319019E0,9.665508270E0,-1.148554832E-1,-1.695913076E-1,9.667678269E0
2.732744905E0,9.679864883E0,-9.571290761E-2,-1.719841212E-1,9.681865712E0
2.735170790E0,9.691828728E0,-1.244267747E-1,-1.695913076E-1,9.694110961E0
2.737596624E0,9.667901039E0,-1.268195957E-1,-1.624128371E-1,9.670096775E0
2.740022509E0,9.660722733E0,-1.004985496E-1,-1.600200087E-1,9.662570573E0
2.742448394E0,9.679864883E0,-1.028913707E-1,-1.648056656E-1,9.681814484E0
2.744874280E0,9.679864883E0,-1.052841991E-1,-1.552343667E-1,9.681682015E0
2.747300113E0,9.663115501E0,-1.076770201E-1,-1.791625917E-1,9.665376080E0
2.749725999E0,9.670293808E0,-1.052841991E-1,-1.480558962E-1,9.672000188E0
2.752151884E0,9.670293808E0,-9.571290761E-2,-1.552343667E-1,9.672013286E0
2.754577769E0,9.682257652E0,-8.135596663E-2,-1.791625917E-1,9.684256878E0
2.757003655E0,9.691828728E0,-1.052841991E-1,-1.552343667E-1,9.693643616E0
2.759429488E0,9.675079346E0,-1.076770201E-1,-1.456630826E-1,9.676774898E0
2.761855374E0,9.667901039E0,-9.092725813E-2,-1.600200087E-1,9.669652769E0
2.764281259E0,9.670293808E0,-1.004985496E-1,-1.576271951E-1,9.672100528E0
2.766707144E0,9.672686577E0,-1.244267747E-1,-1.480558962E-1,9.674619795E0
2.769132978E0,9.675079346E0,-1.100698411E-1,-1.600200087E-1,9.677028579E0
2.771558863E0,9.689435959E0,-9.810572863E-2,-1.528415531E-1,9.691137935E0
2.773984749E0,9.687043190E0,-1.148554832E-1,-1.552343667E-1,9.688967708E0
2.776410634E0,9.675079346E0,-1.268195957E-1,-1.695913076E-1,9.677396590E0
2.778836519E0,9.670293808E0,-1.076770201E-1,-1.576271951E-1,9.672177780E0
2.781262353E0,9.648757935E0,-1.076770201E-1,-1.719841212E-1,9.650891283E0
2.783688238E0,9.655936241E0,-1.100698411E-1,-1.695913076E-1,9.658052665E0
2.786114124E0,9.691828728E0,-1.124626622E-1,-1.600200087E-1,9.693802058E0
2.788540009E0,9.679864883E0,-1.363908947E-1,-1.576271951E-1,9.682108911E0
2.790965842E0,9.682257652E0,-1.196411327E-1,-1.456630826E-1,9.684092367E0
2.793391728E0,9.675079346E0,-1.435693651E-1,-1.839482337E-1,9.677892821E0
2.795817613E0,9.682257652E0,-1.196411327E-1,-1.552343667E-1,9.684241062E0
2.798243499E0,9.660722733E0,-1.124626622E-1,-1.528415531E-1,9.662586202E0
2.800669332E0,9.667901039E0,-9.810572863E-2,-1.504487246E-1,9.669569280E0
2.803095217E0,9.682257652E0,-1.148554832E-1,-1.791625917E-1,9.684596236E0
2.805521103E0,9.677472115E0,-1.028913707E-1,-1.743769497E-1,9.679589892E0
2.807946988E0,9.677472115E0,-1.220339537E-1,-1.528415531E-1,9.679448298E0
2.810372874E0,9.672686577E0,-9.810572863E-2,-1.791625917E-1,9.674843130E0
2.812798707E0,9.653543472E0,-1.172483116E-1,-1.576271951E-1,9.655542195E0
2.815224592E0,9.660722733E0,-1.052841991E-1,-1.504487246E-1,9.662467764E0
2.817650478E0,9.670293808E0,-9.332008660E-2,-1.528415531E-1,9.671951794E0
2.820076363E0,9.679864883E0,-1.148554832E-1,-1.624128371E-1,9.681908586E0
2.822502249E0,9.689435959E0,-1.196411327E-1,-1.648056656E-1,9.691575935E0
2.824928082E0,9.687043190E0,-9.571290761E-2,-1.552343667E-1,9.688759695E0
2.827353967E0,9.677472115E0,-9.810572863E-2,-1.576271951E-1,9.679252946E0
2.829779853E0,9.691828728E0,-9.571290761E-2,-1.552343667E-1,9.693544386E0
2.832205738E0,9.696614265E0,-9.571290761E-2,-1.528415531E-1,9.698291072E0
2.834631572E0,9.651150703E0,-1.268195957E-1,-1.839482337E-1,9.653736586E0
2.837057457E0,9.694221497E0,-1.028913707E-1,-1.504487246E-1,9.695934812E0
2.839483342E0,9.677472115E0,-1.100698411E-1,-1.600200087E-1,9.679420866E0
2.841909228E0,9.677472115E0,-1.196411327E-1,-1.624128371E-1,9.679574291E0
2.844335113E0,9.675079346E0,-1.028913707E-1,-1.552343667E-1,9.676871637E0
2.846760947E0,9.687043190E0,-1.124626622E-1,-1.648056656E-1,9.689097715E0
2.849186832E0,9.694221497E0,-9.571290761E-2,-1.600200087E-1,9.696014531E0
2.851612717E0,9.672686577E0,-1.004985496E-1,-1.576271951E-1,9.674492850E0
2.854038603E0,9.667901039E0,-1.292124242E-1,-1.719841212E-1,9.670293940E0
2.856464436E0,9.675079346E0,-1.124626622E-1,-1.719841212E-1,9.677261324E0
2.858890322E0,9.667901039E0,-1.004985496E-1,-1.767697781E-1,9.670039194E0
2.861316207E0,9.684650421E0,-8.374879509E-2,-1.600200087E-1,9.686334397E0
2.863742092E0,9.696614265E0,-1.316052526E-1,-1.552343667E-1,9.698749706E0
2.866167978E0,9.663115501E0,-1.172483116E-1,-1.743769497E-1,9.665399923E0
2.868593811E0,9.677472115E0,-1.004985496E-1,-1.648056656E-1,9.679397057E0
2.871019697E0,9.670293808E0,-1.148554832E-1,-1.432702541E-1,9.672037039E0
2.873445582E0,9.658329964E0,-1.124626622E-1,-1.624128371E-1,9.660350070E0
2.875871467E0,9.651150703E0,-1.100698411E-1,-1.600200087E-1,9.653104769E0
2.878297301E0,9.667901039E0,-1.100698411E-1,-1.648056656E-1,9.669932098E0
2.880723186E0,9.677472115E0,-1.124626622E-1,-1.480558962E-1,9.679257974E0
2.883149072E0,9.677472115E0,-1.100698411E-1,-1.504487246E-1,9.679267365E0
2.885574957E0,9.677472115E0,-1.292124242E-1,-1.767697781E-1,9.679948860E0
2.888000842E0,9.655936241E0,-1.148554832E-1,-1.695913076E-1,9.658108391E0
2.890426676E0,9.670293808E0,-1.100698411E-1,-1.767697781E-1,9.672535617E0
2.892852561E0,9.687043190E0,-1.004985496E-1,-1.600200087E-1,9.688886011E0
2.895278447E0,9.679864883E0,-1.028913707E-1,-1.432702541E-1,9.681471849E0
2.897704332E0,9.672686577E0,-9.571290761E-2,-1.504487246E-1,9.674330023E0
2.900130165E0,9.660722733E0,-1.172483116E-1,-1.576271951E-1,9.662719970E0
2.902556051E0,9.684650421E0,-9.810572863E-2,-1.576271951E-1,9.686429933E0
2.904981936E0,9.665508270E0,-1.028913707E-1,-1.600200087E-1,9.667380367E0
2.907407822E0,9.682257652E0,-1.124626622E-1,-1.456630826E-1,9.684006342E0
2.909833655E0,9.677472115E0,-1.172483116E-1,-1.456630826E-1,9.679278456E0
2.912259540E0,9.672686577E0,-9.571290761E-2,-1.552343667E-1,9.674405629E0
2.914685426E0,9.706186295E0,-9.571290761E-2,-1.528415531E-1,9.707861448E0
2.917111311E0,9.670293808E0,-1.220339537E-1,-1.480558962E-1,9.672197019E0
2.919537197E0,9.665508270E0,-1.028913707E-1,-1.624128371E-1,9.667420270E0
2.921963030E0,9.675079346E0,-9.092725813E-2,-1.648056656E-1,9.676910097E0
2.924388915E0,9.658329964E0,-9.332008660E-2,-1.528415531E-1,9.659990003E0
2.926814801E0,9.679864883E0,-9.571290761E-2,-1.384846121E-1,9.681328582E0
2.929240686E0,9.677472115E0,-1.363908947E-1,-1.695913076E-1,9.679918916E0
2.931666519E0,9.653543472E0,-1.196411327E-1,-1.671984792E-1,9.655732541E0
2.934092405E0,9.641579628E0,-1.004985496E-1,-1.456630826E-1,9.643203587E0
2.936518290E0,9.655936241E0,-1.172483116E-1,-1.648056656E-1,9.658054295E0
2.938944176E0,9.682257652E0,-1.052841991E-1,-1.552343667E-1,9.684074335E0
2.941370061E0,9.689435959E0,-8.853443712E-2,-1.624128371E-1,9.691201447E0
2.943795894E0,9.684650421E0,-1.052841991E-1,-1.552343667E-1,9.686466655E0
2.946221780E0,9.684650421E0,-9.810572863E-2,-1.719841212E-1,9.686674200E0
2.948647665E0,9.689435959E0,-9.810572863E-2,-1.719841212E-1,9.691458738E0
2.951073551E0,9.677472115E0,-9.571290761E-2,-1.791625917E-1,9.679603645E0
2.953499436E0,9.677472115E0,-1.220339537E-1,-1.839482337E-1,9.679989451E0
2.955925269E0,9.655936241E0,-1.076770201E-1,-1.695913076E-1,9.658025691E0
2.958351155E0,9.663115501E0,-1.196411327E-1,-1.767697781E-1,9.665472712E0
2.960777040E0,9.691828728E0,-1.076770201E-1,-1.719841212E-1,9.693952598E0
2.963202926E0,9.670293808E0,-1.244267747E-1,-1.552343667E-1,9.672340051E0
2.965628759E0,9.648757935E0,-1.196411327E-1,-1.671984792E-1,9.650948089E0
2.968054644E0,9.665508270E0,-1.172483116E-1,-1.576271951E-1,9.667504519E0
2.970480530E0,9.648757935E0,-1.028913707E-1,-1.791625917E-1,9.650969669E0
2.972906415E0,9.675079346E0,-1.076770201E-1,-1.600200087E-1,9.677001658E0
2.975332249E0,9.675079346E0,-1.148554832E-1,-1.671984792E-1,9.677205560E0
2.977758134E0,9.672686577E0,-1.220339537E-1,-1.480558962E-1,9.674589317E0
2.980184019E0,9.670293808E0,-1.172483116E-1,-1.671984792E-1,9.672449784E0
2.982609905E0,9.663115501E0,-1.292124242E-1,-1.624128371E-1,9.665344017E0
2.985035790E0,9.665508270E0,-1.076770201E-1,-1.791625917E-1,9.667768289E0
2.987461624E0,9.672686577E0,-1.196411327E-1,-1.695913076E-1,9.674912962E0
2.989887509E0,9.677472115E0,-1.292124242E-1,-1.671984792E-1,9.679778805E0
2.992313394E0,9.691828728E0,-1.076770201E-1,-1.648056656E-1,9.693827899E0
2.994739280E0,9.672686577E0,-1.124626622E-1,-1.576271951E-1,9.674624530E0
2.997165165E0,9.665508270E0,-9.571290761E-2,-1.456630826E-1,9.667079643E0
2.999590999E0,9.670293808E0,-1.004985496E-1,-1.408774406E-1,9.671842055E0
3.002016884E0,9.675079346E0,-1.076770201E-1,-1.528415531E-1,9.676885616E0
3.004442769E0,9.672686577E0,-1.292124242E-1,-1.624128371E-1,9.674912888E0
3.006868655E0,9.655936241E0,-1.148554832E-1,-1.624128371E-1,9.657985007E0
3.009294488E0,9.682257652E0,-1.028913707E-1,-1.576271951E-1,9.684087268E0
3.011720374E0,9.679864883E0,-1.004985496E-1,-1.504487246E-1,9.681555605E0
3.014146259E0,9.665508270E0,-9.810572863E-2,-1.456630826E-1,9.667103630E0
3.016572144E0,9.660722733E0,-1.124626622E-1,-1.552343667E-1,9.662624347E0
3.018997978E0,9.660722733E0,-1.100698411E-1,-1.552343667E-1,9.662596793E0
3.021423863E0,9.675079346E0,-8.853443712E-2,-1.576271951E-1,9.676768315E0
3.023849749E0,9.665508270E0,-9.571290761E-2,-1.600200087E-1,9.667306630E0
3.026275634E0,9.655936241E0,-1.148554832E-1,-1.648056656E-1,9.658025543E0
3.028701519E0,9.663115501E0,-1.124626622E-1,-1.504487246E-1,9.664940965E0
3.031127353E0,9.670293808E0,-1.172483116E-1,-1.552343667E-1,9.672250369E0
3.033553238E0,9.679864883E0,-1.220339537E-1,-1.600200087E-1,9.681956561E0
3.035979124E0,9.670293808E0,-1.148554832E-1,-1.552343667E-1,9.672221659E0
3.038405009E0,9.694221497E0,-1.435693651E-1,-1.648056656E-1,9.696685181E0
3.040830842E0,9.663115501E0,-8.614161611E-2,-1.600200087E-1,9.664824260E0
3.043256728E0,9.665508270E0,-1.148554832E-1,-1.480558962E-1,9.667324472E0
3.045682613E0,9.663115501E0,-1.052841991E-1,-1.648056656E-1,9.665094250E0
3.048108499E0,9.687043190E0,-9.571290761E-2,-1.576271951E-1,9.688798329E0
3.050534384E0,9.679864883E0,-1.124626622E-1,-1.648056656E-1,9.681920931E0
3.052960217E0,9.687043190E0,-1.004985496E-1,-1.624128371E-1,9.688925826E0
3.055386103E0,9.670293808E0,-8.853443712E-2,-1.600200087E-1,9.672022905E0
3.057811988E0,9.689435959E0,-1.100698411E-1,-1.719841212E-1,9.691587234E0
3.060237874E0,9.672686577E0,-1.124626622E-1,-1.719841212E-1,9.674869095E0
3.062663707E0,9.679864883E0,-9.332008660E-2,-1.624128371E-1,9.681677062E0
3.065089592E0,9.679864883E0,-1.124626622E-1,-1.671984792E-1,9.681961957E0
3.067515478E0,9.682257652E0,-1.004985496E-1,-1.600200087E-1,9.684101384E0
3.069941363E0,9.663115501E0,-9.332008660E-2,-1.600200087E-1,9.664890907E0
3.072367249E0,9.675079346E0,-1.004985496E-1,-1.695913076E-1,9.677087450E0
3.074793082E0,9.679864883E0,-1.196411327E-1,-1.528415531E-1,9.681810714E0
3.077218967E0,9.684650421E0,-1.052841991E-1,-1.671984792E-1,9.686665777E0
3.079644853E0,9.655936241E0,-1.028913707E-1,-1.695913076E-1,9.657973521E0
3.082070738E0,9.651150703E0,-1.172483116E-1,-1.528415531E-1,9.653072962E0
3.084496572E0,9.677472115E0,-1.387837082E-1,-1.576271951E-1,9.679750708E0
3.086922457E0,9.658329964E0,-1.004985496E-1,-1.695913076E-1,9.660341550E0
3.089348342E0,9.670293808E0,-1.148554832E-1,-1.600200087E-1,9.672299650E0
3.091774228E0,9.660722733E0,-1.244267747E-1,-1.576271951E-1,9.662809740E0
3.094200061E0,9.646365166E0,-7.896314561E-2,-1.648056656E-1,9.648096030E0
3.096625947E0,9.641579628E0,-1.100698411E-1,-1.767697781E-1,9.643828112E0
3.099051832E0,9.677472115E0,-9.332008660E-2,-1.552343667E-1,9.679166952E0
3.101477717E0,9.682257652E0,-1.004985496E-1,-1.456630826E-1,9.683874789E0
3.103903603E0,9.694221497E0,-9.332008660E-2,-1.743769497E-1,9.696238775E0
3.106329436E0,9.679864883E0,-9.810572863E-2,-1.576271951E-1,9.681645275E0
3.108755322E0,9.667901039E0,-1.124626622E-1,-1.408774406E-1,9.669581418E0
3.111181207E0,9.665508270E0,-1.100698411E-1,-1.767697781E-1,9.667751189E0
3.113607092E0,9.670293808E0,-9.332008660E-2,-1.528415531E-1,9.671951794E0
3.116032926E0,9.639186859E0,-9.571290761E-2,-1.624128371E-1,9.641030142E0
3.118458811E0,9.670293808E0,-1.100698411E-1,-1.552343667E-1,9.672166014E0
3.120884697E0,9.655936241E0,-9.810572863E-2,-1.432702541E-1,9.657497388E0
3.123310582E0,9.660722733E0,-8.614161611E-2,-1.552343667E-1,9.662353844E0
3.125736467E0,9.679864883E0,-1.220339537E-1,-1.384846121E-1,9.681624576E0
3.128162301E0,9.684650421E0,-1.172483116E-1,-1.408774406E-1,9.686384640E0
3.130588186E0,9.672686577E0,-1.004985496E-1,-1.624128371E-1,9.674572006E0
3.133014072E0,9.677472115E0,-9.571290761E-2,-1.576271951E-1,9.679228989E0
3.135439957E0,9.675079346E0,-1.339980662E-1,-1.432702541E-1,9.677067851E0
3.137865790E0,9.679864883E0,-9.571290761E-2,-1.576271951E-1,9.681621324E0
3.140291676E0,9.670293808E0,-9.092725813E-2,-1.600200087E-1,9.672045104E0
3.142717561E0,9.677472115E0,-1.100698411E-1,-1.767697781E-1,9.679712261E0
3.145143447E0,9.672686577E0,-1.435693651E-1,-1.791625917E-1,9.675410948E0
3.147569332E0,9.689435959E0,-1.196411327E-1,-1.552343667E-1,9.691417900E0
3.149995165E0,9.684650421E0,-8.853443712E-2,-1.528415531E-1,9.686261026E0
3.152421051E0,9.696614265E0,-1.100698411E-1,-1.576271951E-1,9.698519986E0
3.154846936E0,9.672686577E0,-9.571290761E-2,-1.552343667E-1,9.674405629E0
3.157272822E0,9.667901039E0,-1.028913707E-1,-1.528415531E-1,9.669656544E0
3.159698655E0,9.682257652E0,-1.148554832E-1,-1.600200087E-1,9.684261016E0
3.162124540E0,9.670293808E0,-1.172483116E-1,-1.552343667E-1,9.672250369E0
3.164550426E0,9.651150703E0,-1.076770201E-1,-1.480558962E-1,9.652886863E0
3.166976311E0,9.675079346E0,-9.810572863E-2,-1.719841212E-1,9.677105126E0
3.169402197E0,9.660722733E0,-1.124626622E-1,-1.648056656E-1,9.662782853E0
3.171828030E0,9.687043190E0,-1.052841991E-1,-1.624128371E-1,9.688976647E0
3.174253915E0,9.679864883E0,-1.124626622E-1,-1.456630826E-1,9.681614005E0
3.176679801E0,9.660722733E0,-1.220339537E-1,-1.480558962E-1,9.662627828E0
3.179105686E0,9.675079346E0,-7.657032460E-2,-1.528415531E-1,9.676589477E0
3.181531519E0,9.682257652E0,-7.896314561E-2,-1.552343667E-1,9.683823942E0
3.183957405E0,9.687043190E0,-9.571290761E-2,-1.695913076E-1,9.689000358E0
3.186383290E0,9.703793526E0,-1.004985496E-1,-1.624128371E-1,9.705672912E0
3.188809176E0,9.675079346E0,-1.148554832E-1,-1.671984792E-1,9.677205560E0
3.191235061E0,9.684650421E0,-1.004985496E-1,-1.671984792E-1,9.686614944E0
3.193660894E0,9.670293808E0,-1.148554832E-1,-1.648056656E-1,9.672380008E0
3.196086780E0,9.691828728E0,-9.810572863E-2,-1.480558962E-1,9.693456008E0
3.198512665E0,9.663115501E0,-1.244267747E-1,-1.767697781E-1,9.665533134E0
3.200938551E0,9.667901039E0,-1.100698411E-1,-1.528415531E-1,9.669735592E0
3.203364384E0,9.660722733E0,-9.092725813E-2,-1.432702541E-1,9.662212886E0
3.205790269E0,9.675079346E0,-1.100698411E-1,-1.480558962E-1,9.676838134E0
3.208216155E0,9.651150703E0,-1.100698411E-1,-1.528415531E-1,9.652988439E0
3.210642040E0,9.675079346E0,-1.124626622E-1,-1.456630826E-1,9.676829332E0
3.213067926E0,9.653543472E0,-1.172483116E-1,-1.384846121E-1,9.655248662E0
3.215493759E0,9.665508270E0,-1.316052526E-1,-1.456630826E-1,9.667501632E0
3.217919644E0,9.672686577E0,-1.052841991E-1,-1.313061416E-1,9.674150696E0
3.220345530E0,9.682257652E0,-1.124626622E-1,-1.576271951E-1,9.684193690E0
3.222771415E0,9.682257652E0,-1.100698411E-1,-1.528415531E-1,9.684089485E0
3.225197249E0,9.699007034E0,-1.100698411E-1,-1.432702541E-1,9.700689624E0
3.227623134E0,9.682257652E0,-1.004985496E-1,-1.552343667E-1,9.684023488E0
3.230049019E0,9.684650421E0,-9.332008660E-2,-1.648056656E-1,9.686502120E0
3.232474905E0,9.651150703E0,-1.172483116E-1,-1.552343667E-1,9.653111145E0
3.234900738E0,9.682257652E0,-1.292124242E-1,-1.504487246E-1,9.684288508E0
3.237326624E0,9.663115501E0,-1.196411327E-1,-1.384846121E-1,9.664848327E0
3.239752509E0,9.646365166E0,-1.076770201E-1,-1.600200087E-1,9.648293199E0
3.242178394E0,9.701400757E0,-9.810572863E-2,-1.504487246E-1,9.703063238E0
3.244604280E0,9.667901039E0,-1.124626622E-1,-1.480558962E-1,9.669688666E0
3.247030113E0,9.679864883E0,-1.076770201E-1,-1.384846121E-1,9.681454255E0
3.249455999E0,9.682257652E0,-9.332008660E-2,-1.504487246E-1,9.683876120E0
3.251881884E0,9.667901039E0,-1.100698411E-1,-1.719841212E-1,9.670057105E0
3.254307769E0,9.677472115E0,-1.148554832E-1,-1.528415531E-1,9.679360457E0
3.256733603E0,9.663115501E0,-1.220339537E-1,-1.504487246E-1,9.665057077E0
3.259159488E0,9.660722733E0,-1.268195957E-1,-1.648056656E-1,9.662960614E0
3.261585374E0,9.665508270E0,-1.076770201E-1,-1.504487246E-1,9.667278794E0
3.264011259E0,9.687043190E0,-9.810572863E-2,-1.552343667E-1,9.688783629E0
3.266437092E0,9.687043190E0,-1.004985496E-1,-1.648056656E-1,9.688966231E0
3.268862978E0,9.670293808E0,-1.196411327E-1,-1.648056656E-1,9.672438019E0
3.271288863E0,9.677472115E0,-1.172483116E-1,-1.456630826E-1,9.679278456E0
3.273714749E0,9.687043190E0,-1.172483116E-1,-1.648056656E-1,9.689154444E0
3.276140634E0,9.699007034E0,-1.100698411E-1,-1.576271951E-1,9.700912285E0
3.278566467E0,9.679864883E0,-8.614161611E-2,-1.743769497E-1,9.681818624E0
3.280992353E0,9.670293808E0,-9.332008660E-2,-1.695913076E-1,9.672230983E0
3.283418238E0,9.660722733E0,-1.052841991E-1,-1.552343667E-1,9.662543464E0
3.285844124E0,9.670293808E0,-8.135596663E-2,-1.504487246E-1,9.671806240E0
3.288269957E0,9.682257652E0,-9.332008660E-2,-1.600200087E-1,9.684029548E0
3.290695842E0,9.672686577E0,-1.172483116E-1,-1.528415531E-1,9.674604556E0
3.293121728E0,9.651150703E0,-8.614161611E-2,-1.408774406E-1,9.652563221E0
3.295547613E0,9.679864883E0,-1.124626622E-1,-1.671984792E-1,9.681961957E0
3.297973499E0,9.677472115E0,-1.172483116E-1,-1.648056656E-1,9.679585456E0
3.300399332E0,9.651150703E0,-9.092725813E-2,-1.552343667E-1,9.652827325E0
3.302825217E0,9.658329964E0,-1.100698411E-1,-1.432702541E-1,9.660019639E0
3.305251103E0,9.665508270E0,-1.004985496E-1,-1.576271951E-1,9.667315885E0
3.307676988E0,9.677472115E0,-1.076770201E-1,-1.432702541E-1,9.679131533E0
3.310102822E0,9.667901039E0,-9.810572863E-2,-1.408774406E-1,9.669425096E0
3.312528707E0,9.658329964E0,-1.172483116E-1,-1.528415531E-1,9.660250794E0
3.314954592E0,9.687043190E0,-1.004985496E-1,-1.480558962E-1,9.688695798E0
3.317380478E0,9.682257652E0,-9.571290761E-2,-1.504487246E-1,9.683899474E0
3.319806363E0,9.682257652E0,-9.810572863E-2,-1.624128371E-1,9.684116682E0
3.322232197E0,9.701400757E0,-1.004985496E-1,-1.384846121E-1,9.702909594E0
3.324658082E0,9.646365166E0,-1.004985496E-1,-1.408774406E-1,9.647917253E0
3.327083967E0,9.670293808E0,-1.148554832E-1,-1.480558962E-1,9.672109111E0
3.329509853E0,9.653543472E0,-1.028913707E-1,-1.456630826E-1,9.655190622E0
3.331935686E0,9.670293808E0,-9.092725813E-2,-1.528415531E-1,9.671929003E0
3.334361572E0,9.684650421E0,-1.196411327E-1,-1.360917836E-1,9.686345480E0
3.336787457E0,9.684650421E0,-1.172483116E-1,-1.336989701E-1,9.686282897E0
3.339213342E0,9.675079346E0,-9.092725813E-2,-1.504487246E-1,9.676676234E0
3.341639228E0,9.672686577E0,-1.028913707E-1,-1.576271951E-1,9.674518002E0
3.344065061E0,9.663115501E0,-1.124626622E-1,-1.552343667E-1,9.665016645E0
3.346490947E0,9.672686577E0,-9.810572863E-2,-1.432702541E-1,9.674245020E0
3.348916832E0,9.687043190E0,-7.896314561E-2,-1.480558962E-1,9.688496348E0
3.351342717E0,9.687043190E0,-9.571290761E-2,-1.648056656E-1,9.688917774E0
3.353768551E0,9.687043190E0,-1.172483116E-1,-1.552343667E-1,9.688996369E0
3.356194436E0,9.660722733E0,-1.172483116E-1,-1.695913076E-1,9.662922544E0
3.358620322E0,9.675079346E0,-1.148554832E-1,-1.552343667E-1,9.677006243E0
3.361046207E0,9.663115501E0,-1.124626622E-1,-1.576271951E-1,9.665055374E0
3.363472092E0,9.689435959E0,-1.172483116E-1,-1.576271951E-1,9.691427279E0
3.365897926E0,9.651150703E0,-1.004985496E-1,-1.528415531E-1,9.652884046E0
3.368323811E0,9.667901039E0,-1.028913707E-1,-1.576271951E-1,9.669733371E0
3.370749697E0,9.691828728E0,-1.124626622E-1,-1.624128371E-1,9.693841853E0
3.373175582E0,9.684650421E0,-1.196411327E-1,-1.456630826E-1,9.686484683E0
3.375601415E0,9.682257652E0,-1.052841991E-1,-1.743769497E-1,9.684400102E0
3.378027301E0,9.665508270E0,-1.363908947E-1,-1.552343667E-1,9.667716913E0
3.380453186E0,9.660722733E0,-1.076770201E-1,-1.648056656E-1,9.662728340E0
3.382879072E0,9.679864883E0,-1.076770201E-1,-1.695913076E-1,9.681949169E0
3.385304905E0,9.675079346E0,-1.124626622E-1,-1.552343667E-1,9.676978139E0
3.387730790E0,9.667901039E0,-1.292124242E-1,-1.504487246E-1,9.669934910E0
3.390156676E0,9.667901039E0,-1.220339537E-1,-1.648056656E-1,9.670075682E0
3.392582561E0,9.679864883E0,-1.100698411E-1,-1.624128371E-1,9.681852997E0
3.395008394E0,9.643972397E0,-1.172483116E-1,-1.408774406E-1,9.645713930E0
3.397434280E0,9.670293808E0,-1.292124242E-1,-1.600200087E-1,9.672480788E0
3.399860165E0,9.691828728E0,-9.332008660E-2,-1.648056656E-1,9.693679056E0
3.402286051E0,9.694221497E0,-1.052841991E-1,-1.719841212E-1,9.696318566E0
3.404711936E0,9.687043190E0,-1.124626622E-1,-1.576271951E-1,9.688978272E0
3.407137769E0,9.682257652E0,-9.810572863E-2,-1.552343667E-1,9.683998951E0
3.409563655E0,9.663115501E0,-1.244267747E-1,-1.336989701E-1,9.664841366E0
3.411989540E0,9.672686577E0,-1.244267747E-1,-1.408774406E-1,9.674512602E0
3.414415426E0,9.682257652E0,-1.196411327E-1,-1.600200087E-1,9.684318956E0
3.416841259E0,9.667901039E0,-1.172483116E-1,-1.504487246E-1,9.669782443E0
3.419267144E0,9.672686577E0,-1.196411327E-1,-1.360917836E-1,9.674383732E0
3.421693030E0,9.646365166E0,-1.100698411E-1,-1.504487246E-1,9.648166204E0
3.424118915E0,9.667901039E0,-1.076770201E-1,-1.504487246E-1,9.669671125E0
3.426544801E0,9.648757935E0,-1.124626622E-1,-1.528415531E-1,9.650623714E0
3.428970634E0,9.651150703E0,-1.268195957E-1,-1.576271951E-1,9.653270919E0
3.431396519E0,9.687043190E0,-1.100698411E-1,-1.791625917E-1,9.689325073E0
3.433822405E0,9.691828728E0,-7.178468257E-2,-1.648056656E-1,9.693495656E0
3.436248290E0,9.699007034E0,-9.092725813E-2,-1.456630826E-1,9.700526942E0
3.438674124E0,9.694221497E0,-1.004985496E-1,-1.528415531E-1,9.695947139E0
3.441100009E0,9.684650421E0,-8.135596663E-2,-1.624128371E-1,9.686353829E0
3.443525894E0,9.691828728E0,-9.092725813E-2,-1.432702541E-1,9.693314099E0
3.445951780E0,9.655936241E0,-1.124626622E-1,-1.121635586E-1,9.657242526E0
3.448377613E0,9.682257652E0,-1.076770201E-1,-1.336989701E-1,9.683779376E0
3.450803499E0,9.689435959E0,-1.244267747E-1,-1.552343667E-1,9.691478160E0
3.453229384E0,9.696614265E0,-1.076770201E-1,-1.480558962E-1,9.698342286E0
3.455655269E0,9.684650421E0,-8.614161611E-2,-1.576271951E-1,9.686316147E0
3.458081155E0,9.663115501E0,-1.076770201E-1,-1.456630826E-1,9.664813152E0
3.460506988E0,9.670293808E0,-1.076770201E-1,-1.408774406E-1,9.671919309E0
3.462932874E0,9.684650421E0,-9.092725813E-2,-1.600200087E-1,9.686399122E0
3.465358759E0,9.670293808E0,-9.092725813E-2,-1.576271951E-1,9.672005812E0
3.467784644E0,9.684650421E0,-1.172483116E-1,-1.767697781E-1,9.686973134E0
3.470210478E0,9.689435959E0,-1.124626622E-1,-1.600200087E-1,9.691409776E0
3.472636363E0,9.660722733E0,-1.196411327E-1,-1.624128371E-1,9.662828553E0
3.475062249E0,9.677472115E0,-1.220339537E-1,-1.671984792E-1,9.679685643E0
3.477488134E0,9.672686577E0,-1.076770201E-1,-1.719841212E-1,9.674814649E0
3.479914019E0,9.682257652E0,-1.124626622E-1,-1.624128371E-1,9.684272767E0
3.482339853E0,9.675079346E0,-1.244267747E-1,-1.648056656E-1,9.677282846E0
3.484765738E0,9.677472115E0,-1.100698411E-1,-1.456630826E-1,9.679194162E0
3.487191624E0,9.667901039E0,-1.268195957E-1,-1.528415531E-1,9.669940757E0
3.489617509E0,9.708579063E0,-7.178468257E-2,-1.432702541E-1,9.709901484E0
3.492043342E0,9.689435959E0,-1.100698411E-1,-1.600200087E-1,9.691382305E0
3.494469228E0,9.687043190E0,-1.028913707E-1,-1.624128371E-1,9.688950941E0
3.496895113E0,9.675079346E0,-1.148554832E-1,-1.552343667E-1,9.677006243E0
3.499320999E0,9.682257652E0,-8.853443712E-2,-1.600200087E-1,9.683984614E0
3.501746884E0,9.651150703E0,-1.100698411E-1,-1.552343667E-1,9.653026623E0
3.504172717E0,9.663115501E0,-1.076770201E-1,-1.576271951E-1,9.665000873E0
3.506598603E0,9.684650421E0,-1.268195957E-1,-1.624128371E-1,9.686842361E0
3.509024488E0,9.672686577E0,-1.244267747E-1,-1.719841212E-1,9.675015565E0
3.511450374E0,9.682257652E0,-1.196411327E-1,-1.480558962E-1,9.684128654E0
3.513876207E0,9.684650421E0,-1.076770201E-1,-1.480558962E-1,9.686380576E0
3.516302092E0,9.663115501E0,-1.076770201E-1,-1.671984792E-1,9.665161709E0
3.518727978E0,9.672686577E0,-9.571290761E-2,-1.695913076E-1,9.674646649E0
3.521153863E0,9.677472115E0,-9.332008660E-2,-1.648056656E-1,9.679325187E0
3.523579697E0,9.679864883E0,-1.052841991E-1,-1.600200087E-1,9.681759929E0
3.526005582E0,9.679864883E0,-1.028913707E-1,-1.456630826E-1,9.681507555E0
3.528431467E0,9.663115501E0,-9.571290761E-2,-1.743769497E-1,9.665162672E0
3.530857353E0,9.675079346E0,-9.332008660E-2,-1.504487246E-1,9.676699014E0
3.533283238E0,9.658329964E0,-9.810572863E-2,-1.576271951E-1,9.660114324E0
3.535709072E0,9.667901039E0,-1.100698411E-1,-1.600200087E-1,9.669851719E0
3.538134957E0,9.689435959E0,-1.148554832E-1,-1.648056656E-1,9.691518038E0
3.540560842E0,9.670293808E0,-1.076770201E-1,-1.552343667E-1,9.672139080E0
3.542986728E0,9.653543472E0,-1.100698411E-1,-1.600200087E-1,9.655497053E0
3.545412561E0,9.667901039E0,-9.332008660E-2,-1.528415531E-1,9.669559436E0
3.547838447E0,9.687043190E0,-9.571290761E-2,-1.504487246E-1,9.688684201E0
3.550264332E0,9.675079346E0,-1.076770201E-1,-1.576271951E-1,9.676962386E0
3.552690217E0,9.677472115E0,-1.172483116E-1,-1.552343667E-1,9.679427225E0
3.555116051E0,9.677472115E0,-8.614161611E-2,-1.671984792E-1,9.679299677E0
3.557541936E0,9.672686577E0,-1.076770201E-1,-1.648056656E-1,9.674689704E0
3.559967822E0,9.696614265E0,-1.028913707E-1,-1.504487246E-1,9.698327158E0
3.562393707E0,9.675079346E0,-9.092725813E-2,-1.480558962E-1,9.676639327E0
3.564819592E0,9.672686577E0,-1.076770201E-1,-1.624128371E-1,9.674649238E0
3.567245426E0,9.665508270E0,-9.092725813E-2,-1.576271951E-1,9.667221122E0
3.569671311E0,9.682257652E0,-9.332008660E-2,-1.456630826E-1,9.683802952E0
3.572097197E0,9.665508270E0,-1.028913707E-1,-1.528415531E-1,9.667264210E0
3.574523082E0,9.699007034E0,-1.004985496E-1,-1.791625917E-1,9.701182229E0
3.576948915E0,9.651150703E0,-1.148554832E-1,-1.648056656E-1,9.653241041E0
3.579374801E0,9.670293808E0,-1.100698411E-1,-1.480558962E-1,9.672053466E0
3.581800686E0,9.684650421E0,-1.100698411E-1,-1.624128371E-1,9.686637553E0
3.584226572E0,9.679864883E0,-1.100698411E-1,-1.600200087E-1,9.681813153E0
3.586652405E0,9.655936241E0,-1.196411327E-1,-1.432702541E-1,9.657740163E0
3.589078290E0,9.689435959E0,-1.076770201E-1,-1.360917836E-1,9.690989863E0
3.591504176E0,9.675079346E0,-1.148554832E-1,-1.624128371E-1,9.677124059E0
3.593930061E0,9.677472115E0,-1.172483116E-1,-1.480558962E-1,9.679314761E0
3.596355947E0,9.679864883E0,-1.148554832E-1,-1.456630826E-1,9.681642096E0
3.598781780E0,9.677472115E0,-1.268195957E-1,-1.552343667E-1,9.679547895E0
3.601207665E0,9.670293808E0,-1.148554832E-1,-1.600200087E-1,9.672299650E0
3.603633551E0,9.691828728E0,-1.363908947E-1,-1.480558962E-1,9.693919079E0
3.606059436E0,9.655936241E0,-1.004985496E-1,-1.719841212E-1,9.657990639E0
3.608485269E0,9.684650421E0,-1.028913707E-1,-1.552343667E-1,9.686440942E0
3.610911155E0,9.665508270E0,-1.028913707E-1,-1.600200087E-1,9.667380367E0
3.613337040E0,9.689435959E0,-1.148554832E-1,-1.600200087E-1,9.691437839E0
3.615762926E0,9.675079346E0,-1.316052526E-1,-1.576271951E-1,9.677258218E0
3.618188759E0,9.672686577E0,-9.810572863E-2,-1.504487246E-1,9.674353992E0
3.620614644E0,9.658329964E0,-1.004985496E-1,-1.695913076E-1,9.660341550E0
3.623040530E0,9.653543472E0,-1.028913707E-1,-1.480558962E-1,9.655227017E0
3.625466415E0,9.670293808E0,-1.004985496E-1,-1.504487246E-1,9.671986203E0
3.627892301E0,9.682257652E0,-1.004985496E-1,-1.432702541E-1,9.683839092E0
3.630318134E0,9.663115501E0,-1.220339537E-1,-1.265204996E-1,9.664714218E0
3.632744019E0,9.677472115E0,-9.571290761E-2,-1.432702541E-1,9.679005830E0
3.635169905E0,9.670293808E0,-9.571290761E-2,-1.360917836E-1,9.671724989E0
3.637595790E0,9.684650421E0,-1.052841991E-1,-1.456630826E-1,9.686317994E0
3.640021624E0,9.682257652E0,-1.052841991E-1,-1.480558962E-1,9.683961925E0
3.642447509E0,9.708579063E0,-9.092725813E-2,-1.528415531E-1,9.710207811E0
3.644873394E0,9.675079346E0,-8.853443712E-2,-1.528415531E-1,9.676691544E0
3.647299280E0,9.660722733E0,-9.810572863E-2,-1.576271951E-1,9.662506651E0
3.649725165E0,9.687043190E0,-9.810572863E-2,-1.648056656E-1,9.688941707E0
3.652150999E0,9.679864883E0,-9.092725813E-2,-1.815554202E-1,9.681994335E0
3.654576884E0,9.684650421E0,-1.100698411E-1,-1.576271951E-1,9.686558495E0
3.657002769E0,9.677472115E0,-1.124626622E-1,-1.504487246E-1,9.679294871E0
3.659428655E0,9.658329964E0,-9.810572863E-2,-1.504487246E-1,9.659999857E0
3.661854488E0,9.682257652E0,-8.374879509E-2,-1.432702541E-1,9.683679749E0
3.664280374E0,9.682257652E0,-9.332008660E-2,-1.480558962E-1,9.683839240E0
3.666706259E0,9.665508270E0,-9.092725813E-2,-1.504487246E-1,9.667106739E0
3.669132144E0,9.672686577E0,-9.092725813E-2,-1.528415531E-1,9.674321367E0
3.671558030E0,9.689435959E0,-1.076770201E-1,-1.600200087E-1,9.691355424E0
3.673983863E0,9.665508270E0,-1.004985496E-1,-1.504487246E-1,9.667201503E0
3.676409749E0,9.691828728E0,-1.028913707E-1,-1.624128371E-1,9.693735536E0
3.678835634E0,9.691828728E0,-9.810572863E-2,-1.671984792E-1,9.693767284E0
3.681261519E0,9.667901039E0,-8.135596663E-2,-1.576271951E-1,9.669528201E0
3.683687353E0,9.675079346E0,-8.853443712E-2,-1.671984792E-1,9.676928956E0
3.686113238E0,9.670293808E0,-1.172483116E-1,-1.552343667E-1,9.672250369E0
3.688539124E0,9.677472115E0,-9.092725813E-2,-1.671984792E-1,9.679343450E0
3.690965009E0,9.682257652E0,-1.124626622E-1,-1.624128371E-1,9.684272767E0
3.693390842E0,9.672686577E0,-9.571290761E-2,-1.624128371E-1,9.674523477E0
3.695816728E0,9.675079346E0,-1.220339537E-1,-1.552343667E-1,9.677094106E0
3.698242613E0,9.696614265E0,-1.292124242E-1,-1.456630826E-1,9.698569059E0
3.700668499E0,9.694221497E0,-1.148554832E-1,-1.432702541E-1,9.695960425E0
3.703094332E0,9.679864883E0,-1.100698411E-1,-1.624128371E-1,9.681852997E0
3.705520217E0,9.684650421E0,-1.028913707E-1,-1.767697781E-1,9.686810000E0
3.707946103E0,9.675079346E0,-1.220339537E-1,-1.504487246E-1,9.677018521E0
3.710371988E0,9.694221497E0,-9.332008660E-2,-1.336989701E-1,9.695592528E0
3.712797874E0,9.672686577E0,-9.571290761E-2,-1.480558962E-1,9.674293107E0
3.715223707E0,9.663115501E0,-1.004985496E-1,-1.408774406E-1,9.664664899E0
3.717649592E0,9.655936241E0,-1.148554832E-1,-1.504487246E-1,9.657791222E0
3.720075478E0,9.667901039E0,-1.076770201E-1,-1.576271951E-1,9.669785477E0
3.722501363E0,9.655936241E0,-1.124626622E-1,-1.313061416E-1,9.657483826E0
3.724927197E0,9.689435959E0,-9.332008660E-2,-1.408774406E-1,9.690909364E0
3.727353082E0,9.672686577E0,-9.810572863E-2,-1.552343667E-1,9.674429599E0
3.729778967E0,9.675079346E0,-1.028913707E-1,-1.528415531E-1,9.676833548E0
3.732204853E0,9.687043190E0,-1.052841991E-1,-1.432702541E-1,9.688674672E0
3.734630738E0,9.699007034E0,-1.076770201E-1,-1.504487246E-1,9.700771444E0
3.737056572E0,9.691828728E0,-9.810572863E-2,-1.552343667E-1,9.693568307E0
3.739482457E0,9.663115501E0,-1.028913707E-1,-1.432702541E-1,9.664725252E0
3.741908342E0,9.660722733E0,-1.028913707E-1,-1.648056656E-1,9.662676195E0
3.744334228E0,9.655936241E0,-1.100698411E-1,-1.552343667E-1,9.657811231E0
3.746760061E0,9.679864883E0,-9.332008660E-2,-1.480558962E-1,9.681446862E0
3.749185947E0,9.684650421E0,-1.004985496E-1,-1.408774406E-1,9.686196374E0
3.751611832E0,9.701400757E0,-1.052841991E-1,-1.432702541E-1,9.703029824E0
3.754037717E0,9.696614265E0,-1.052841991E-1,-1.528415531E-1,9.698390254E0
3.756463551E0,9.679864883E0,-1.004985496E-1,-1.528415531E-1,9.681593085E0
3.758889436E0,9.672686577E0,-8.614161611E-2,-1.504487246E-1,9.674240064E0
3.761315322E0,9.677472115E0,-1.076770201E-1,-1.624128371E-1,9.679433806E0
3.763741207E0,9.648757935E0,-1.316052526E-1,-1.576271951E-1,9.650942750E0
3.766167040E0,9.689435959E0,-1.196411327E-1,-1.408774406E-1,9.691198566E0
3.768592926E0,9.667901039E0,-1.148554832E-1,-1.408774406E-1,9.669609544E0
3.771018811E0,9.670293808E0,-1.004985496E-1,-1.576271951E-1,9.672100528E0
3.773444697E0,9.684650421E0,-9.571290761E-2,-1.480558962E-1,9.686254967E0
3.775870582E0,9.694221497E0,-1.148554832E-1,-1.456630826E-1,9.695996078E0
3.778296415E0,9.670293808E0,-1.100698411E-1,-1.576271951E-1,9.672204714E0
3.780722301E0,9.646365166E0,-1.411765367E-1,-1.600200087E-1,9.648725207E0
3.783148186E0,9.663115501E0,-1.028913707E-1,-1.576271951E-1,9.664948741E0
3.785574072E0,9.648757935E0,-1.004985496E-1,-1.504487246E-1,9.650454106E0
3.787999905E0,9.675079346E0,-9.571290761E-2,-1.504487246E-1,9.676722385E0
3.790425790E0,9.684650421E0,-1.172483116E-1,-1.600200087E-1,9.686681958E0
3.792851676E0,9.667901039E0,-1.124626622E-1,-1.480558962E-1,9.669688666E0
3.795277561E0,9.663115501E0,-1.292124242E-1,-1.648056656E-1,9.665384522E0
3.797703394E0,9.682257652E0,-1.148554832E-1,-1.576271951E-1,9.684221774E0
3.800129280E0,9.694221497E0,-1.196411327E-1,-1.552343667E-1,9.696202459E0
3.802555165E0,9.677472115E0,-1.100698411E-1,-1.576271951E-1,9.679381604E0
3.804981051E0,9.655936241E0,-1.004985496E-1,-1.504487246E-1,9.657631152E0
3.807406936E0,9.703793526E0,-1.076770201E-1,-1.671984792E-1,9.705831158E0
3.809832769E0,9.679864883E0,-1.004985496E-1,-1.648056656E-1,9.681789350E0
3.812258655E0,9.691828728E0,-1.100698411E-1,-1.695913076E-1,9.693937315E0
3.814684540E0,9.687043190E0,-1.004985496E-1,-1.480558962E-1,9.688695798E0
3.817110426E0,9.679864883E0,-1.172483116E-1,-1.456630826E-1,9.681670778E0
3.819536259E0,9.672686577E0,-9.332008660E-2,-1.600200087E-1,9.674460226E0
3.821962144E0,9.646365166E0,-8.853443712E-2,-1.648056656E-1,9.648179111E0
3.824388030E0,9.672686577E0,-1.316052526E-1,-1.504487246E-1,9.674751696E0
3.826813915E0,9.689435959E0,-1.411765367E-1,-1.576271951E-1,9.691746300E0
3.829239801E0,9.691828728E0,-1.316052526E-1,-1.552343667E-1,9.693965223E0
3.831665634E0,9.670293808E0,-9.092725813E-2,-1.695913076E-1,9.672208192E0
3.834091519E0,9.641579628E0,-1.148554832E-1,-1.576271951E-1,9.643552034E0
3.836517405E0,9.675079346E0,-1.220339537E-1,-1.528415531E-1,9.677056018E0
3.838943290E0,9.679864883E0,-1.196411327E-1,-1.624128371E-1,9.681966541E0
3.841369124E0,9.672686577E0,-1.148554832E-1,-1.552343667E-1,9.674613951E0
3.843795009E0,9.689435959E0,-1.004985496E-1,-1.552343667E-1,9.691200486E0
3.846220894E0,9.694221497E0,-1.196411327E-1,-1.743769497E-1,9.696527819E0
3.848646780E0,9.687043190E0,-1.100698411E-1,-1.432702541E-1,9.688727858E0
3.851072613E0,9.684650421E0,-1.124626622E-1,-1.719841212E-1,9.686830244E0
3.853498499E0,9.687043190E0,-8.374879509E-2,-1.528415531E-1,9.688610848E0
3.855924384E0,9.691828728E0,-1.148554832E-1,-1.528415531E-1,9.693714273E0
3.858350269E0,9.696614265E0,-9.092725813E-2,-1.791625917E-1,9.698695542E0
3.860776103E0,9.663115501E0,-9.810572863E-2,-1.695913076E-1,9.665101507E0
3.863201988E0,9.684650421E0,-9.810572863E-2,-1.695913076E-1,9.686632011E0
3.865627874E0,9.670293808E0,-8.853443712E-2,-1.576271951E-1,9.671983613E0
3.868053759E0,9.679864883E0,-9.092725813E-2,-1.576271951E-1,9.681575195E0
3.870479644E0,9.677472115E0,-1.148554832E-1,-1.504487246E-1,9.679322969E0
3.872905478E0,9.682257652E0,-9.810572863E-2,-1.576271951E-1,9.684037604E0
3.875331363E0,9.675079346E0,-1.196411327E-1,-1.552343667E-1,9.677064227E0
3.877757249E0,9.708579063E0,-1.076770201E-1,-1.863410622E-1,9.710964152E0
3.880183134E0,9.677472115E0,-1.220339537E-1,-1.671984792E-1,9.679685643E0
3.882608967E0,9.672686577E0,-1.100698411E-1,-1.480558962E-1,9.674445800E0
3.885034853E0,9.682257652E0,-1.028913707E-1,-1.552343667E-1,9.684048616E0
3.887460738E0,9.689435959E0,-1.268195957E-1,-1.408774406E-1,9.691289845E0
3.889886624E0,9.694221497E0,-1.004985496E-1,-1.576271951E-1,9.696023758E0
3.892312509E0,9.687043190E0,-1.172483116E-1,-1.600200087E-1,9.689074225E0
3.894738342E0,9.665508270E0,-1.100698411E-1,-1.408774406E-1,9.667161525E0
3.897164228E0,9.682257652E0,-1.196411327E-1,-1.456630826E-1,9.684092367E0
3.899590113E0,9.682257652E0,-1.076770201E-1,-1.408774406E-1,9.683881145E0
3.902015999E0,9.675079346E0,-1.196411327E-1,-1.552343667E-1,9.677064227E0
3.904441832E0,9.684650421E0,-1.076770201E-1,-1.528415531E-1,9.686454907E0
3.906867717E0,9.665508270E0,-1.028913707E-1,-1.504487246E-1,9.667226674E0
3.909293603E0,9.679864883E0,-9.332008660E-2,-1.743769497E-1,9.681885153E0
3.911719488E0,9.670293808E0,-1.004985496E-1,-1.576271951E-1,9.672100528E0
3.914145322E0,9.672686577E0,-1.052841991E-1,-1.504487246E-1,9.674429451E0
3.916571207E0,9.667901039E0,-9.571290761E-2,-1.600200087E-1,9.669698954E0
3.918997092E0,9.658329964E0,-9.092725813E-2,-1.624128371E-1,9.660123363E0
3.921422978E0,9.670293808E0,-9.810572863E-2,-1.408774406E-1,9.671817488E0
3.923848811E0,9.684650421E0,-9.571290761E-2,-1.576271951E-1,9.686405994E0
3.926274697E0,9.689435959E0,-1.124626622E-1,-1.384846121E-1,9.691078115E0
3.928700582E0,9.694221497E0,-1.100698411E-1,-1.384846121E-1,9.695835383E0
3.931126467E0,9.694221497E0,-9.571290761E-2,-1.313061416E-1,9.695583154E0
3.933552353E0,9.670293808E0,-9.571290761E-2,-1.360917836E-1,9.671724989E0
3.935978186E0,9.667901039E0,-1.076770201E-1,-1.504487246E-1,9.669671125E0
3.938404072E0,9.687043190E0,-1.124626622E-1,-1.648056656E-1,9.689097715E0
