"Time (s)","Acceleration x (m/s^2)","Acceleration y (m/s^2)","Acceleration z (m/s^2)","Absolute acceleration (m/s^2)"
2.634119800E-2,9.689435959E0,-1.052841991E-1,-1.217348501E-1,9.690772587E0
2.876510400E-2,9.670293808E0,-1.124626622E-1,-8.105687052E-2,9.671287422E0
3.118828100E-2,9.677472115E0,-1.052841991E-1,-7.148557901E-2,9.678308813E0
3.361182300E-2,9.677472115E0,-1.124626622E-1,-6.191428751E-2,9.678323603E0
3.603520900E-2,9.658329964E0,-1.220339537E-1,-5.952146277E-2,9.659284279E0
3.845885400E-2,9.675079346E0,-9.571290761E-2,-4.037888348E-2,9.675637021E0
4.088260400E-2,9.691828728E0,-1.052841991E-1,-2.602194622E-2,9.692435504E0
4.330604200E-2,9.641579628E0,-1.100698411E-1,-4.516452923E-2,9.642313671E0
4.572927100E-2,9.691828728E0,-9.810572863E-2,-4.277170449E-2,9.692419628E0
4.815302100E-2,9.684650421E0,-8.853443712E-2,-4.037888348E-2,9.685139265E0
5.057666700E-2,9.691828728E0,-1.148554832E-1,-4.277170449E-2,9.692603638E0
5.300067700E-2,9.706186295E0,-9.092725813E-2,-6.669992954E-2,9.706841352E0
5.542406300E-2,9.682257652E0,-9.810572863E-2,-7.866404206E-2,9.683074202E0
5.784817700E-2,9.679864883E0,-1.076770201E-1,-7.866404206E-2,9.680783364E0
6.027161500E-2,9.696614265E0,-1.052841991E-1,-1.025922745E-1,9.697728505E0
6.269515600E-2,9.670293808E0,-1.052841991E-1,-9.780662507E-2,9.671361498E0
6.511854200E-2,9.667901039E0,-1.028913707E-1,-8.344969153E-2,9.668808664E0
6.754197900E-2,9.675079346E0,-1.196411327E-1,-9.780662507E-2,9.676313372E0
6.996526100E-2,9.670293808E0,-9.571290761E-2,-1.121635586E-1,9.671417888E0
7.238864600E-2,9.660722733E0,-1.196411327E-1,-1.073779166E-1,9.662060222E0
7.481197900E-2,9.675079346E0,-1.028913707E-1,-1.025922745E-1,9.676170325E0
7.723557300E-2,9.672686577E0,-1.316052526E-1,-9.780662507E-2,9.674076271E0
7.965869800E-2,9.658329964E0,-1.148554832E-1,-1.049850956E-1,9.659583394E0
8.208234400E-2,9.672686577E0,-1.292124242E-1,-1.241276711E-1,9.674345928E0
8.450531300E-2,9.675079346E0,-1.052841991E-1,-9.780662507E-2,9.676146508E0
8.692859400E-2,9.675079346E0,-1.220339537E-1,-8.105687052E-2,9.676188446E0
8.935171900E-2,9.679864883E0,-1.028913707E-1,-7.866404206E-2,9.680731317E0
9.177531300E-2,9.682257652E0,-1.100698411E-1,-8.584251255E-2,9.683263786E0
9.419812500E-2,9.684650421E0,-1.076770201E-1,-8.584251255E-2,9.685629409E0
9.662135400E-2,9.696614265E0,-1.076770201E-1,-8.344969153E-2,9.697571160E0
9.904484400E-2,9.672686577E0,-1.124626622E-1,-1.097707376E-1,9.673963153E0
1.014680730E-1,9.665508270E0,-1.316052526E-1,-9.062815458E-2,9.666829032E0
1.038907810E-1,9.658329964E0,-1.172483116E-1,-9.062815458E-2,9.659466772E0
1.063143750E-1,9.691828728E0,-1.100698411E-1,-7.866404206E-2,9.692772951E0
1.087373960E-1,9.677472115E0,-1.148554832E-1,-1.025922745E-1,9.678697406E0
1.111601040E-1,9.667901039E0,-1.124626622E-1,-1.169492081E-1,9.669262406E0
1.135836460E-1,9.663115501E0,-1.004985496E-1,-1.049850956E-1,9.664208349E0
1.160074480E-1,9.699007034E0,-1.004985496E-1,-1.025922745E-1,9.700070236E0
1.184301560E-1,9.675079346E0,-1.339980662E-1,-1.073779166E-1,9.676603012E0
1.208536980E-1,9.682257652E0,-1.100698411E-1,-9.302098304E-2,9.683330084E0
1.232778130E-1,9.658329964E0,-1.124626622E-1,-9.302098304E-2,9.659432615E0
1.257013020E-1,9.667901039E0,-1.124626622E-1,-8.823533356E-2,9.668957743E0
1.281248960E-1,9.658329964E0,-1.244267747E-1,-9.062815458E-2,9.659556572E0
1.305481250E-1,9.679864883E0,-1.124626622E-1,-1.001994461E-1,9.681036718E0
1.329715630E-1,9.677472115E0,-1.124626622E-1,-1.001994461E-1,9.678644239E0
1.353950000E-1,9.684650421E0,-9.332008660E-2,-8.584251255E-2,9.685480440E0
1.378181770E-1,9.694221497E0,-1.100698411E-1,-1.049850956E-1,9.695414775E0
1.402413540E-1,9.677472115E0,-1.244267747E-1,-9.302098304E-2,9.678718999E0
1.426647920E-1,9.655936241E0,-1.172483116E-1,-7.387840003E-2,9.656930665E0
1.450884380E-1,9.670293808E0,-1.052841991E-1,-7.387840003E-2,9.671149110E0
1.475117710E-1,9.679864883E0,-1.028913707E-1,-7.387840003E-2,9.680693612E0
1.499356250E-1,9.675079346E0,-9.092725813E-2,-8.105687052E-2,9.675846130E0
1.523592710E-1,9.679864883E0,-1.076770201E-1,-8.823533356E-2,9.680865869E0
1.547823440E-1,9.706186295E0,-1.196411327E-1,-8.105687052E-2,9.707262055E0
1.572048440E-1,9.677472115E0,-1.172483116E-1,-8.105687052E-2,9.678521783E0
1.596282810E-1,9.687043190E0,-1.028913707E-1,-1.001994461E-1,9.688107779E0
1.620517710E-1,9.691828728E0,-8.374879509E-2,-1.097707376E-1,9.692812160E0
1.644746880E-1,9.670293808E0,-1.100698411E-1,-8.823533356E-2,9.671322721E0
1.668982810E-1,9.670293808E0,-1.076770201E-1,-7.866404206E-2,9.671213197E0
1.693210420E-1,9.701400757E0,-1.244267747E-1,-8.823533356E-2,9.702599865E0
1.717444790E-1,9.694221497E0,-1.100698411E-1,-8.584251255E-2,9.695226389E0
1.741677610E-1,9.687043190E0,-1.052841991E-1,-1.049850956E-1,9.688184164E0
1.765911980E-1,9.665508270E0,-1.196411327E-1,-8.344969153E-2,9.666608918E0
1.790145840E-1,9.663115501E0,-9.571290761E-2,-8.105687052E-2,9.663929448E0
1.814380210E-1,9.670293808E0,-9.810572863E-2,-9.302098304E-2,9.671238802E0
1.838613540E-1,9.691828728E0,-1.052841991E-1,-9.541380405E-2,9.692870196E0
1.862847400E-1,9.682257652E0,-1.100698411E-1,-1.001994461E-1,9.683401703E0
1.887079170E-1,9.651150703E0,-8.614161611E-2,-8.823533356E-2,9.651938445E0
1.911309380E-1,9.670293808E0,-1.124626622E-1,-9.780662507E-2,9.671442308E0
1.935551040E-1,9.696614265E0,-1.028913707E-1,-1.073779166E-1,9.697754630E0
1.959781770E-1,9.703793526E0,-1.148554832E-1,-1.049850956E-1,9.705041084E0
1.984019270E-1,9.667901039E0,-1.148554832E-1,-1.049850956E-1,9.669153228E0
2.008260940E-1,9.677472115E0,-9.810572863E-2,-8.823533356E-2,9.678371595E0
2.032490630E-1,9.696614265E0,-9.092725813E-2,-1.001994461E-1,9.697558245E0
2.056717710E-1,9.691828728E0,-1.076770201E-1,-1.025922745E-1,9.692969803E0
2.080941670E-1,9.677472115E0,-9.332008660E-2,-9.541380405E-2,9.678392375E0
2.105179690E-1,9.655936241E0,-1.004985496E-1,-9.541380405E-2,9.656930591E0
2.129415110E-1,9.667901039E0,-1.124626622E-1,-1.001994461E-1,9.669074324E0
2.153647920E-1,9.667901039E0,-9.332008660E-2,-9.780662507E-2,9.668846119E0
2.177882290E-1,9.672686577E0,-1.100698411E-1,-1.001994461E-1,9.673831760E0
2.202117710E-1,9.670293808E0,-1.004985496E-1,-9.780662507E-2,9.671310585E0
2.226359900E-1,9.687043190E0,-9.571290761E-2,-8.584251255E-2,9.687896349E0
2.250604170E-1,9.675079346E0,-1.028913707E-1,-8.344969153E-2,9.675986298E0
2.274840110E-1,9.667901039E0,-1.076770201E-1,-9.541380405E-2,9.668971436E0
2.299079690E-1,9.684650421E0,-1.100698411E-1,-1.025922745E-1,9.685819239E0
2.323318230E-1,9.687043190E0,-9.571290761E-2,-1.001994461E-1,9.688034200E0
2.347554170E-1,9.701400757E0,-9.092725813E-2,-8.344969153E-2,9.702185747E0
2.371786460E-1,9.665508270E0,-1.172483116E-1,-8.105687052E-2,9.666559238E0
2.396021880E-1,9.679864883E0,-1.076770201E-1,-1.001994461E-1,9.680982307E0
2.420254170E-1,9.675079346E0,-8.614161611E-2,-1.001994461E-1,9.675981638E0
2.444485940E-1,9.653543472E0,-8.135596663E-2,-1.217348501E-1,9.654653787E0
2.468715630E-1,9.684650421E0,-9.092725813E-2,-7.866404206E-2,9.685396718E0
2.492948440E-1,9.667901039E0,-9.332008660E-2,-8.823533356E-2,9.668754036E0
2.517183860E-1,9.691828728E0,-1.124626622E-1,-8.344969153E-2,9.692840440E0
2.541415630E-1,9.696614265E0,-9.810572863E-2,-9.541380405E-2,9.697579942E0
2.565655730E-1,9.665508270E0,-1.196411327E-1,-9.302098304E-2,9.666696283E0
2.589891670E-1,9.675079346E0,-1.148554832E-1,-8.344969153E-2,9.676120916E0
2.614130210E-1,9.655936241E0,-9.571290761E-2,-8.105687052E-2,9.656750793E0
2.638369790E-1,9.663115501E0,-9.810572863E-2,-7.627122104E-2,9.663914488E0
2.662608340E-1,9.691828728E0,-1.028913707E-1,-1.097707376E-1,9.692996458E0
2.686843230E-1,9.675079346E0,-1.076770201E-1,-1.097707376E-1,9.676301168E0
2.711078130E-1,9.667901039E0,-1.148554832E-1,-7.866404206E-2,9.668903263E0
2.735310940E-1,9.684650421E0,-1.148554832E-1,-8.344969153E-2,9.685690962E0
2.759544270E-1,9.675079346E0,-1.052841991E-1,-1.025922745E-1,9.676196065E0
2.783784900E-1,9.653543472E0,-1.004985496E-1,-1.025922745E-1,9.654611681E0
2.808022920E-1,9.675079346E0,-1.172483116E-1,-9.302098304E-2,9.676236893E0
2.832255210E-1,9.679864883E0,-9.810572863E-2,-1.025922745E-1,9.680905643E0
2.856491670E-1,9.665508270E0,-1.292124242E-1,-1.049850956E-1,9.666942011E0
2.880728650E-1,9.679864883E0,-1.124626622E-1,-9.062815458E-2,9.680942386E0
2.904963540E-1,9.679864883E0,-1.028913707E-1,-9.541380405E-2,9.680881912E0
2.929192710E-1,9.679864883E0,-1.100698411E-1,-9.062815458E-2,9.680914884E0
2.953424480E-1,9.665508270E0,-1.004985496E-1,-1.025922745E-1,9.666575156E0
2.977653650E-1,9.648757935E0,-8.853443712E-2,-1.001994461E-1,9.649684345E0
3.001882810E-1,9.679864883E0,-1.100698411E-1,-9.541380405E-2,9.680960868E0
3.026113540E-1,9.663115501E0,-9.092725813E-2,-9.062815458E-2,9.663968254E0
3.050340630E-1,9.672686577E0,-9.332008660E-2,-1.073779166E-1,9.673732696E0
3.074570310E-1,9.682257652E0,-1.363908947E-1,-9.780662507E-2,9.683712194E0
3.098798440E-1,9.691828728E0,-1.220339537E-1,-8.584251255E-2,9.692977113E0
3.123036460E-1,9.701400757E0,-1.004985496E-1,-1.049850956E-1,9.702489293E0
3.147270840E-1,9.672686577E0,-1.052841991E-1,-9.780662507E-2,9.673754003E0
3.171499480E-1,9.682257652E0,-1.052841991E-1,-9.780662507E-2,9.683324023E0
3.195728650E-1,9.672686577E0,-1.028913707E-1,-1.049850956E-1,9.673803498E0
3.219964590E-1,9.694221497E0,-1.004985496E-1,-1.193420291E-1,9.695476930E0
3.244198440E-1,9.710971832E0,-1.028913707E-1,-8.584251255E-2,9.711896287E0
3.268429690E-1,9.677472115E0,-9.092725813E-2,-1.073779166E-1,9.678494940E0
3.292665110E-1,9.655936241E0,-1.196411327E-1,-9.302098304E-2,9.657125431E0
3.316901040E-1,9.672686577E0,-1.268195957E-1,-9.780662507E-2,9.674012351E0
3.341137500E-1,9.672686577E0,-9.092725813E-2,-1.001994461E-1,9.673632891E0
3.365370840E-1,9.665508270E0,-1.028913707E-1,-1.049850956E-1,9.666626021E0
3.389606250E-1,9.684650421E0,-1.148554832E-1,-9.541380405E-2,9.685801431E0
3.413835940E-1,9.706186295E0,-1.100698411E-1,-8.344969153E-2,9.707169083E0
3.438075000E-1,9.691828728E0,-7.417750359E-2,-9.062815458E-2,9.692536296E0
3.462310940E-1,9.667901039E0,-1.076770201E-1,-9.302098304E-2,9.668948120E0
3.486542190E-1,9.665508270E0,-1.172483116E-1,-9.780662507E-2,9.666714200E0
3.510782290E-1,9.691828728E0,-1.244267747E-1,-9.062815458E-2,9.693051097E0
3.535018750E-1,9.677472115E0,-9.332008660E-2,-6.430710852E-2,9.678135697E0
3.559260940E-1,9.651150703E0,-1.220339537E-1,-9.062815458E-2,9.652347675E0
3.583497920E-1,9.672686577E0,-1.148554832E-1,-7.627122104E-2,9.673669143E0
3.607729690E-1,9.670293808E0,-1.076770201E-1,-8.344969153E-2,9.671253307E0
3.631961460E-1,9.675079346E0,-9.332008660E-2,-8.105687052E-2,9.675868912E0
3.656196360E-1,9.665508270E0,-1.004985496E-1,-9.062815458E-2,9.666455583E0
3.680430730E-1,9.672686577E0,-1.028913707E-1,-6.430710852E-2,9.673447558E0
3.704669270E-1,9.670293808E0,-1.052841991E-1,-8.823533356E-2,9.671269439E0
3.728907810E-1,9.691828728E0,-1.028913707E-1,-7.148557901E-2,9.692638491E0
3.753143750E-1,9.694221497E0,-9.810572863E-2,-9.302098304E-2,9.695164159E0
3.777382290E-1,9.663115501E0,-1.268195957E-1,-9.780662507E-2,9.664442588E0
3.801616150E-1,9.665508270E0,-1.220339537E-1,-8.105687052E-2,9.666618469E0
3.825846880E-1,9.689435959E0,-1.244267747E-1,-9.541380405E-2,9.690704568E0
3.850082810E-1,9.672686577E0,-1.196411327E-1,-1.049850956E-1,9.673996149E0
3.874322920E-1,9.684650421E0,-1.148554832E-1,-9.062815458E-2,9.685755470E0
3.898559380E-1,9.706186295E0,-1.172483116E-1,-9.780662507E-2,9.707387171E0
3.922793750E-1,9.684650421E0,-1.052841991E-1,-9.780662507E-2,9.685716529E0
3.947032290E-1,9.696614265E0,-9.571290761E-2,-9.780662507E-2,9.697579869E0
3.971269270E-1,9.701400757E0,-9.571290761E-2,-8.584251255E-2,9.702252653E0
3.995502090E-1,9.691828728E0,-1.148554832E-1,-9.780662507E-2,9.693002734E0
4.019733340E-1,9.706186295E0,-1.004985496E-1,-1.241276711E-1,9.707500194E0
4.043967710E-1,9.710971832E0,-1.052841991E-1,-1.025922745E-1,9.712084424E0
4.068203650E-1,9.687043190E0,-1.076770201E-1,-1.049850956E-1,9.688210463E0
4.092432810E-1,9.679864883E0,-1.244267747E-1,-1.049850956E-1,9.681233808E0
4.116663540E-1,9.667901039E0,-1.148554832E-1,-1.049850956E-1,9.669153228E0
4.140902090E-1,9.691828728E0,-1.100698411E-1,-1.001994461E-1,9.692971649E0
4.165133340E-1,9.665508270E0,-1.052841991E-1,-9.302098304E-2,9.666529252E0
4.189367710E-1,9.687043190E0,-1.100698411E-1,-1.049850956E-1,9.688237353E0
4.213605210E-1,9.682257652E0,-1.268195957E-1,-9.302098304E-2,9.683534962E0
4.237841150E-1,9.694221497E0,-1.004985496E-1,-1.001994461E-1,9.695260198E0
4.262080210E-1,9.670293808E0,-1.124626622E-1,-1.145563871E-1,9.671626200E0
4.286320310E-1,9.684650421E0,-1.292124242E-1,-1.121635586E-1,9.686161794E0
4.310554170E-1,9.675079346E0,-9.810572863E-2,-9.780662507E-2,9.676071063E0
4.334792190E-1,9.660722733E0,-1.316052526E-1,-8.823533356E-2,9.662022000E0
4.359026560E-1,9.682257652E0,-1.148554832E-1,-9.780662507E-2,9.683432819E0
4.383263020E-1,9.672686577E0,-9.571290761E-2,-9.541380405E-2,9.673630671E0
4.407491670E-1,9.679864883E0,-1.076770201E-1,-9.302098304E-2,9.680910670E0
4.431727090E-1,9.663115501E0,-1.244267747E-1,-1.121635586E-1,9.664567444E0
4.455964060E-1,9.699007034E0,-1.028913707E-1,-9.302098304E-2,9.699998814E0
4.480203650E-1,9.689435959E0,-1.100698411E-1,-8.584251255E-2,9.690441347E0
4.504437500E-1,9.663115501E0,-1.076770201E-1,-1.025922745E-1,9.664259967E0
4.528677090E-1,9.675079346E0,-1.148554832E-1,-9.780662507E-2,9.676255384E0
4.552903650E-1,9.684650421E0,-1.052841991E-1,-8.105687052E-2,9.685561871E0
4.577140630E-1,9.670293808E0,-1.076770201E-1,-8.584251255E-2,9.671274250E0
4.601382810E-1,9.663115501E0,-9.810572863E-2,-8.823533356E-2,9.664016318E0
4.625619270E-1,9.677472115E0,-1.028913707E-1,-9.780662507E-2,9.678513279E0
4.649852090E-1,9.677472115E0,-1.004985496E-1,-9.541380405E-2,9.678464252E0
4.674086460E-1,9.682257652E0,-1.196411327E-1,-1.097707376E-1,9.683618996E0
4.698324480E-1,9.682257652E0,-9.092725813E-2,-1.169492081E-1,9.683390838E0
4.722560420E-1,9.679864883E0,-9.332008660E-2,-8.105687052E-2,9.680654059E0
4.746801560E-1,9.694221497E0,-1.196411327E-1,-1.097707376E-1,9.695581161E0
4.771039060E-1,9.706186295E0,-9.810572863E-2,-1.073779166E-1,9.707275989E0
4.795277610E-1,9.684650421E0,-1.196411327E-1,-8.584251255E-2,9.685769805E0
4.819511980E-1,9.687043190E0,-9.571290761E-2,-9.062815458E-2,9.687939935E0
4.843747400E-1,9.667901039E0,-9.810572863E-2,-1.049850956E-1,9.668968772E0
4.867972920E-1,9.699007034E0,-9.810572863E-2,-9.780662507E-2,9.699996305E0
4.892205210E-1,9.675079346E0,-1.124626622E-1,-7.627122104E-2,9.676033562E0
4.916442190E-1,9.691828728E0,-1.172483116E-1,-1.025922745E-1,9.693080853E0
4.940670840E-1,9.675079346E0,-1.100698411E-1,-7.387840003E-2,9.675987481E0
4.964909380E-1,9.651150703E0,-9.810572863E-2,-9.062815458E-2,9.652074808E0
4.989137500E-1,9.682257652E0,-1.196411327E-1,-7.866404206E-2,9.683316337E0
5.013366150E-1,9.689435959E0,-1.268195957E-1,-1.049850956E-1,9.690834550E0
5.037599480E-1,9.677472115E0,-1.124626622E-1,-9.302098304E-2,9.678572585E0
5.061832810E-1,9.687043190E0,-1.100698411E-1,-9.780662507E-2,9.688162224E0
5.086063540E-1,9.679864883E0,-8.853443712E-2,-8.823533356E-2,9.680671877E0
5.110298960E-1,9.691828728E0,-1.076770201E-1,-8.584251255E-2,9.692806991E0
5.134530730E-1,9.675079346E0,-1.052841991E-1,-1.073779166E-1,9.676247988E0
5.158764590E-1,9.670293808E0,-8.135596663E-2,-1.073779166E-1,9.671232142E0
5.183000520E-1,9.689435959E0,-1.028913707E-1,-1.025922745E-1,9.690525322E0
5.207234380E-1,9.699007034E0,-1.100698411E-1,-1.025922745E-1,9.700174122E0
5.231468230E-1,9.682257652E0,-1.124626622E-1,-1.049850956E-1,9.683479900E0
5.255702090E-1,9.684650421E0,-1.100698411E-1,-9.302098304E-2,9.685722588E0
5.279927090E-1,9.696614265E0,-1.028913707E-1,-1.001994461E-1,9.697677803E0
5.304163020E-1,9.689435959E0,-1.100698411E-1,-9.541380405E-2,9.690530861E0
5.328400000E-1,9.679864883E0,-9.332008660E-2,-1.049850956E-1,9.680883982E0
5.352629690E-1,9.694221497E0,-9.810572863E-2,-9.302098304E-2,9.695164159E0
5.376860420E-1,9.691828728E0,-8.374879509E-2,-8.584251255E-2,9.692570706E0
5.401095840E-1,9.665508270E0,-1.028913707E-1,-7.866404206E-2,9.666375990E0
5.425329690E-1,9.675079346E0,-1.100698411E-1,-9.062815458E-2,9.676129866E0
5.449564060E-1,9.699007034E0,-1.148554832E-1,-1.025922745E-1,9.700229606E0
5.473802090E-1,9.682257652E0,-1.124626622E-1,-9.780662507E-2,9.683404733E0
5.498036980E-1,9.684650421E0,-1.148554832E-1,-1.073779166E-1,9.685926676E0
5.522267190E-1,9.663115501E0,-9.571290761E-2,-9.541380405E-2,9.664060531E0
5.546501040E-1,9.670293808E0,-1.052841991E-1,-8.823533356E-2,9.671269439E0
5.570734900E-1,9.663115501E0,-9.092725813E-2,-9.780662507E-2,9.664038240E0
5.594972400E-1,9.672686577E0,-9.332008660E-2,-8.105687052E-2,9.673476338E0
5.619211460E-1,9.677472115E0,-1.100698411E-1,-1.001994461E-1,9.678616731E0
5.643450520E-1,9.691828728E0,-1.076770201E-1,-8.584251255E-2,9.692806991E0
5.667681250E-1,9.675079346E0,-1.052841991E-1,-9.302098304E-2,9.676099318E0
5.691918750E-1,9.670293808E0,-8.853443712E-2,-9.780662507E-2,9.671193660E0
5.716153130E-1,9.670293808E0,-9.092725813E-2,-9.780662507E-2,9.671215861E0
5.740389590E-1,9.677472115E0,-8.853443712E-2,-9.780662507E-2,9.678371299E0
5.764627090E-1,9.689435959E0,-1.028913707E-1,-1.025922745E-1,9.690525322E0
5.788865630E-1,9.672686577E0,-1.100698411E-1,-1.049850956E-1,9.673882512E0
5.813098440E-1,9.682257652E0,-8.614161611E-2,-1.001994461E-1,9.683159275E0
5.837329690E-1,9.689435959E0,-1.172483116E-1,-9.780662507E-2,9.690638911E0
5.861557810E-1,9.691828728E0,-1.220339537E-1,-9.062815458E-2,9.693020677E0
5.885789590E-1,9.687043190E0,-9.092725813E-2,-8.584251255E-2,9.687850250E0
5.910025000E-1,9.684650421E0,-1.196411327E-1,-9.541380405E-2,9.685859362E0
5.934259900E-1,9.682257652E0,-1.076770201E-1,-9.780662507E-2,9.683350336E0
5.958489060E-1,9.653543472E0,-1.220339537E-1,-1.025922745E-1,9.654859866E0
5.982715110E-1,9.687043190E0,-1.004985496E-1,-9.780662507E-2,9.688058209E0
6.006948440E-1,9.682257652E0,-1.004985496E-1,-7.627122104E-2,9.683079598E0
6.031179170E-1,9.684650421E0,-9.810572863E-2,-1.025922745E-1,9.685690667E0
6.055413540E-1,9.658329964E0,-9.332008660E-2,-8.584251255E-2,9.659162244E0
6.079644270E-1,9.646365166E0,-1.004985496E-1,-8.823533356E-2,9.647292177E0
6.103873440E-1,9.677472115E0,-1.196411327E-1,-8.823533356E-2,9.678613847E0
6.128105730E-1,9.682257652E0,-1.172483116E-1,-9.541380405E-2,9.683437623E0
6.152332290E-1,9.684650421E0,-9.332008660E-2,-1.049850956E-1,9.685669016E0
6.176566670E-1,9.689435959E0,-1.004985496E-1,-1.001994461E-1,9.690475174E0
6.200802090E-1,9.663115501E0,-1.076770201E-1,-9.780662507E-2,9.664210349E0
6.225036980E-1,9.675079346E0,-1.100698411E-1,-9.302098304E-2,9.676152573E0
6.249266150E-1,9.699007034E0,-1.220339537E-1,-1.169492081E-1,9.700479723E0
6.273500000E-1,9.672686577E0,-8.853443712E-2,-1.025922745E-1,9.673635776E0
6.297738020E-1,9.663115501E0,-1.148554832E-1,-8.344969153E-2,9.664158361E0
6.321969270E-1,9.665508270E0,-1.124626622E-1,-9.062815458E-2,9.666587373E0
6.346204690E-1,9.682257652E0,-1.100698411E-1,-9.780662507E-2,9.683377239E0
6.370436460E-1,9.687043190E0,-9.571290761E-2,-8.105687052E-2,9.687855126E0
6.394667710E-1,9.710971832E0,-1.172483116E-1,-8.823533356E-2,9.712080445E0
6.418907290E-1,9.679864883E0,-1.004985496E-1,-1.025922745E-1,9.680930187E0
6.443145840E-1,9.672686577E0,-1.004985496E-1,-8.105687052E-2,9.673548252E0
6.467378650E-1,9.682257652E0,-1.052841991E-1,-8.823533356E-2,9.683232078E0
6.491613540E-1,9.679864883E0,-1.004985496E-1,-1.193420291E-1,9.681122179E0
6.515850000E-1,9.687043190E0,-1.076770201E-1,-1.121635586E-1,9.688290911E0
6.540081770E-1,9.694221497E0,-9.571290761E-2,-6.909275055E-2,9.694940185E0
6.564315110E-1,9.679864883E0,-1.124626622E-1,-8.344969153E-2,9.680877846E0
6.588549480E-1,9.689435959E0,-8.853443712E-2,-1.049850956E-1,9.690409146E0
6.612785420E-1,9.663115501E0,-1.028913707E-1,-1.049850956E-1,9.664233529E0
6.637020310E-1,9.672686577E0,-7.896314561E-2,-9.780662507E-2,9.673503343E0
6.661257290E-1,9.684650421E0,-1.076770201E-1,-1.025922745E-1,9.685792342E0
6.685492710E-1,9.713364601E0,-1.172483116E-1,-1.025922745E-1,9.714613951E0
6.709717190E-1,9.687043190E0,-1.052841991E-1,-1.001994461E-1,9.688133487E0
6.733944270E-1,9.677472115E0,-1.172483116E-1,-9.062815458E-2,9.678606674E0
6.758177090E-1,9.670293808E0,-1.124626622E-1,-8.344969153E-2,9.671307773E0
6.782416670E-1,9.679864883E0,-9.571290761E-2,-1.049850956E-1,9.680907343E0
6.806647400E-1,9.682257652E0,-1.052841991E-1,-1.073779166E-1,9.683425428E0
6.830882810E-1,9.672686577E0,-1.268195957E-1,-9.302098304E-2,9.673965150E0
6.855114590E-1,9.675079346E0,-1.316052526E-1,-9.780662507E-2,9.676468696E0
6.879347400E-1,9.689435959E0,-9.332008660E-2,-9.302098304E-2,9.690331818E0
6.903577090E-1,9.703793526E0,-1.172483116E-1,-9.780662507E-2,9.704994698E0
6.927811980E-1,9.665508270E0,-1.292124242E-1,-9.541380405E-2,9.666842802E0
6.952045840E-1,9.655936241E0,-9.810572863E-2,-9.780662507E-2,9.656929924E0
6.976278130E-1,9.677472115E0,-1.244267747E-1,-9.302098304E-2,9.678718999E0
7.000511460E-1,9.682257652E0,-1.004985496E-1,-7.627122104E-2,9.683079598E0
7.024748440E-1,9.677472115E0,-9.571290761E-2,-1.049850956E-1,9.678514832E0
7.048979690E-1,9.665508270E0,-1.196411327E-1,-8.344969153E-2,9.666608918E0
7.073216670E-1,9.689435959E0,-1.268195957E-1,-8.823533356E-2,9.690667567E0
7.097451560E-1,9.675079346E0,-1.268195957E-1,-1.169492081E-1,9.676617212E0
7.121681250E-1,9.658329964E0,-1.148554832E-1,-9.062815458E-2,9.659438024E0
7.145909380E-1,9.670293808E0,-1.411765367E-1,-9.541380405E-2,9.671794918E0
7.170140110E-1,9.687043190E0,-1.148554832E-1,-1.073779166E-1,9.688319130E0
7.194370310E-1,9.660722733E0,-1.028913707E-1,-1.073779166E-1,9.661867333E0
7.218600000E-1,9.696614265E0,-9.810572863E-2,-1.121635586E-1,9.697759206E0
7.242830210E-1,9.706186295E0,-8.853443712E-2,-1.049850956E-1,9.707157802E0
7.267058860E-1,9.684650421E0,-1.172483116E-1,-1.073779166E-1,9.685955346E0
7.291289590E-1,9.663115501E0,-1.148554832E-1,-8.823533356E-2,9.664200870E0
7.315531250E-1,9.670293808E0,-1.172483116E-1,-9.541380405E-2,9.671475239E0
7.339766670E-1,9.691828728E0,-9.571290761E-2,-9.780662507E-2,9.692794808E0
7.364000520E-1,9.687043190E0,-9.810572863E-2,-8.584251255E-2,9.687920284E0
7.388234900E-1,9.675079346E0,-1.076770201E-1,-8.823533356E-2,9.676080826E0
7.412475000E-1,9.684650421E0,-1.052841991E-1,-8.344969153E-2,9.685582192E0
7.436708340E-1,9.691828728E0,-1.100698411E-1,-1.121635586E-1,9.693102709E0
7.460935940E-1,9.665508270E0,-1.100698411E-1,-8.344969153E-2,9.666495194E0
7.485168230E-1,9.648757935E0,-9.332008660E-2,-1.049850956E-1,9.649780318E0
7.509399480E-1,9.675079346E0,-1.076770201E-1,-7.866404206E-2,9.675998280E0
7.533632290E-1,9.689435959E0,-1.052841991E-1,-8.823533356E-2,9.690409663E0
7.557860940E-1,9.677472115E0,-1.100698411E-1,-8.344969153E-2,9.678457819E0
7.582093230E-1,9.682257652E0,-9.092725813E-2,-1.025922745E-1,9.683228087E0
7.606330210E-1,9.660722733E0,-1.196411327E-1,-8.584251255E-2,9.661844889E0
7.630564060E-1,9.663115501E0,-9.571290761E-2,-9.302098304E-2,9.664037203E0
7.654797400E-1,9.682257652E0,-8.614161611E-2,-8.584251255E-2,9.683021355E0
7.679027090E-1,9.679864883E0,-8.135596663E-2,-1.169492081E-1,9.680913184E0
7.703260420E-1,9.691828728E0,-9.810572863E-2,-9.302098304E-2,9.692771622E0
7.727491150E-1,9.677472115E0,-1.124626622E-1,-1.001994461E-1,9.678644239E0
7.751721360E-1,9.675079346E0,-9.092725813E-2,-1.001994461E-1,9.676025426E0
7.775960940E-1,9.672686577E0,-9.332008660E-2,-8.105687052E-2,9.673476338E0
7.800201560E-1,9.696614265E0,-1.124626622E-1,-1.049850956E-1,9.697834703E0
7.824435940E-1,9.687043190E0,-9.571290761E-2,-1.097707376E-1,9.688137919E0
7.848671360E-1,9.684650421E0,-1.172483116E-1,-9.780662507E-2,9.685853968E0
7.872904170E-1,9.694221497E0,-1.244267747E-1,-9.780662507E-2,9.695513322E0
7.897131770E-1,9.713364601E0,-1.220339537E-1,-8.584251255E-2,9.714510440E0
7.921363540E-1,9.699007034E0,-1.076770201E-1,-1.049850956E-1,9.700172868E0
7.945585940E-1,9.684650421E0,-1.196411327E-1,-1.169492081E-1,9.686095441E0
7.969813020E-1,9.672686577E0,-1.076770201E-1,-9.541380405E-2,9.673756445E0
7.994045840E-1,9.658329964E0,-1.124626622E-1,-1.121635586E-1,9.659635925E0
8.018278130E-1,9.675079346E0,-1.172483116E-1,-9.302098304E-2,9.676236893E0
8.042507290E-1,9.655936241E0,-1.100698411E-1,-9.780662507E-2,9.657058879E0
8.066740630E-1,9.660722733E0,-1.004985496E-1,-8.105687052E-2,9.661585475E0
8.090968750E-1,9.682257652E0,-9.332008660E-2,-9.302098304E-2,9.683154176E0
8.115194790E-1,9.684650421E0,-1.076770201E-1,-1.145563871E-1,9.685926455E0
8.139423440E-1,9.663115501E0,-1.052841991E-1,-1.001994461E-1,9.664208498E0
8.163664060E-1,9.675079346E0,-1.172483116E-1,-7.627122104E-2,9.676090368E0
8.187898960E-1,9.675079346E0,-1.196411327E-1,-1.001994461E-1,9.676337855E0
8.212135940E-1,9.677472115E0,-1.052841991E-1,-1.097707376E-1,9.678667310E0
8.236373440E-1,9.691828728E0,-1.076770201E-1,-1.001994461E-1,9.692944772E0
8.260605210E-1,9.689435959E0,-1.148554832E-1,-9.541380405E-2,9.690586400E0
8.284839590E-1,9.672686577E0,-1.004985496E-1,-9.062815458E-2,9.673633187E0
8.309075000E-1,9.682257652E0,-1.196411327E-1,-1.049850956E-1,9.683565930E0
8.333297920E-1,9.679864883E0,-1.100698411E-1,-1.097707376E-1,9.681113012E0
8.357525520E-1,9.667901039E0,-1.052841991E-1,-1.001994461E-1,9.668993494E0
8.381753650E-1,9.672686577E0,-1.148554832E-1,-1.001994461E-1,9.673887395E0
8.405988020E-1,9.684650421E0,-9.092725813E-2,-1.001994461E-1,9.685595566E0
8.430221360E-1,9.667901039E0,-1.076770201E-1,-8.344969153E-2,9.668860775E0
8.454458340E-1,9.682257652E0,-1.028913707E-1,-1.025922745E-1,9.683347823E0
8.478684900E-1,9.701400757E0,-1.076770201E-1,-9.302098304E-2,9.702444222E0
8.502920310E-1,9.694221497E0,-1.004985496E-1,-1.025922745E-1,9.695285223E0
8.527161460E-1,9.665508270E0,-1.004985496E-1,-9.541380405E-2,9.666501636E0
8.551398960E-1,9.696614265E0,-8.853443712E-2,-1.001994461E-1,9.697536104E0
8.575630730E-1,9.677472115E0,-1.004985496E-1,-8.344969153E-2,9.678353700E0
8.599862500E-1,9.658329964E0,-1.244267747E-1,-1.049850956E-1,9.659701941E0
8.624095310E-1,9.655936241E0,-1.004985496E-1,-1.073779166E-1,9.657056211E0
8.648330730E-1,9.701400757E0,-8.614161611E-2,-1.025922745E-1,9.702325608E0
8.672568230E-1,9.660722733E0,-1.028913707E-1,-8.584251255E-2,9.661651996E0
8.696797920E-1,9.667901039E0,-1.004985496E-1,-9.541380405E-2,9.668894159E0
8.721028130E-1,9.653543472E0,-1.124626622E-1,-1.001994461E-1,9.654718502E0
8.745258340E-1,9.684650421E0,-9.332008660E-2,-8.823533356E-2,9.685501943E0
8.769490110E-1,9.682257652E0,-1.124626622E-1,-9.541380405E-2,9.683380861E0
8.793719790E-1,9.682257652E0,-1.244267747E-1,-7.866404206E-2,9.683376648E0
8.817949480E-1,9.665508270E0,-1.052841991E-1,-1.049850956E-1,9.666651786E0
8.842182290E-1,9.670293808E0,-8.853443712E-2,-9.780662507E-2,9.671193660E0
8.866418230E-1,9.670293808E0,-1.100698411E-1,-9.062815458E-2,9.671344848E0
8.890648960E-1,9.648757935E0,-9.332008660E-2,-1.001994461E-1,9.649729439E0
8.914888020E-1,9.667901039E0,-1.076770201E-1,-9.541380405E-2,9.668971436E0
8.939119270E-1,9.682257652E0,-1.100698411E-1,-9.541380405E-2,9.683353366E0
8.963354170E-1,9.665508270E0,-1.124626622E-1,-9.302098304E-2,9.666610103E0
8.987584380E-1,9.675079346E0,-9.092725813E-2,-9.541380405E-2,9.675977052E0
9.011813540E-1,9.651150703E0,-1.148554832E-1,-9.780662507E-2,9.652329658E0
9.036048440E-1,9.682257652E0,-1.100698411E-1,-1.001994461E-1,9.683401703E0
9.060281770E-1,9.670293808E0,-1.268195957E-1,-8.823533356E-2,9.671527853E0
9.084513540E-1,9.670293808E0,-1.196411327E-1,-8.823533356E-2,9.671436388E0
9.108744790E-1,9.672686577E0,-1.028913707E-1,-9.541380405E-2,9.673704360E0
9.132975520E-1,9.679864883E0,-1.076770201E-1,-1.025922745E-1,9.681007369E0
9.157211980E-1,9.684650421E0,-1.100698411E-1,-9.541380405E-2,9.685745864E0
9.181443750E-1,9.675079346E0,-1.076770201E-1,-9.062815458E-2,9.676102942E0
9.205676560E-1,9.689435959E0,-1.100698411E-1,-9.541380405E-2,9.690530861E0
9.229903130E-1,9.696614265E0,-1.220339537E-1,-9.062815458E-2,9.697805626E0
9.254139060E-1,9.682257652E0,-1.172483116E-1,-8.823533356E-2,9.683369552E0
9.278371880E-1,9.670293808E0,-1.028913707E-1,-7.387840003E-2,9.671123357E0
9.302604170E-1,9.667901039E0,-1.268195957E-1,-9.302098304E-2,9.669180245E0
9.326834900E-1,9.660722733E0,-1.339980662E-1,-1.073779166E-1,9.662248662E0
9.351064590E-1,9.677472115E0,-1.028913707E-1,-9.780662507E-2,9.678513279E0
9.375296360E-1,9.658329964E0,-1.220339537E-1,-9.302098304E-2,9.659548793E0
9.399528130E-1,9.687043190E0,-1.196411327E-1,-1.001994461E-1,9.688300145E0
9.423761980E-1,9.660722733E0,-1.196411327E-1,-8.823533356E-2,9.661866444E0
9.447993230E-1,9.689435959E0,-1.363908947E-1,-1.097707376E-1,9.691017557E0
9.472227090E-1,9.684650421E0,-1.052841991E-1,-8.823533356E-2,9.685624606E0
9.496453130E-1,9.665508270E0,-1.220339537E-1,-9.541380405E-2,9.666749516E0
9.520690110E-1,9.675079346E0,-1.363908947E-1,-8.105687052E-2,9.676380162E0
9.544927090E-1,9.672686577E0,-1.076770201E-1,-1.121635586E-1,9.673936149E0
9.569158340E-1,9.663115501E0,-9.332008660E-2,-8.823533356E-2,9.663968921E0
9.593389590E-1,9.670293808E0,-1.028913707E-1,-1.025922745E-1,9.671385327E0
9.617619790E-1,9.689435959E0,-1.028913707E-1,-8.823533356E-2,9.690383961E0
9.641853650E-1,9.684650421E0,-1.076770201E-1,-6.430710852E-2,9.685462484E0
9.666093230E-1,9.667901039E0,-1.244267747E-1,-9.062815458E-2,9.669126433E0
9.690325000E-1,9.687043190E0,-9.810572863E-2,-9.780662507E-2,9.688033683E0
9.714551040E-1,9.682257652E0,-8.853443712E-2,-1.025922745E-1,9.683205914E0
9.738778130E-1,9.675079346E0,-1.172483116E-1,-8.584251255E-2,9.676170547E0
9.763012500E-1,9.675079346E0,-1.148554832E-1,-9.541380405E-2,9.676231494E0
9.787246360E-1,9.675079346E0,-1.004985496E-1,-9.780662507E-2,9.676095620E0
9.811485940E-1,9.670293808E0,-1.004985496E-1,-1.025922745E-1,9.671360166E0
9.835724480E-1,9.677472115E0,-1.244267747E-1,-1.001994461E-1,9.678790652E0
9.859964060E-1,9.667901039E0,-1.220339537E-1,-9.062815458E-2,9.669095938E0
9.884203650E-1,9.672686577E0,-1.196411327E-1,-9.780662507E-2,9.673920909E0
9.908438540E-1,9.663115501E0,-1.124626622E-1,-1.001994461E-1,9.664289367E0
9.932673960E-1,9.672686577E0,-9.810572863E-2,-1.049850956E-1,9.673753781E0
9.956906770E-1,9.653543472E0,-1.124626622E-1,-9.062815458E-2,9.654623912E0
9.981138020E-1,9.653543472E0,-1.124626622E-1,-9.541380405E-2,9.654670021E0
1.000536511E0,9.651150703E0,-1.028913707E-1,-7.387840003E-2,9.651981898E0
1.002960000E0,9.689435959E0,-1.004985496E-1,-9.062815458E-2,9.690380933E0
1.005383490E0,9.684650421E0,-1.172483116E-1,-1.145563871E-1,9.686037586E0
1.007807396E0,9.663115501E0,-1.220339537E-1,-1.121635586E-1,9.664536934E0
1.010230781E0,9.670293808E0,-1.148554832E-1,-9.302098304E-2,9.671423216E0
1.012654584E0,9.677472115E0,-9.810572863E-2,-8.584251255E-2,9.678350076E0
1.015078646E0,9.667901039E0,-9.810572863E-2,-1.001994461E-1,9.668917994E0
1.017502865E0,9.677472115E0,-1.172483116E-1,-1.097707376E-1,9.678804849E0
1.019926459E0,9.679864883E0,-1.124626622E-1,-9.062815458E-2,9.680942386E0
1.022349740E0,9.677472115E0,-1.196411327E-1,-9.062815458E-2,9.678635957E0
1.024773490E0,9.675079346E0,-1.028913707E-1,-8.823533356E-2,9.676028754E0
1.027196719E0,9.658329964E0,-1.196411327E-1,-9.302098304E-2,9.659518859E0
1.029619844E0,9.672686577E0,-1.124626622E-1,-9.062815458E-2,9.673764879E0
1.032043906E0,9.672686577E0,-8.614161611E-2,-8.584251255E-2,9.673451035E0
1.034467188E0,9.670293808E0,-1.076770201E-1,-9.780662507E-2,9.671387843E0
1.036891354E0,9.655936241E0,-1.076770201E-1,-9.780662507E-2,9.657031903E0
1.039315104E0,9.655936241E0,-1.196411327E-1,-9.541380405E-2,9.657148776E0
1.041738802E0,9.665508270E0,-1.196411327E-1,-1.097707376E-1,9.666871973E0
1.044162813E0,9.672686577E0,-1.196411327E-1,-8.823533356E-2,9.673828874E0
1.046586823E0,9.679864883E0,-8.853443712E-2,-1.073779166E-1,9.680865278E0
1.049010781E0,9.653543472E0,-1.076770201E-1,-1.001994461E-1,9.654663942E0
1.051434011E0,9.672686577E0,-1.196411327E-1,-1.025922745E-1,9.673970477E0
1.053856927E0,9.696614265E0,-1.124626622E-1,-1.001994461E-1,9.697784076E0
1.056280469E0,9.665508270E0,-1.100698411E-1,-9.780662507E-2,9.666629797E0
1.058704115E0,9.665508270E0,-1.220339537E-1,-1.001994461E-1,9.666797936E0
1.061127500E0,9.682257652E0,-1.124626622E-1,-9.541380405E-2,9.683380861E0
1.063550886E0,9.672686577E0,-9.332008660E-2,-1.001994461E-1,9.673655678E0
1.065974479E0,9.675079346E0,-9.810572863E-2,-9.541380405E-2,9.676047172E0
1.068397656E0,9.687043190E0,-1.124626622E-1,-8.584251255E-2,9.688076308E0
1.070821250E0,9.672686577E0,-1.100698411E-1,-1.001994461E-1,9.673831760E0
1.073245313E0,9.679864883E0,-9.810572863E-2,-1.097707376E-1,9.680984377E0
1.075668906E0,9.655936241E0,-9.571290761E-2,-8.823533356E-2,9.656813715E0
1.078092240E0,9.684650421E0,-1.100698411E-1,-9.062815458E-2,9.685699903E0
1.080515781E0,9.699007034E0,-1.076770201E-1,-9.302098304E-2,9.700050757E0
1.082939375E0,9.665508270E0,-1.004985496E-1,-9.780662507E-2,9.666525550E0
1.085363698E0,9.682257652E0,-9.810572863E-2,-6.430710852E-2,9.682968211E0
1.087787031E0,9.689435959E0,-1.004985496E-1,-7.866404206E-2,9.690276425E0
1.090210261E0,9.665508270E0,-9.332008660E-2,-7.866404206E-2,9.666278849E0
1.092633021E0,9.667901039E0,-1.148554832E-1,-1.025922745E-1,9.669127544E0
1.095055990E0,9.677472115E0,-1.148554832E-1,-9.780662507E-2,9.678647862E0
1.097479531E0,9.687043190E0,-9.571290761E-2,-1.049850956E-1,9.688084878E0
1.099903334E0,9.684650421E0,-1.124626622E-1,-8.344969153E-2,9.685662883E0
1.102326667E0,9.663115501E0,-9.810572863E-2,-9.780662507E-2,9.664108446E0
1.104750052E0,9.679864883E0,-1.172483116E-1,-8.584251255E-2,9.680955545E0
1.107173438E0,9.675079346E0,-1.220339537E-1,-1.097707376E-1,9.676471580E0
1.109596615E0,9.682257652E0,-1.148554832E-1,-1.001994461E-1,9.683457283E0
1.112019740E0,9.648757935E0,-1.052841991E-1,-9.062815458E-2,9.649757919E0
1.114443334E0,9.687043190E0,-9.332008660E-2,-9.302098304E-2,9.687939270E0
1.116866979E0,9.672686577E0,-9.332008660E-2,-9.541380405E-2,9.673607292E0
1.119290886E0,9.687043190E0,-1.244267747E-1,-9.541380405E-2,9.688312112E0
1.121714323E0,9.663115501E0,-1.004985496E-1,-9.780662507E-2,9.664133033E0
1.124137813E0,9.684650421E0,-1.076770201E-1,-1.049850956E-1,9.685817983E0
1.126561927E0,9.701400757E0,-9.810572863E-2,-1.049850956E-1,9.702464803E0
1.128985261E0,9.703793526E0,-7.896314561E-2,-8.823533356E-2,9.704515930E0
1.131409167E0,9.679864883E0,-7.417750359E-2,-8.823533356E-2,9.680551221E0
1.133832709E0,9.687043190E0,-1.172483116E-1,-8.344969153E-2,9.688112137E0
1.136255625E0,9.694221497E0,-1.076770201E-1,-9.302098304E-2,9.695265735E0
1.138678959E0,9.658329964E0,-9.092725813E-2,-8.584251255E-2,9.659139423E0
1.141101979E0,9.663115501E0,-1.268195957E-1,-9.062815458E-2,9.664372606E0
1.143524792E0,9.655936241E0,-1.124626622E-1,-9.302098304E-2,9.657039166E0
1.145947813E0,9.670293808E0,-1.268195957E-1,-1.001994461E-1,9.671644404E0
1.148371198E0,9.696614265E0,-1.052841991E-1,-8.344969153E-2,9.697544887E0
1.150794323E0,9.675079346E0,-1.148554832E-1,-7.148557901E-2,9.676025130E0
1.153216979E0,9.653543472E0,-1.172483116E-1,-8.823533356E-2,9.654658679E0
1.155639896E0,9.667901039E0,-9.571290761E-2,-8.344969153E-2,9.668734939E0
1.158063125E0,9.663115501E0,-1.052841991E-1,-8.344969153E-2,9.664049348E0
1.160486719E0,9.682257652E0,-1.076770201E-1,-9.302098304E-2,9.683303181E0
1.162910521E0,9.689435959E0,-9.571290761E-2,-1.001994461E-1,9.690426724E0
1.165334584E0,9.670293808E0,-8.374879509E-2,-8.584251255E-2,9.671037438E0
1.167758334E0,9.701400757E0,-8.374879509E-2,-9.062815458E-2,9.702185525E0
1.170181875E0,9.689435959E0,-9.810572863E-2,-7.627122104E-2,9.690232775E0
1.172606094E0,9.682257652E0,-9.810572863E-2,-9.062815458E-2,9.683178788E0
1.175030156E0,9.677472115E0,-1.124626622E-1,-9.780662507E-2,9.678619763E0
1.177454427E0,9.677472115E0,-1.196411327E-1,-8.105687052E-2,9.678551066E0
1.179878073E0,9.694221497E0,-1.004985496E-1,-9.541380405E-2,9.695211920E0
1.182301719E0,9.689435959E0,-1.124626622E-1,-9.541380405E-2,9.690558335E0
1.184724792E0,9.658329964E0,-9.571290761E-2,-1.073779166E-1,9.659401051E0
1.187147656E0,9.672686577E0,-1.076770201E-1,-9.780662507E-2,9.673780341E0
1.189571198E0,9.670293808E0,-9.092725813E-2,-1.121635586E-1,9.671371711E0
1.191995104E0,9.675079346E0,-1.028913707E-1,-1.001994461E-1,9.676145251E0
1.194418334E0,9.670293808E0,-9.332008660E-2,-8.344969153E-2,9.671104116E0
1.196842031E0,9.665508270E0,-1.100698411E-1,-9.541380405E-2,9.666605882E0
1.199265834E0,9.684650421E0,-1.028913707E-1,-7.627122104E-2,9.685497288E0
1.201689115E0,9.694221497E0,-8.614161611E-2,-9.780662507E-2,9.695097572E0
1.204111927E0,9.682257652E0,-1.100698411E-1,-1.001994461E-1,9.683401703E0
1.206534531E0,9.679864883E0,-1.100698411E-1,-1.049850956E-1,9.681059932E0
1.208957917E0,9.689435959E0,-1.172483116E-1,-1.001994461E-1,9.690663357E0
1.211381406E0,9.665508270E0,-1.004985496E-1,-9.541380405E-2,9.666501636E0
1.213804948E0,9.682257652E0,-1.124626622E-1,-1.025922745E-1,9.683454253E0
1.216227969E0,9.672686577E0,-9.332008660E-2,-1.001994461E-1,9.673655678E0
1.218651250E0,9.653543472E0,-1.124626622E-1,-1.049850956E-1,9.654769355E0
1.221074323E0,9.651150703E0,-1.124626622E-1,-9.541380405E-2,9.652277531E0
1.223497292E0,9.677472115E0,-1.172483116E-1,-8.105687052E-2,9.678521783E0
1.225920156E0,9.670293808E0,-9.571290761E-2,-1.025922745E-1,9.671311621E0
1.228343386E0,9.677472115E0,-1.220339537E-1,-1.049850956E-1,9.678810913E0
1.230767084E0,9.670293808E0,-1.028913707E-1,-9.541380405E-2,9.671311843E0
1.233190313E0,9.646365166E0,-9.332008660E-2,-1.049850956E-1,9.647387803E0
1.235613646E0,9.641579628E0,-1.124626622E-1,-8.584251255E-2,9.642617617E0
1.238037448E0,9.675079346E0,-1.052841991E-1,-1.025922745E-1,9.676196065E0
1.240460886E0,9.694221497E0,-1.100698411E-1,-9.541380405E-2,9.695315858E0
1.242884427E0,9.691828728E0,-1.004985496E-1,-8.584251255E-2,9.692729904E0
1.245307500E0,9.675079346E0,-1.100698411E-1,-9.541380405E-2,9.676175872E0
1.247731302E0,9.679864883E0,-1.196411327E-1,-9.302098304E-2,9.681051134E0
1.250155000E0,9.655936241E0,-8.614161611E-2,-1.001994461E-1,9.656840322E0
1.252579167E0,9.655936241E0,-9.332008660E-2,-1.001994461E-1,9.656907024E0
1.255003281E0,9.675079346E0,-1.004985496E-1,-9.062815458E-2,9.676025722E0
1.257427604E0,9.684650421E0,-1.196411327E-1,-1.001994461E-1,9.685907686E0
1.259850834E0,9.665508270E0,-1.244267747E-1,-1.001994461E-1,9.666828439E0
1.262273802E0,9.687043190E0,-1.052841991E-1,-9.780662507E-2,9.688109034E0
1.264697500E0,9.675079346E0,-1.220339537E-1,-9.780662507E-2,9.676343254E0
1.267120834E0,9.696614265E0,-1.172483116E-1,-9.541380405E-2,9.697792490E0
1.269544792E0,9.694221497E0,-1.292124242E-1,-9.780662507E-2,9.695575920E0
1.271968490E0,9.684650421E0,-1.148554832E-1,-1.073779166E-1,9.685926676E0
1.274392500E0,9.670293808E0,-1.124626622E-1,-1.097707376E-1,9.671570700E0
1.276816250E0,9.670293808E0,-1.028913707E-1,-1.049850956E-1,9.671411005E0
1.279240625E0,9.689435959E0,-1.148554832E-1,-8.823533356E-2,9.690518379E0
1.281664323E0,9.675079346E0,-1.172483116E-1,-8.823533356E-2,9.676192071E0
1.284087917E0,9.667901039E0,-1.172483116E-1,-8.823533356E-2,9.669014590E0
1.286511354E0,9.679864883E0,-1.076770201E-1,-7.866404206E-2,9.680783364E0
1.288934688E0,9.670293808E0,-1.076770201E-1,-8.823533356E-2,9.671295784E0
1.291357917E0,9.658329964E0,-9.332008660E-2,-1.001994461E-1,9.659300505E0
1.293782031E0,9.658329964E0,-1.028913707E-1,-8.823533356E-2,9.659281019E0
1.296206042E0,9.679864883E0,-1.124626622E-1,-7.148557901E-2,9.680782107E0
1.298629844E0,9.667901039E0,-1.244267747E-1,-8.344969153E-2,9.669061815E0
1.301053386E0,9.684650421E0,-1.244267747E-1,-9.780662507E-2,9.685943523E0
1.303476875E0,9.694221497E0,-1.100698411E-1,-1.001994461E-1,9.695364136E0
1.305900781E0,9.684650421E0,-8.853443712E-2,-9.780662507E-2,9.685548940E0
1.308324948E0,9.677472115E0,-9.810572863E-2,-8.584251255E-2,9.678350076E0
1.310748646E0,9.655936241E0,-1.100698411E-1,-8.105687052E-2,9.656903763E0
1.313173334E0,9.699007034E0,-1.148554832E-1,-7.387840003E-2,9.699968415E0
1.315597084E0,9.672686577E0,-1.148554832E-1,-1.049850956E-1,9.673938147E0
1.318021198E0,9.689435959E0,-1.076770201E-1,-8.823533356E-2,9.690435956E0
1.320444167E0,9.684650421E0,-1.124626622E-1,-1.001994461E-1,9.685821677E0
1.322866979E0,9.687043190E0,-9.810572863E-2,-9.780662507E-2,9.688033683E0
1.325290209E0,9.691828728E0,-9.092725813E-2,-8.584251255E-2,9.692635389E0
1.327713386E0,9.677472115E0,-1.100698411E-1,-7.148557901E-2,9.678362056E0
1.330137396E0,9.658329964E0,-1.220339537E-1,-1.217348501E-1,9.659867978E0
1.332560990E0,9.689435959E0,-1.076770201E-1,-9.780662507E-2,9.690527833E0
1.334984167E0,9.670293808E0,-1.172483116E-1,-8.823533356E-2,9.671407083E0
1.337407709E0,9.663115501E0,-9.810572863E-2,-1.025922745E-1,9.664158065E0
1.339831563E0,9.665508270E0,-1.124626622E-1,-9.541380405E-2,9.666633425E0
1.342255677E0,9.699007034E0,-1.363908947E-1,-7.627122104E-2,9.700265833E0
1.344678594E0,9.651150703E0,-1.172483116E-1,-8.584251255E-2,9.652244610E0
1.347102448E0,9.687043190E0,-1.076770201E-1,-9.302098304E-2,9.688088202E0
1.349526563E0,9.679864883E0,-1.124626622E-1,-1.025922745E-1,9.681061780E0
1.351950000E0,9.665508270E0,-1.124626622E-1,-1.001994461E-1,9.666681845E0
1.354373125E0,9.682257652E0,-9.332008660E-2,-1.025922745E-1,9.683250852E0
1.356796823E0,9.682257652E0,-1.028913707E-1,-1.025922745E-1,9.683347823E0
1.359220417E0,9.694221497E0,-1.028913707E-1,-1.145563871E-1,9.695444303E0
1.361644115E0,9.687043190E0,-1.028913707E-1,-8.105687052E-2,9.687928706E0
1.364067604E0,9.667901039E0,-9.092725813E-2,-9.062815458E-2,9.668753370E0
1.366490729E0,9.667901039E0,-1.076770201E-1,-9.780662507E-2,9.668995345E0
1.368913281E0,9.660722733E0,-1.004985496E-1,-7.627122104E-2,9.661546510E0
1.371336146E0,9.646365166E0,-1.076770201E-1,-9.302098304E-2,9.647414584E0
1.373759271E0,9.689435959E0,-1.124626622E-1,-8.823533356E-2,9.690490314E0
1.376182552E0,9.667901039E0,-1.004985496E-1,-7.387840003E-2,9.668705626E0
1.378606198E0,9.677472115E0,-9.571290761E-2,-1.025922745E-1,9.678489173E0
1.381029531E0,9.651150703E0,-9.810572863E-2,-9.780662507E-2,9.652144879E0
1.383452552E0,9.675079346E0,-1.076770201E-1,-7.866404206E-2,9.675998280E0
1.385875729E0,9.687043190E0,-1.172483116E-1,-8.344969153E-2,9.688112137E0
1.388299479E0,9.653543472E0,-1.076770201E-1,-9.302098304E-2,9.654592110E0
1.390723698E0,9.687043190E0,-1.124626622E-1,-9.541380405E-2,9.688165843E0
1.393148125E0,9.648757935E0,-9.332008660E-2,-1.193420291E-1,9.649947194E0
1.395572136E0,9.670293808E0,-1.100698411E-1,-8.823533356E-2,9.671322721E0
1.397995313E0,9.667901039E0,-1.052841991E-1,-9.780662507E-2,9.668968994E0
1.400419375E0,9.665508270E0,-9.571290761E-2,-9.541380405E-2,9.666453066E0
1.402843802E0,9.677472115E0,-1.052841991E-1,-1.025922745E-1,9.678588558E0
1.405267917E0,9.703793526E0,-9.810572863E-2,-1.193420291E-1,9.705023238E0
1.407690990E0,9.708579063E0,-1.172483116E-1,-8.823533356E-2,9.709687949E0
1.410114740E0,9.696614265E0,-1.292124242E-1,-8.823533356E-2,9.697876548E0
1.412538177E0,9.691828728E0,-1.028913707E-1,-1.145563871E-1,9.693051836E0
1.414961719E0,9.677472115E0,-1.124626622E-1,-1.145563871E-1,9.678803518E0
1.417385625E0,9.682257652E0,-1.028913707E-1,-8.105687052E-2,9.683143606E0
1.419809323E0,9.679864883E0,-1.339980662E-1,-8.344969153E-2,9.681151971E0
1.422232813E0,9.665508270E0,-1.316052526E-1,-9.541380405E-2,9.666875082E0
1.424656302E0,9.667901039E0,-1.244267747E-1,-9.302098304E-2,9.669149157E0
1.427079375E0,9.694221497E0,-1.459621787E-1,-8.344969153E-2,9.695679411E0
1.429503438E0,9.701400757E0,-1.172483116E-1,-8.823533356E-2,9.702510463E0
1.431927084E0,9.667901039E0,-1.244267747E-1,-7.627122104E-2,9.669002525E0
1.434350417E0,9.663115501E0,-1.076770201E-1,-1.073779166E-1,9.664311954E0
1.436774167E0,9.665508270E0,-1.100698411E-1,-1.025922745E-1,9.666679402E0
1.439197656E0,9.646365166E0,-1.004985496E-1,-1.025922745E-1,9.647434169E0
1.441620573E0,9.667901039E0,-1.172483116E-1,-1.121635586E-1,9.669262554E0
1.444044167E0,9.670293808E0,-9.810572863E-2,-1.049850956E-1,9.671361276E0
1.446468386E0,9.675079346E0,-9.571290761E-2,-1.049850956E-1,9.676122321E0
1.448892240E0,9.689435959E0,-1.220339537E-1,-9.062815458E-2,9.690628202E0
1.451315886E0,9.660722733E0,-1.124626622E-1,-1.001994461E-1,9.661896889E0
1.453739479E0,9.689435959E0,-9.092725813E-2,-1.073779166E-1,9.690457522E0
1.456162552E0,9.670293808E0,-9.810572863E-2,-7.387840003E-2,9.671073626E0
1.458585990E0,9.651150703E0,-1.100698411E-1,-9.302098304E-2,9.652226591E0
1.461009271E0,9.694221497E0,-8.853443712E-2,-8.584251255E-2,9.695005813E0
1.463432865E0,9.703793526E0,-1.004985496E-1,-9.541380405E-2,9.704782972E0
1.465856459E0,9.699007034E0,-1.028913707E-1,-9.541380405E-2,9.700022056E0
1.468279844E0,9.665508270E0,-9.810572863E-2,-7.866404206E-2,9.666326235E0
1.470703073E0,9.672686577E0,-1.220339537E-1,-1.049850956E-1,9.674026037E0
1.473126719E0,9.648757935E0,-9.810572863E-2,-1.025922745E-1,9.649802049E0
1.475550677E0,9.655936241E0,-1.220339537E-1,-1.073779166E-1,9.657304334E0
1.477974792E0,9.648757935E0,-1.268195957E-1,-8.344969153E-2,9.649952163E0
1.480398698E0,9.670293808E0,-1.196411327E-1,-9.302098304E-2,9.671481233E0
1.482822552E0,9.677472115E0,-1.339980662E-1,-1.145563871E-1,9.679077703E0
1.485246250E0,9.663115501E0,-1.172483116E-1,-9.302098304E-2,9.664274482E0
1.487669896E0,9.684650421E0,-1.148554832E-1,-1.073779166E-1,9.685926676E0
1.490093125E0,9.665508270E0,-1.172483116E-1,-7.866404206E-2,9.666539470E0
1.492516771E0,9.665508270E0,-1.268195957E-1,-9.062815458E-2,9.666765064E0
1.494940261E0,9.706186295E0,-1.244267747E-1,-1.025922745E-1,9.707525925E0
1.497363854E0,9.682257652E0,-1.076770201E-1,-1.193420291E-1,9.683591798E0
1.499787396E0,9.682257652E0,-1.172483116E-1,-1.001994461E-1,9.683485960E0
1.502210834E0,9.663115501E0,-1.148554832E-1,-8.584251255E-2,9.664179319E0
1.504634323E0,9.682257652E0,-1.076770201E-1,-1.001994461E-1,9.683374800E0
1.507057656E0,9.672686577E0,-1.172483116E-1,-1.025922745E-1,9.673941180E0
1.509481198E0,9.708579063E0,-1.076770201E-1,-1.025922745E-1,9.709718170E0
1.511904375E0,9.691828728E0,-1.172483116E-1,-8.584251255E-2,9.692918043E0
1.514327396E0,9.687043190E0,-9.332008660E-2,-1.073779166E-1,9.688087759E0
1.516751042E0,9.665508270E0,-1.004985496E-1,-1.001994461E-1,9.666550057E0
1.519173906E0,9.648757935E0,-9.810572863E-2,-1.073779166E-1,9.649854114E0
1.521596771E0,9.689435959E0,-9.571290761E-2,-1.097707376E-1,9.690530418E0
1.524019896E0,9.679864883E0,-1.076770201E-1,-9.541380405E-2,9.680933958E0
1.526443646E0,9.672686577E0,-1.268195957E-1,-1.025922745E-1,9.674061918E0
1.528866771E0,9.675079346E0,-1.196411327E-1,-9.541380405E-2,9.676289482E0
1.531290052E0,9.660722733E0,-1.100698411E-1,-7.148557901E-2,9.661614217E0
1.533712917E0,9.684650421E0,-8.853443712E-2,-1.097707376E-1,9.685677144E0
1.536135573E0,9.675079346E0,-1.004985496E-1,-1.121635586E-1,9.676251390E0
1.538559219E0,9.672686577E0,-1.076770201E-1,-8.105687052E-2,9.673625493E0
1.540982917E0,9.689435959E0,-1.124626622E-1,-9.062815458E-2,9.690512397E0
1.543406823E0,9.651150703E0,-1.292124242E-1,-1.169492081E-1,9.652724116E0
1.545830313E0,9.658329964E0,-1.100698411E-1,-1.121635586E-1,9.659608363E0
1.548253854E0,9.665508270E0,-1.172483116E-1,-9.062815458E-2,9.666644234E0
1.550677240E0,9.677472115E0,-9.571290761E-2,-8.344969153E-2,9.678305189E0
1.553100365E0,9.682257652E0,-9.571290761E-2,-9.780662507E-2,9.683224687E0
1.555523802E0,9.670293808E0,-1.004985496E-1,-1.001994461E-1,9.671335080E0
1.557947761E0,9.665508270E0,-1.004985496E-1,-9.780662507E-2,9.666525550E0
1.560370834E0,9.653543472E0,-9.810572863E-2,-7.866404206E-2,9.654362451E0
1.562795052E0,9.663115501E0,-1.172483116E-1,-9.780662507E-2,9.664321730E0
1.565219271E0,9.691828728E0,-9.810572863E-2,-9.541380405E-2,9.692794882E0
1.567642917E0,9.648757935E0,-1.148554832E-1,-9.302098304E-2,9.649889863E0
1.570067031E0,9.660722733E0,-1.172483116E-1,-8.823533356E-2,9.661837111E0
1.572491511E0,9.677472115E0,-1.220339537E-1,-8.105687052E-2,9.678580941E0
1.574915417E0,9.679864883E0,-1.148554832E-1,-9.302098304E-2,9.680993175E0
1.577338334E0,9.703793526E0,-1.004985496E-1,-9.780662507E-2,9.704806793E0
1.579762240E0,9.689435959E0,-9.810572863E-2,-1.097707376E-1,9.690554347E0
1.582185521E0,9.682257652E0,-1.148554832E-1,-1.073779166E-1,9.683534223E0
1.584609271E0,9.694221497E0,-1.052841991E-1,-7.866404206E-2,9.695112337E0
1.587032136E0,9.660722733E0,-8.614161611E-2,-8.105687052E-2,9.661446802E0
1.589455573E0,9.703793526E0,-1.004985496E-1,-9.780662507E-2,9.704806793E0
1.591878906E0,9.689435959E0,-1.100698411E-1,-1.025922745E-1,9.690604199E0
1.594302084E0,9.667901039E0,-1.172483116E-1,-1.025922745E-1,9.669156263E0
1.596725521E0,9.694221497E0,-1.052841991E-1,-9.302098304E-2,9.695239455E0
1.599149115E0,9.689435959E0,-1.268195957E-1,-9.541380405E-2,9.690735586E0
1.601572031E0,9.658329964E0,-9.092725813E-2,-7.627122104E-2,9.659059103E0
1.603995625E0,9.670293808E0,-1.052841991E-1,-1.097707376E-1,9.671489891E0
1.606419375E0,9.684650421E0,-1.100698411E-1,-9.780662507E-2,9.685769731E0
1.608842917E0,9.696614265E0,-1.052841991E-1,-9.302098304E-2,9.697631973E0
1.611266459E0,9.670293808E0,-9.571290761E-2,-1.025922745E-1,9.671311621E0
1.613689792E0,9.663115501E0,-1.028913707E-1,-1.049850956E-1,9.664233529E0
1.616113229E0,9.677472115E0,-1.076770201E-1,-1.001994461E-1,9.678589815E0
1.618536511E0,9.675079346E0,-8.374879509E-2,-1.145563871E-1,9.676119954E0
1.620960677E0,9.667901039E0,-1.076770201E-1,-1.073779166E-1,9.669096900E0
1.623384531E0,9.663115501E0,-1.172483116E-1,-1.097707376E-1,9.664450216E0
1.625808802E0,9.667901039E0,-1.004985496E-1,-9.780662507E-2,9.668918068E0
1.628232188E0,9.679864883E0,-1.052841991E-1,-9.541380405E-2,9.680907639E0
1.630655261E0,9.689435959E0,-1.172483116E-1,-9.780662507E-2,9.690638911E0
1.633078438E0,9.701400757E0,-1.052841991E-1,-8.584251255E-2,9.702351795E0
1.635501979E0,9.679864883E0,-1.076770201E-1,-8.584251255E-2,9.680844356E0
1.637925261E0,9.679864883E0,-1.148554832E-1,-1.097707376E-1,9.681168605E0
1.640348021E0,9.682257652E0,-1.004985496E-1,-8.344969153E-2,9.683138802E0
1.642770521E0,9.687043190E0,-1.124626622E-1,-1.001994461E-1,9.688214157E0
1.645193959E0,9.694221497E0,-1.124626622E-1,-1.025922745E-1,9.695416621E0
1.647617188E0,9.663115501E0,-1.052841991E-1,-1.145563871E-1,9.664368015E0
1.650039584E0,9.667901039E0,-1.100698411E-1,-8.823533356E-2,9.668930207E0
1.652462604E0,9.660722733E0,-8.614161611E-2,-1.049850956E-1,9.661677182E0
1.654885209E0,9.679864883E0,-8.614161611E-2,-1.121635586E-1,9.680897954E0
1.657308438E0,9.699007034E0,-7.178468257E-2,-9.541380405E-2,9.699741970E0
1.659731563E0,9.708579063E0,-8.853443712E-2,-1.049850956E-1,9.709550332E0
1.662154688E0,9.679864883E0,-1.196411327E-1,-1.025922745E-1,9.681147832E0
1.664578229E0,9.672686577E0,-1.220339537E-1,-9.062815458E-2,9.673880884E0
1.667001615E0,9.691828728E0,-1.076770201E-1,-8.584251255E-2,9.692806991E0
1.669425469E0,9.679864883E0,-1.172483116E-1,-8.584251255E-2,9.680955545E0
1.671849167E0,9.665508270E0,-1.196411327E-1,-1.049850956E-1,9.666818815E0
1.674273021E0,9.687043190E0,-9.810572863E-2,-8.823533356E-2,9.687941782E0
1.676695573E0,9.665508270E0,-1.148554832E-1,-9.302098304E-2,9.666638237E0
1.679119271E0,9.675079346E0,-1.028913707E-1,-9.780662507E-2,9.676120768E0
1.681542761E0,9.663115501E0,-9.332008660E-2,-1.073779166E-1,9.664162656E0
1.683966198E0,9.675079346E0,-1.028913707E-1,-9.780662507E-2,9.676120768E0
1.686389584E0,9.670293808E0,-1.148554832E-1,-9.541380405E-2,9.671446526E0
1.688812709E0,9.682257652E0,-1.004985496E-1,-9.062815458E-2,9.683203327E0
1.691235990E0,9.675079346E0,-1.100698411E-1,-9.780662507E-2,9.676199763E0
1.693659948E0,9.689435959E0,-1.004985496E-1,-6.909275055E-2,9.690203453E0
1.696083281E0,9.682257652E0,-9.092725813E-2,-8.584251255E-2,9.683065111E0
1.698506511E0,9.672686577E0,-1.172483116E-1,-9.780662507E-2,9.673891612E0
1.700929948E0,9.679864883E0,-1.028913707E-1,-1.025922745E-1,9.680955323E0
1.703353386E0,9.660722733E0,-9.810572863E-2,-1.049850956E-1,9.661791258E0
1.705777084E0,9.696614265E0,-1.076770201E-1,-9.780662507E-2,9.697705331E0
1.708200000E0,9.679864883E0,-9.810572863E-2,-9.541380405E-2,9.680832231E0
1.710623594E0,9.694221497E0,-8.853443712E-2,-9.302098304E-2,9.695072030E0
1.713046771E0,9.696614265E0,-9.332008660E-2,-8.344969153E-2,9.697422374E0
1.715468229E0,9.679864883E0,-9.332008660E-2,-8.344969153E-2,9.680674390E0
1.717891042E0,9.679864883E0,-9.571290761E-2,-7.148557901E-2,9.680602012E0
1.720314115E0,9.687043190E0,-1.076770201E-1,-6.909275055E-2,9.687888001E0
1.722736927E0,9.675079346E0,-1.076770201E-1,-9.780662507E-2,9.676172840E0
1.725160104E0,9.667901039E0,-9.332008660E-2,-9.541380405E-2,9.668822210E0
1.727582813E0,9.672686577E0,-9.810572863E-2,-8.105687052E-2,9.673523689E0
1.730006094E0,9.675079346E0,-9.092725813E-2,-1.193420291E-1,9.676242589E0
1.732429584E0,9.694221497E0,-1.052841991E-1,-1.001994461E-1,9.695310986E0
1.734853542E0,9.684650421E0,-1.004985496E-1,-9.541380405E-2,9.685641823E0
1.737276927E0,9.667901039E0,-1.148554832E-1,-7.387840003E-2,9.668865513E0
1.739700573E0,9.689435959E0,-1.052841991E-1,-8.823533356E-2,9.690409663E0
1.742124167E0,9.687043190E0,-1.124626622E-1,-9.780662507E-2,9.688189705E0
1.744547917E0,9.675079346E0,-1.028913707E-1,-1.193420291E-1,9.676362411E0
1.746971302E0,9.658329964E0,-1.172483116E-1,-1.097707376E-1,9.659665339E0
1.749394896E0,9.651150703E0,-1.172483116E-1,-9.541380405E-2,9.652334477E0
1.751818229E0,9.682257652E0,-1.124626622E-1,-1.073779166E-1,9.683506137E0
1.754242136E0,9.651150703E0,-1.100698411E-1,-9.302098304E-2,9.652226591E0
1.756665104E0,9.670293808E0,-9.571290761E-2,-7.866404206E-2,9.671087391E0
1.759088177E0,9.718150139E0,-1.004985496E-1,-9.062815458E-2,9.719092321E0
1.761511406E0,9.684650421E0,-1.028913707E-1,-8.584251255E-2,9.685577389E0
1.763935000E0,9.706186295E0,-1.196411327E-1,-8.584251255E-2,9.707303195E0
1.766357813E0,9.679864883E0,-1.124626622E-1,-1.121635586E-1,9.681167940E0
1.768781250E0,9.677472115E0,-1.148554832E-1,-9.780662507E-2,9.678647862E0
1.771204271E0,9.682257652E0,-1.052841991E-1,-9.302098304E-2,9.683276868E0
1.773627292E0,9.672686577E0,-1.244267747E-1,-9.062815458E-2,9.673911365E0
1.776050313E0,9.682257652E0,-8.135596663E-2,-8.344969153E-2,9.682959046E0
1.778472969E0,9.684650421E0,-1.292124242E-1,-9.780662507E-2,9.686006182E0
1.780896146E0,9.679864883E0,-1.148554832E-1,-9.302098304E-2,9.680993175E0
1.783319740E0,9.689435959E0,-1.028913707E-1,-8.584251255E-2,9.690362469E0
1.785741979E0,9.672686577E0,-1.052841991E-1,-9.780662507E-2,9.673754003E0
1.788165209E0,9.689435959E0,-1.100698411E-1,-1.145563871E-1,9.690738245E0
1.790588959E0,9.687043190E0,-1.172483116E-1,-1.097707376E-1,9.688374608E0
1.793013334E0,9.667901039E0,-1.268195957E-1,-9.302098304E-2,9.669180245E0
1.795437656E0,9.691828728E0,-1.028913707E-1,-1.001994461E-1,9.692892791E0
1.797861563E0,9.687043190E0,-8.853443712E-2,-9.302098304E-2,9.687894354E0
1.800285573E0,9.682257652E0,-1.004985496E-1,-8.584251255E-2,9.683159719E0
1.802709115E0,9.670293808E0,-1.052841991E-1,-1.001994461E-1,9.671385993E0
1.805132552E0,9.696614265E0,-8.853443712E-2,-9.302098304E-2,9.697464589E0
1.807555729E0,9.675079346E0,-1.052841991E-1,-1.025922745E-1,9.676196065E0
1.809979011E0,9.682257652E0,-1.172483116E-1,-1.001994461E-1,9.683485960E0
1.812402292E0,9.670293808E0,-1.076770201E-1,-7.866404206E-2,9.671213197E0
1.814825521E0,9.663115501E0,-1.028913707E-1,-9.062815458E-2,9.664088229E0
1.817248334E0,9.667901039E0,-9.810572863E-2,-1.001994461E-1,9.668917994E0
1.819672292E0,9.682257652E0,-1.028913707E-1,-8.823533356E-2,9.683206357E0
1.822095573E0,9.679864883E0,-1.004985496E-1,-8.823533356E-2,9.680788687E0
1.824519479E0,9.679864883E0,-8.614161611E-2,-9.541380405E-2,9.680718379E0
1.826943334E0,9.643972397E0,-1.052841991E-1,-9.062815458E-2,9.644972878E0
1.829366875E0,9.677472115E0,-9.571290761E-2,-9.062815458E-2,9.678369747E0
1.831790625E0,9.670293808E0,-9.092725813E-2,-9.062815458E-2,9.671145928E0
1.834214584E0,9.677472115E0,-9.810572863E-2,-1.001994461E-1,9.678488063E0
1.836637813E0,9.670293808E0,-1.076770201E-1,-9.302098304E-2,9.671340630E0
1.839061146E0,9.667901039E0,-9.092725813E-2,-1.025922745E-1,9.668872915E0
1.841484792E0,9.694221497E0,-9.571290761E-2,-1.025922745E-1,9.695236798E0
1.843907917E0,9.694221497E0,-1.028913707E-1,-8.823533356E-2,9.695169031E0
1.846330938E0,9.660722733E0,-1.052841991E-1,-1.001994461E-1,9.661815999E0
1.848754740E0,9.667901039E0,-1.124626622E-1,-9.062815458E-2,9.668979875E0
1.851178646E0,9.670293808E0,-1.172483116E-1,-1.001994461E-1,9.671523635E0
1.853602448E0,9.667901039E0,-9.810572863E-2,-9.062815458E-2,9.668823543E0
1.856026094E0,9.648757935E0,-9.092725813E-2,-1.145563871E-1,9.649866352E0
1.858449792E0,9.694221497E0,-1.363908947E-1,-1.025922745E-1,9.695723700E0
1.860873281E0,9.665508270E0,-1.100698411E-1,-9.780662507E-2,9.666629797E0
1.863296667E0,9.672686577E0,-1.052841991E-1,-1.097707376E-1,9.673882364E0
1.865721094E0,9.675079346E0,-1.076770201E-1,-1.145563871E-1,9.676356641E0
1.868144584E0,9.675079346E0,-9.571290761E-2,-8.584251255E-2,9.675933559E0
1.870568021E0,9.660722733E0,-1.052841991E-1,-8.344969153E-2,9.661656811E0
1.872991406E0,9.679864883E0,-9.571290761E-2,-9.302098304E-2,9.680784990E0
1.875414636E0,9.679864883E0,-9.810572863E-2,-8.584251255E-2,9.680742628E0
1.877838021E0,9.675079346E0,-1.076770201E-1,-7.866404206E-2,9.675998280E0
1.880261771E0,9.684650421E0,-8.853443712E-2,-9.780662507E-2,9.685548940E0
1.882684271E0,9.677472115E0,-8.614161611E-2,-9.302098304E-2,9.678302527E0
1.885107292E0,9.670293808E0,-1.292124242E-1,-7.866404206E-2,9.671476941E0
1.887530781E0,9.679864883E0,-9.571290761E-2,-7.387840003E-2,9.680619977E0
1.889954844E0,9.648757935E0,-9.571290761E-2,-8.344969153E-2,9.649593488E0
1.892378698E0,9.648757935E0,-1.028913707E-1,-8.105687052E-2,9.649646964E0
1.894802031E0,9.677472115E0,-8.614161611E-2,-8.823533356E-2,9.678257714E0
1.897225729E0,9.672686577E0,-1.172483116E-1,-1.097707376E-1,9.674019971E0
1.899649219E0,9.658329964E0,-1.124626622E-1,-1.025922745E-1,9.659529529E0
1.902072396E0,9.665508270E0,-1.028913707E-1,-1.073779166E-1,9.666652304E0
1.904495313E0,9.653543472E0,-1.052841991E-1,-9.541380405E-2,9.654589071E0
1.906918802E0,9.643972397E0,-1.316052526E-1,-1.025922745E-1,9.645415943E0
1.909342344E0,9.679864883E0,-9.810572863E-2,-1.025922745E-1,9.680905643E0
1.911765365E0,9.667901039E0,-1.100698411E-1,-8.344969153E-2,9.668887719E0
1.914188646E0,9.658329964E0,-1.316052526E-1,-8.584251255E-2,9.659607992E0
1.916611146E0,9.699007034E0,-1.316052526E-1,-9.302098304E-2,9.700345885E0
1.919034427E0,9.682257652E0,-1.411765367E-1,-1.049850956E-1,9.683855943E0
1.921457604E0,9.677472115E0,-9.332008660E-2,-1.073779166E-1,9.678517716E0
1.923881042E0,9.665508270E0,-1.124626622E-1,-1.049850956E-1,9.666732635E0
1.926304323E0,9.694221497E0,-1.076770201E-1,-1.049850956E-1,9.695387905E0
1.928727604E0,9.689435959E0,-1.268195957E-1,-1.145563871E-1,9.690942966E0
1.931150156E0,9.689435959E0,-9.332008660E-2,-9.062815458E-2,9.690309144E0
1.933572084E0,9.706186295E0,-1.220339537E-1,-8.823533356E-2,9.707354436E0
1.935994792E0,9.694221497E0,-1.028913707E-1,-9.541380405E-2,9.695237019E0
1.938417813E0,9.672686577E0,-1.100698411E-1,-9.780662507E-2,9.673807271E0
1.940840469E0,9.675079346E0,-9.092725813E-2,-8.584251255E-2,9.675887404E0
1.943263438E0,9.672686577E0,-1.124626622E-1,-1.001994461E-1,9.673859281E0
1.945687031E0,9.672686577E0,-1.028913707E-1,-1.169492081E-1,9.673940736E0
1.948110156E0,9.677472115E0,-9.092725813E-2,-9.302098304E-2,9.678346305E0
1.950533438E0,9.677472115E0,-1.004985496E-1,-1.073779166E-1,9.678589593E0
1.952956823E0,9.665508270E0,-8.853443712E-2,-8.823533356E-2,9.666316462E0
1.955380156E0,9.677472115E0,-1.052841991E-1,-1.145563871E-1,9.678722770E0
1.957803386E0,9.682257652E0,-1.100698411E-1,-1.121635586E-1,9.683532892E0
1.960226615E0,9.665508270E0,-1.172483116E-1,-9.062815458E-2,9.666644234E0
1.962650573E0,9.663115501E0,-1.100698411E-1,-9.541380405E-2,9.664213385E0
1.965074011E0,9.658329964E0,-1.244267747E-1,-1.073779166E-1,9.659728243E0
1.967497188E0,9.684650421E0,-1.124626622E-1,-1.025922745E-1,9.685846726E0
1.969920469E0,9.706186295E0,-1.076770201E-1,-8.823533356E-2,9.707184566E0
1.972344167E0,9.667901039E0,-1.196411327E-1,-8.584251255E-2,9.669022362E0
1.974767396E0,9.696614265E0,-1.076770201E-1,-9.541380405E-2,9.697681493E0
1.977190313E0,9.679864883E0,-8.614161611E-2,-8.344969153E-2,9.680607852E0
1.979613281E0,9.691828728E0,-8.853443712E-2,-8.344969153E-2,9.692592341E0
1.982036511E0,9.684650421E0,-1.052841991E-1,-8.344969153E-2,9.685582192E0
1.984460052E0,9.667901039E0,-1.172483116E-1,-9.780662507E-2,9.669106670E0
1.986883854E0,9.679864883E0,-1.076770201E-1,-7.627122104E-2,9.680764216E0
1.989308177E0,9.672686577E0,-1.148554832E-1,-7.148557901E-2,9.673632595E0
1.991731459E0,9.672686577E0,-1.100698411E-1,-1.025922745E-1,9.673856840E0
1.994154531E0,9.670293808E0,-1.052841991E-1,-9.302098304E-2,9.671314285E0
1.996577761E0,9.670293808E0,-1.196411327E-1,-9.062815458E-2,9.671458514E0
1.999001302E0,9.665508270E0,-1.148554832E-1,-1.025922745E-1,9.666735079E0
2.001424427E0,9.667901039E0,-1.052841991E-1,-1.217348501E-1,9.669240644E0
2.003847865E0,9.694221497E0,-1.124626622E-1,-1.097707376E-1,9.695495237E0
2.006271198E0,9.665508270E0,-1.052841991E-1,-1.073779166E-1,9.666678070E0
2.008694479E0,9.665508270E0,-1.028913707E-1,-1.025922745E-1,9.666600330E0
2.011117709E0,9.672686577E0,-1.076770201E-1,-8.584251255E-2,9.673666776E0
2.013540781E0,9.679864883E0,-1.052841991E-1,-9.780662507E-2,9.680931518E0
2.015964427E0,9.660722733E0,-9.332008660E-2,-1.025922745E-1,9.661718146E0
2.018387292E0,9.653543472E0,-1.268195957E-1,-9.062815458E-2,9.654801823E0
2.020810104E0,9.670293808E0,-1.028913707E-1,-9.780662507E-2,9.671335746E0
2.023233750E0,9.689435959E0,-1.052841991E-1,-9.541380405E-2,9.690477685E0
2.025656927E0,9.670293808E0,-1.316052526E-1,-1.121635586E-1,9.671839687E0
2.028080156E0,9.660722733E0,-1.124626622E-1,-9.780662507E-2,9.661872370E0
2.030503490E0,9.660722733E0,-1.244267747E-1,-9.062815458E-2,9.661949037E0
2.032926198E0,9.679864883E0,-1.052841991E-1,-9.302098304E-2,9.680884352E0
2.035349323E0,9.660722733E0,-1.004985496E-1,-8.823533356E-2,9.661648366E0
2.037772396E0,9.679864883E0,-9.092725813E-2,-9.302098304E-2,9.680738858E0
2.040195521E0,9.663115501E0,-1.052841991E-1,-1.049850956E-1,9.664259300E0
2.042619115E0,9.667901039E0,-1.028913707E-1,-1.001994461E-1,9.668967735E0
2.045041927E0,9.667901039E0,-1.076770201E-1,-1.001994461E-1,9.669019845E0
2.047465573E0,9.682257652E0,-9.810572863E-2,-1.001994461E-1,9.683273099E0
2.049889740E0,9.658329964E0,-9.810572863E-2,-1.049850956E-1,9.659398754E0
2.052313698E0,9.665508270E0,-1.004985496E-1,-1.073779166E-1,9.666627131E0
2.054737761E0,9.689435959E0,-1.172483116E-1,-1.025922745E-1,9.690688394E0
2.057161042E0,9.706186295E0,-1.100698411E-1,-8.584251255E-2,9.707189948E0
2.059584792E0,9.663115501E0,-1.172483116E-1,-8.105687052E-2,9.664166730E0
2.062007917E0,9.655936241E0,-1.052841991E-1,-8.823533356E-2,9.656913323E0
2.064431354E0,9.665508270E0,-9.092725813E-2,-6.669992954E-2,9.666166084E0
2.066854584E0,9.682257652E0,-9.332008660E-2,-9.062815458E-2,9.683131485E0
2.069277709E0,9.670293808E0,-1.028913707E-1,-1.001994461E-1,9.671360240E0
2.071700573E0,9.687043190E0,-9.810572863E-2,-1.025922745E-1,9.688083179E0
2.074123959E0,9.670293808E0,-1.028913707E-1,-9.302098304E-2,9.671288532E0
2.076547656E0,9.682257652E0,-1.316052526E-1,-8.105687052E-2,9.683491282E0
2.078971094E0,9.663115501E0,-1.076770201E-1,-8.823533356E-2,9.664118222E0
2.081394271E0,9.672686577E0,-1.220339537E-1,-1.049850956E-1,9.674026037E0
2.083817604E0,9.694221497E0,-1.172483116E-1,-7.627122104E-2,9.695230523E0
2.086240834E0,9.667901039E0,-1.076770201E-1,-9.062815458E-2,9.668925396E0
2.088664271E0,9.675079346E0,-1.076770201E-1,-9.780662507E-2,9.676172840E0
2.091087552E0,9.653543472E0,-1.172483116E-1,-9.062815458E-2,9.654680844E0
2.093511354E0,9.658329964E0,-8.853443712E-2,-1.001994461E-1,9.659255456E0
2.095934792E0,9.663115501E0,-1.148554832E-1,-1.145563871E-1,9.664477024E0
2.098358073E0,9.672686577E0,-9.571290761E-2,-9.541380405E-2,9.673630671E0
2.100781406E0,9.682257652E0,-9.332008660E-2,-9.302098304E-2,9.683154176E0
2.103204844E0,9.672686577E0,-1.076770201E-1,-8.584251255E-2,9.673666776E0
2.105629063E0,9.658329964E0,-9.810572863E-2,-8.344969153E-2,9.659188696E0
2.108052709E0,9.665508270E0,-9.332008660E-2,-9.062815458E-2,9.666383617E0
2.110476042E0,9.665508270E0,-8.853443712E-2,-9.780662507E-2,9.666408568E0
2.112899584E0,9.660722733E0,-9.092725813E-2,-9.062815458E-2,9.661575697E0
2.115323698E0,9.667901039E0,-8.135596663E-2,-8.823533356E-2,9.668645964E0
2.117747136E0,9.660722733E0,-9.571290761E-2,-7.866404206E-2,9.661517102E0
2.120170469E0,9.672686577E0,-1.052841991E-1,-7.866404206E-2,9.673579400E0
2.122593750E0,9.667901039E0,-1.052841991E-1,-8.584251255E-2,9.668855372E0
2.125017396E0,9.670293808E0,-1.148554832E-1,-1.001994461E-1,9.671494923E0
2.127440729E0,9.658329964E0,-1.100698411E-1,-8.584251255E-2,9.659338590E0
2.129864219E0,9.677472115E0,-1.004985496E-1,-1.121635586E-1,9.678643869E0
2.132287761E0,9.667901039E0,-1.244267747E-1,-1.049850956E-1,9.669271658E0
2.134710938E0,9.672686577E0,-1.196411327E-1,-7.627122104E-2,9.673727147E0
2.137134011E0,9.658329964E0,-1.028913707E-1,-9.062815458E-2,9.659303173E0
2.139557500E0,9.689435959E0,-1.124626622E-1,-1.073779166E-1,9.690683519E0
2.141981979E0,9.694221497E0,-9.571290761E-2,-1.001994461E-1,9.695211773E0
2.144405938E0,9.684650421E0,-9.092725813E-2,-7.627122104E-2,9.685377579E0
2.146829531E0,9.703793526E0,-8.374879509E-2,-9.302098304E-2,9.704600742E0
2.149253490E0,9.665508270E0,-7.896314561E-2,-1.073779166E-1,9.666427226E0
2.151677344E0,9.667901039E0,-8.853443712E-2,-9.541380405E-2,9.668777205E0
2.154101354E0,9.691828728E0,-1.052841991E-1,-9.062815458E-2,9.692824269E0
2.156524479E0,9.672686577E0,-9.571290761E-2,-7.148557901E-2,9.673424252E0
2.158947500E0,9.660722733E0,-1.124626622E-1,-9.062815458E-2,9.661802370E0
2.161371302E0,9.648757935E0,-1.124626622E-1,-1.073779166E-1,9.650010754E0
2.163794948E0,9.679864883E0,-1.316052526E-1,-1.049850956E-1,9.681328730E0
2.166218177E0,9.694221497E0,-1.076770201E-1,-9.780662507E-2,9.695312832E0
2.168640938E0,9.689435959E0,-1.004985496E-1,-8.344969153E-2,9.690316456E0
2.171064115E0,9.672686577E0,-1.268195957E-1,-9.541380405E-2,9.673988454E0
2.173486927E0,9.677472115E0,-1.004985496E-1,-9.780662507E-2,9.678488137E0
2.175910209E0,9.667901039E0,-9.810572863E-2,-9.780662507E-2,9.668893493E0
2.178334115E0,9.665508270E0,-1.028913707E-1,-8.105687052E-2,9.666395759E0
2.180757136E0,9.665508270E0,-1.172483116E-1,-9.062815458E-2,9.666644234E0
2.183180365E0,9.670293808E0,-9.092725813E-2,-9.780662507E-2,9.671215861E0
2.185603854E0,9.663115501E0,-9.332008660E-2,-9.062815458E-2,9.663991064E0
2.188027500E0,9.699007034E0,-1.124626622E-1,-8.344969153E-2,9.700017998E0
2.190451250E0,9.672686577E0,-1.172483116E-1,-1.121635586E-1,9.674047418E0
2.192874636E0,9.679864883E0,-1.196411327E-1,-1.049850956E-1,9.681173484E0
2.195298125E0,9.675079346E0,-9.092725813E-2,-1.001994461E-1,9.676025426E0
2.197721146E0,9.670293808E0,-7.896314561E-2,-9.302098304E-2,9.671063562E0
2.200144219E0,9.679864883E0,-1.028913707E-1,-1.073779166E-1,9.681007221E0
2.202567448E0,9.665508270E0,-1.148554832E-1,-8.584251255E-2,9.666571825E0
2.204990313E0,9.696614265E0,-1.268195957E-1,-1.001994461E-1,9.697961196E0
2.207413073E0,9.691828728E0,-1.268195957E-1,-9.062815458E-2,9.693082108E0
2.209836406E0,9.679864883E0,-1.148554832E-1,-1.025922745E-1,9.681089872E0
2.212260052E0,9.677472115E0,-1.124626622E-1,-8.344969153E-2,9.678485327E0
2.214684063E0,9.684650421E0,-1.076770201E-1,-1.049850956E-1,9.685817983E0
2.217108438E0,9.677472115E0,-8.614161611E-2,-1.001994461E-1,9.678374183E0
2.219532448E0,9.677472115E0,-9.332008660E-2,-9.062815458E-2,9.678346379E0
2.221956094E0,9.670293808E0,-1.196411327E-1,-9.541380405E-2,9.671504543E0
2.224379740E0,9.684650421E0,-1.148554832E-1,-8.584251255E-2,9.685711874E0
2.226803021E0,9.658329964E0,-9.571290761E-2,-1.073779166E-1,9.659401051E0
2.229226094E0,9.677472115E0,-8.853443712E-2,-8.823533356E-2,9.678279307E0
2.231648906E0,9.689435959E0,-1.124626622E-1,-8.823533356E-2,9.690490314E0
2.234071823E0,9.682257652E0,-1.220339537E-1,-9.541380405E-2,9.683496751E0
2.236494948E0,9.677472115E0,-8.853443712E-2,-9.780662507E-2,9.678371299E0
2.238918802E0,9.675079346E0,-9.810572863E-2,-1.049850956E-1,9.676146286E0
2.241342344E0,9.682257652E0,-1.052841991E-1,-9.541380405E-2,9.683300150E0
2.243764948E0,9.701400757E0,-1.028913707E-1,-7.866404206E-2,9.702265267E0
2.246188334E0,9.699007034E0,-1.052841991E-1,-8.584251255E-2,9.699958307E0
2.248611771E0,9.677472115E0,-1.004985496E-1,-8.105687052E-2,9.678333364E0
2.251034948E0,9.648757935E0,-9.332008660E-2,-8.344969153E-2,9.649570051E0
2.253458438E0,9.689435959E0,-1.076770201E-1,-9.780662507E-2,9.690527833E0
2.255881979E0,9.689435959E0,-1.339980662E-1,-7.627122104E-2,9.690662618E0
2.258304948E0,9.675079346E0,-9.332008660E-2,-8.584251255E-2,9.675910186E0
2.260728229E0,9.675079346E0,-1.196411327E-1,-9.062815458E-2,9.676243476E0
2.263152031E0,9.684650421E0,-9.810572863E-2,-9.062815458E-2,9.685571329E0
2.265576042E0,9.670293808E0,-1.148554832E-1,-1.121635586E-1,9.671626274E0
2.267998906E0,9.658329964E0,-1.220339537E-1,-1.073779166E-1,9.659697717E0
2.270422448E0,9.651150703E0,-1.004985496E-1,-8.823533356E-2,9.652077255E0
2.272845729E0,9.670293808E0,-8.614161611E-2,-9.302098304E-2,9.671124837E0
2.275269584E0,9.708579063E0,-1.100698411E-1,-8.823533356E-2,9.709603920E0
2.277693698E0,9.687043190E0,-1.244267747E-1,-8.584251255E-2,9.688222578E0
2.280116979E0,9.691828728E0,-1.076770201E-1,-9.302098304E-2,9.692873224E0
2.282540313E0,9.679864883E0,-1.172483116E-1,-9.780662507E-2,9.681069025E0
2.284962865E0,9.687043190E0,-1.076770201E-1,-9.302098304E-2,9.688088202E0
2.287385886E0,9.667901039E0,-1.076770201E-1,-9.302098304E-2,9.668948120E0
2.289809011E0,9.682257652E0,-1.196411327E-1,-9.302098304E-2,9.683443610E0
2.292232188E0,9.648757935E0,-8.614161611E-2,-7.866404206E-2,9.649463099E0
2.294655052E0,9.675079346E0,-8.135596663E-2,-8.344969153E-2,9.675781260E0
2.297078854E0,9.684650421E0,-1.028913707E-1,-8.584251255E-2,9.685577389E0
2.299501875E0,9.658329964E0,-1.076770201E-1,-1.001994461E-1,9.659449879E0
2.301925365E0,9.665508270E0,-1.124626622E-1,-1.145563871E-1,9.666841322E0
2.304348594E0,9.663115501E0,-1.172483116E-1,-8.584251255E-2,9.664208053E0
2.306772604E0,9.667901039E0,-1.052841991E-1,-9.062815458E-2,9.668899044E0
2.309196042E0,9.675079346E0,-9.092725813E-2,-1.097707376E-1,9.676129274E0
2.311619584E0,9.667901039E0,-8.853443712E-2,-1.097707376E-1,9.668929541E0
2.314043594E0,9.715757370E0,-1.028913707E-1,-1.001994461E-1,9.716818813E0
2.316466459E0,9.665508270E0,-1.172483116E-1,-1.025922745E-1,9.666763805E0
2.318889792E0,9.660722733E0,-1.052841991E-1,-1.025922745E-1,9.661841111E0
2.321312761E0,9.660722733E0,-1.172483116E-1,-8.823533356E-2,9.661837111E0
2.323736302E0,9.670293808E0,-1.100698411E-1,-7.148557901E-2,9.671184410E0
2.326160313E0,9.670293808E0,-9.810572863E-2,-8.105687052E-2,9.671131127E0
2.328583281E0,9.672686577E0,-1.052841991E-1,-8.584251255E-2,9.673640437E0
2.331006354E0,9.684650421E0,-1.052841991E-1,-8.823533356E-2,9.685624606E0
2.333429792E0,9.687043190E0,-1.076770201E-1,-9.062815458E-2,9.688065522E0
2.335853334E0,9.665508270E0,-1.028913707E-1,-9.062815458E-2,9.666480757E0
2.338276823E0,9.684650421E0,-1.124626622E-1,-1.001994461E-1,9.685821677E0
2.340699584E0,9.653543472E0,-1.148554832E-1,-9.541380405E-2,9.654698190E0
2.343122552E0,9.655936241E0,-1.220339537E-1,-9.062815458E-2,9.657132620E0
2.345545625E0,9.677472115E0,-1.244267747E-1,-1.097707376E-1,9.678894470E0
2.347969323E0,9.670293808E0,-1.220339537E-1,-8.105687052E-2,9.671403457E0
2.350393177E0,9.670293808E0,-1.100698411E-1,-8.344969153E-2,9.671280244E0
2.352816146E0,9.667901039E0,-1.196411327E-1,-1.025922745E-1,9.669185575E0
2.355239479E0,9.655936241E0,-1.244267747E-1,-1.121635586E-1,9.657389263E0
2.357663594E0,9.672686577E0,-1.196411327E-1,-1.073779166E-1,9.674022412E0
2.360087813E0,9.691828728E0,-1.292124242E-1,-8.584251255E-2,9.693070147E0
2.362512031E0,9.672686577E0,-1.100698411E-1,-9.780662507E-2,9.673807271E0
2.364935469E0,9.658329964E0,-9.332008660E-2,-1.001994461E-1,9.659300505E0
2.367358490E0,9.694221497E0,-1.028913707E-1,-8.344969153E-2,9.695126658E0
2.369781563E0,9.679864883E0,-1.268195957E-1,-9.302098304E-2,9.681142509E0
2.372205052E0,9.658329964E0,-9.571290761E-2,-1.145563871E-1,9.659483517E0
2.374628438E0,9.696614265E0,-9.571290761E-2,-8.584251255E-2,9.697466582E0
2.377051302E0,9.667901039E0,-1.339980662E-1,-9.062815458E-2,9.669254338E0
2.379475209E0,9.653543472E0,-1.124626622E-1,-9.541380405E-2,9.654670021E0
2.381899011E0,9.658329964E0,-8.614161611E-2,-1.169492081E-1,9.659422094E0
2.384322865E0,9.691828728E0,-7.417750359E-2,-1.025922745E-1,9.692655548E0
2.386746459E0,9.694221497E0,-1.124626622E-1,-8.105687052E-2,9.695212658E0
2.389169844E0,9.660722733E0,-1.004985496E-1,-7.627122104E-2,9.661546510E0
2.391593646E0,9.679864883E0,-1.076770201E-1,-8.344969153E-2,9.680823434E0
2.394017552E0,9.670293808E0,-1.100698411E-1,-1.097707376E-1,9.671543171E0
2.396440729E0,9.682257652E0,-1.028913707E-1,-1.025922745E-1,9.683347823E0
2.398864219E0,9.684650421E0,-1.196411327E-1,-9.062815458E-2,9.685813401E0
2.401287500E0,9.672686577E0,-9.571290761E-2,-9.780662507E-2,9.673654568E0
2.403711042E0,9.682257652E0,-1.076770201E-1,-1.097707376E-1,9.683478569E0
2.406134792E0,9.675079346E0,-1.100698411E-1,-8.105687052E-2,9.676044953E0
2.408558334E0,9.667901039E0,-1.028913707E-1,-9.780662507E-2,9.668943235E0
2.410982240E0,9.646365166E0,-1.148554832E-1,-8.584251255E-2,9.647430830E0
2.413405886E0,9.691828728E0,-8.853443712E-2,-8.823533356E-2,9.692634725E0
2.415829427E0,9.675079346E0,-1.004985496E-1,-8.823533356E-2,9.676003606E0
2.418253281E0,9.687043190E0,-1.100698411E-1,-9.062815458E-2,9.688092413E0
2.420677865E0,9.672686577E0,-9.332008660E-2,-1.073779166E-1,9.673732696E0
2.423101979E0,9.682257652E0,-1.244267747E-1,-1.001994461E-1,9.683575538E0
2.425525156E0,9.675079346E0,-1.052841991E-1,-6.669992954E-2,9.675882078E0
2.427948646E0,9.682257652E0,-9.332008660E-2,-9.062815458E-2,9.683131485E0
2.430372188E0,9.682257652E0,-1.004985496E-1,-9.541380405E-2,9.683249300E0
2.432795990E0,9.667901039E0,-1.004985496E-1,-9.541380405E-2,9.668894159E0
2.435219636E0,9.672686577E0,-1.124626622E-1,-9.062815458E-2,9.673764879E0
2.437643490E0,9.660722733E0,-1.004985496E-1,-8.823533356E-2,9.661648366E0
2.440067031E0,9.699007034E0,-1.076770201E-1,-1.001994461E-1,9.700122253E0
2.442490104E0,9.689435959E0,-8.374879509E-2,-1.001994461E-1,9.690315939E0
2.444913125E0,9.682257652E0,-1.052841991E-1,-1.121635586E-1,9.683479678E0
2.447336615E0,9.655936241E0,-1.004985496E-1,-7.866404206E-2,9.656779623E0
2.449760365E0,9.679864883E0,-1.148554832E-1,-1.001994461E-1,9.681064811E0
2.452184011E0,9.699007034E0,-1.076770201E-1,-1.025922745E-1,9.700147265E0
2.454607448E0,9.665508270E0,-1.052841991E-1,-1.025922745E-1,9.666626095E0
2.457031459E0,9.689435959E0,-9.332008660E-2,-7.387840003E-2,9.690166967E0
2.459454844E0,9.670293808E0,-1.316052526E-1,-7.866404206E-2,9.671509205E0
2.461878229E0,9.694221497E0,-1.076770201E-1,-9.541380405E-2,9.695288988E0
2.464301511E0,9.672686577E0,-1.172483116E-1,-8.344969153E-2,9.673757110E0
2.466725417E0,9.665508270E0,-1.076770201E-1,-8.584251255E-2,9.666489197E0
2.469149271E0,9.684650421E0,-1.028913707E-1,-9.780662507E-2,9.685690814E0
2.471573281E0,9.667901039E0,-1.316052526E-1,-9.780662507E-2,9.669291421E0
2.473996511E0,9.679864883E0,-1.100698411E-1,-9.062815458E-2,9.680914884E0
2.476420573E0,9.689435959E0,-1.268195957E-1,-1.121635586E-1,9.690914976E0
2.478843490E0,9.684650421E0,-1.076770201E-1,-1.097707376E-1,9.685871036E0
2.481266823E0,9.682257652E0,-7.178468257E-2,-8.584251255E-2,9.682904276E0
2.483690469E0,9.687043190E0,-1.004985496E-1,-8.105687052E-2,9.687903588E0
2.486113646E0,9.687043190E0,-1.004985496E-1,-9.780662507E-2,9.688058209E0
2.488536927E0,9.675079346E0,-1.124626622E-1,-1.049850956E-1,9.676302500E0
2.490960261E0,9.682257652E0,-9.810572863E-2,-1.121635586E-1,9.683404290E0
2.493383177E0,9.687043190E0,-1.124626622E-1,-1.073779166E-1,9.688291058E0
2.495806459E0,9.658329964E0,-9.092725813E-2,-1.025922745E-1,9.659302802E0
2.498230261E0,9.670293808E0,-1.148554832E-1,-8.823533356E-2,9.671378371E0
2.500652865E0,9.677472115E0,-1.196411327E-1,-1.049850956E-1,9.678781039E0
2.503076250E0,9.679864883E0,-1.100698411E-1,-1.001994461E-1,9.681009217E0
2.505499896E0,9.696614265E0,-9.810572863E-2,-9.780662507E-2,9.697603780E0
2.507922761E0,9.677472115E0,-8.135596663E-2,-9.062815458E-2,9.678238413E0
2.510345781E0,9.665508270E0,-1.052841991E-1,-8.823533356E-2,9.666484385E0
2.512769167E0,9.677472115E0,-1.052841991E-1,-1.073779166E-1,9.678640468E0
2.515192865E0,9.672686577E0,-1.196411327E-1,-9.302098304E-2,9.673873708E0
2.517616094E0,9.677472115E0,-1.124626622E-1,-9.780662507E-2,9.678619763E0
2.520039271E0,9.663115501E0,-1.172483116E-1,-9.780662507E-2,9.664321730E0
2.522462709E0,9.658329964E0,-1.124626622E-1,-1.145563871E-1,9.659664006E0
2.524886146E0,9.670293808E0,-9.092725813E-2,-8.344969153E-2,9.671081323E0
2.527310156E0,9.663115501E0,-9.332008660E-2,-9.062815458E-2,9.663991064E0
2.529733906E0,9.667901039E0,-9.092725813E-2,-6.669992954E-2,9.668558690E0
2.532157604E0,9.677472115E0,-9.810572863E-2,-9.541380405E-2,9.678439702E0
2.534580990E0,9.682257652E0,-1.220339537E-1,-1.169492081E-1,9.683732888E0
2.537004011E0,9.694221497E0,-1.004985496E-1,-1.097707376E-1,9.695363840E0
2.539428281E0,9.675079346E0,-1.052841991E-1,-8.344969153E-2,9.676012038E0
2.541851615E0,9.694221497E0,-1.100698411E-1,-1.049850956E-1,9.695414775E0
2.544274896E0,9.687043190E0,-9.092725813E-2,-8.105687052E-2,9.687809027E0
2.546698125E0,9.667901039E0,-1.172483116E-1,-9.541380405E-2,9.669082762E0
2.549121927E0,9.658329964E0,-1.196411327E-1,-1.001994461E-1,9.659590655E0
2.551546146E0,9.694221497E0,-1.124626622E-1,-9.541380405E-2,9.695343319E0
2.553969792E0,9.670293808E0,-1.100698411E-1,-9.780662507E-2,9.671414780E0
2.556393281E0,9.667901039E0,-1.220339537E-1,-9.062815458E-2,9.669095938E0
2.558816146E0,9.675079346E0,-9.332008660E-2,-1.097707376E-1,9.676152055E0
2.561239531E0,9.694221497E0,-1.028913707E-1,-1.097707376E-1,9.695388939E0
2.563662604E0,9.696614265E0,-1.052841991E-1,-9.302098304E-2,9.697631973E0
2.566085886E0,9.653543472E0,-1.100698411E-1,-9.541380405E-2,9.654642445E0
2.568508854E0,9.667901039E0,-1.148554832E-1,-1.073779166E-1,9.669179505E0
2.570932240E0,9.670293808E0,-1.004985496E-1,-1.049850956E-1,9.671385845E0
2.573356094E0,9.696614265E0,-1.124626622E-1,-9.302098304E-2,9.697712564E0
2.575779479E0,9.682257652E0,-1.244267747E-1,-9.302098304E-2,9.683503920E0
2.578202500E0,9.703793526E0,-1.172483116E-1,-1.049850956E-1,9.705069697E0
2.580626198E0,9.691828728E0,-1.076770201E-1,-8.584251255E-2,9.692806991E0
2.583049688E0,9.646365166E0,-1.052841991E-1,-1.001994461E-1,9.647460060E0
2.585472813E0,9.699007034E0,-9.810572863E-2,-8.105687052E-2,9.699841875E0
2.587896146E0,9.689435959E0,-9.571290761E-2,-9.541380405E-2,9.690378422E0
2.590319323E0,9.682257652E0,-1.004985496E-1,-1.001994461E-1,9.683297637E0
2.592743021E0,9.682257652E0,-1.124626622E-1,-1.025922745E-1,9.683454253E0
2.595166667E0,9.667901039E0,-1.004985496E-1,-8.584251255E-2,9.668804445E0
2.597590000E0,9.660722733E0,-9.092725813E-2,-9.780662507E-2,9.661645699E0
2.600013750E0,9.677472115E0,-1.028913707E-1,-9.062815458E-2,9.678443399E0
2.602437396E0,9.706186295E0,-9.332008660E-2,-1.025922745E-1,9.707177046E0
2.604860573E0,9.696614265E0,-1.124626622E-1,-9.780662507E-2,9.697759648E0
2.607283854E0,9.665508270E0,-1.172483116E-1,-9.780662507E-2,9.666714200E0
2.609707240E0,9.670293808E0,-1.004985496E-1,-9.062815458E-2,9.671240652E0
2.612130938E0,9.694221497E0,-1.004985496E-1,-8.823533356E-2,9.695143932E0
2.614555000E0,9.687043190E0,-1.052841991E-1,-1.049850956E-1,9.688184164E0
2.616978698E0,9.672686577E0,-9.810572863E-2,-1.121635586E-1,9.673834349E0
2.619401979E0,9.658329964E0,-1.196411327E-1,-8.823533356E-2,9.659473959E0
2.621825834E0,9.679864883E0,-1.052841991E-1,-1.001994461E-1,9.680955989E0
2.624249688E0,9.694221497E0,-9.332008660E-2,-1.121635586E-1,9.695319475E0
2.626672813E0,9.694221497E0,-1.148554832E-1,-9.541380405E-2,9.695371370E0
2.629095990E0,9.694221497E0,-1.100698411E-1,-1.025922745E-1,9.695389160E0
2.631518802E0,9.687043190E0,-9.332008660E-2,-1.001994461E-1,9.688010855E0
2.633942136E0,9.677472115E0,-9.810572863E-2,-7.627122104E-2,9.678269916E0
2.636365834E0,9.689435959E0,-1.268195957E-1,-9.780662507E-2,9.690759441E0
2.638789531E0,9.687043190E0,-9.092725813E-2,-7.866404206E-2,9.687789302E0
2.641213386E0,9.687043190E0,-9.092725813E-2,-7.866404206E-2,9.687789302E0
2.643636771E0,9.655936241E0,-1.244267747E-1,-1.025922745E-1,9.657282842E0
2.646060104E0,9.684650421E0,-1.124626622E-1,-8.344969153E-2,9.685662883E0
2.648482865E0,9.667901039E0,-1.076770201E-1,-9.062815458E-2,9.668925396E0
2.650906302E0,9.682257652E0,-1.052841991E-1,-8.584251255E-2,9.683210570E0
2.653330313E0,9.687043190E0,-9.810572863E-2,-1.073779166E-1,9.688135038E0
2.655754219E0,9.670293808E0,-1.004985496E-1,-8.344969153E-2,9.671176048E0
2.658177344E0,9.663115501E0,-8.853443712E-2,-9.541380405E-2,9.663992101E0
2.660600313E0,9.687043190E0,-1.100698411E-1,-8.823533356E-2,9.688070324E0
2.663023281E0,9.699007034E0,-1.052841991E-1,-8.584251255E-2,9.699958307E0
2.665446615E0,9.675079346E0,-1.172483116E-1,-1.073779166E-1,9.676385561E0
2.667869427E0,9.684650421E0,-1.052841991E-1,-1.073779166E-1,9.685817909E0
2.670292969E0,9.675079346E0,-1.052841991E-1,-1.025922745E-1,9.676196065E0
2.672716667E0,9.679864883E0,-9.810572863E-2,-1.001994461E-1,9.680880581E0
2.675140521E0,9.677472115E0,-1.244267747E-1,-8.584251255E-2,9.678652669E0
2.677563698E0,9.675079346E0,-9.092725813E-2,-8.344969153E-2,9.675866471E0
2.679987136E0,9.658329964E0,-1.100698411E-1,-1.049850956E-1,9.659527676E0
2.682410365E0,9.682257652E0,-1.196411327E-1,-1.073779166E-1,9.683592167E0
2.684833854E0,9.665508270E0,-1.148554832E-1,-1.073779166E-1,9.666787053E0
2.687258281E0,9.672686577E0,-9.092725813E-2,-1.001994461E-1,9.673632891E0
2.689682031E0,9.679864883E0,-1.076770201E-1,-1.049850956E-1,9.681033022E0
2.692105573E0,9.682257652E0,-9.810572863E-2,-1.001994461E-1,9.683273099E0
2.694529115E0,9.694221497E0,-1.076770201E-1,-9.302098304E-2,9.695265735E0
2.696952656E0,9.675079346E0,-1.100698411E-1,-1.049850956E-1,9.676274985E0
2.699376615E0,9.684650421E0,-1.100698411E-1,-9.062815458E-2,9.685699903E0
2.701799896E0,9.691828728E0,-1.220339537E-1,-9.541380405E-2,9.693066603E0
2.704223906E0,9.667901039E0,-1.076770201E-1,-1.001994461E-1,9.669019845E0
2.706647136E0,9.696614265E0,-1.052841991E-1,-1.049850956E-1,9.697754113E0
2.709071042E0,9.670293808E0,-1.004985496E-1,-1.073779166E-1,9.671412116E0
2.711494688E0,9.667901039E0,-1.052841991E-1,-9.780662507E-2,9.668968994E0
2.713918281E0,9.689435959E0,-8.614161611E-2,-9.541380405E-2,9.690288611E0
2.716341667E0,9.691828728E0,-1.124626622E-1,-1.025922745E-1,9.693024147E0
2.718765313E0,9.672686577E0,-9.092725813E-2,-1.097707376E-1,9.673736765E0
2.721189479E0,9.689435959E0,-1.196411327E-1,-1.001994461E-1,9.690692603E0
2.723613281E0,9.682257652E0,-1.292124242E-1,-9.541380405E-2,9.683589876E0
2.726036979E0,9.679864883E0,-9.571290761E-2,-9.541380405E-2,9.680808278E0
2.728460104E0,9.672686577E0,-1.052841991E-1,-9.780662507E-2,9.673754003E0
2.730883542E0,9.689435959E0,-1.076770201E-1,-1.121635586E-1,9.690683371E0
2.733306615E0,9.667901039E0,-1.244267747E-1,-8.823533356E-2,9.669104302E0
2.735730052E0,9.675079346E0,-1.220339537E-1,-9.541380405E-2,9.676319364E0
2.738153438E0,9.677472115E0,-1.004985496E-1,-9.541380405E-2,9.678464252E0
2.740577031E0,9.682257652E0,-1.100698411E-1,-7.866404206E-2,9.683202809E0
2.743000521E0,9.687043190E0,-9.810572863E-2,-8.344969153E-2,9.687899378E0
2.745423854E0,9.694221497E0,-1.028913707E-1,-8.105687052E-2,9.695106357E0
2.747846719E0,9.679864883E0,-1.100698411E-1,-1.001994461E-1,9.681009217E0
2.750270469E0,9.684650421E0,-1.100698411E-1,-1.025922745E-1,9.685819239E0
2.752694531E0,9.670293808E0,-1.028913707E-1,-1.049850956E-1,9.671411005E0
2.755117604E0,9.675079346E0,-1.148554832E-1,-8.584251255E-2,9.676141848E0
2.757540781E0,9.672686577E0,-1.124626622E-1,-8.344969153E-2,9.673700291E0
2.759964531E0,9.665508270E0,-9.332008660E-2,-8.823533356E-2,9.666361479E0
2.762387813E0,9.689435959E0,-1.100698411E-1,-7.866404206E-2,9.690380416E0
2.764810886E0,9.691828728E0,-8.853443712E-2,-8.823533356E-2,9.692634725E0
2.767234584E0,9.679864883E0,-1.244267747E-1,-9.062815458E-2,9.681088763E0
2.769658438E0,9.665508270E0,-1.052841991E-1,-9.302098304E-2,9.666529252E0
2.772082448E0,9.665508270E0,-1.172483116E-1,-1.001994461E-1,9.666738706E0
2.774506250E0,9.696614265E0,-1.124626622E-1,-1.025922745E-1,9.697809095E0
2.776930573E0,9.694221497E0,-1.076770201E-1,-1.145563871E-1,9.695496270E0
2.779354271E0,9.670293808E0,-9.571290761E-2,-1.001994461E-1,9.671286534E0
2.781778229E0,9.684650421E0,-1.028913707E-1,-9.062815458E-2,9.685620986E0
2.784201198E0,9.665508270E0,-9.810572863E-2,-9.780662507E-2,9.666500969E0
2.786624688E0,9.665508270E0,-9.092725813E-2,-7.387840003E-2,9.666218284E0
2.789047865E0,9.670293808E0,-1.244267747E-1,-7.627122104E-2,9.671395021E0
2.791470625E0,9.689435959E0,-1.004985496E-1,-9.780662507E-2,9.690450727E0
2.793893281E0,9.684650421E0,-1.124626622E-1,-9.541380405E-2,9.685773352E0
2.796315834E0,9.679864883E0,-1.076770201E-1,-1.001994461E-1,9.680982307E0
2.798738646E0,9.646365166E0,-1.220339537E-1,-9.062815458E-2,9.647562732E0
2.801162656E0,9.679864883E0,-1.196411327E-1,-9.780662507E-2,9.681098300E0
2.803586042E0,9.694221497E0,-1.004985496E-1,-1.121635586E-1,9.695391227E0
2.806009584E0,9.675079346E0,-9.810572863E-2,-1.001994461E-1,9.676095546E0
2.808433021E0,9.682257652E0,-8.853443712E-2,-8.823533356E-2,9.683064446E0
2.810855834E0,9.679864883E0,-9.810572863E-2,-9.541380405E-2,9.680832231E0
2.813279375E0,9.677472115E0,-1.124626622E-1,-9.780662507E-2,9.678619763E0
2.815702761E0,9.682257652E0,-1.124626622E-1,-6.909275055E-2,9.683157280E0
2.818126771E0,9.679864883E0,-9.571290761E-2,-7.387840003E-2,9.680619977E0
2.820549792E0,9.667901039E0,-9.332008660E-2,-8.823533356E-2,9.668754036E0
2.822972969E0,9.684650421E0,-1.124626622E-1,-1.001994461E-1,9.685821677E0
2.825396146E0,9.655936241E0,-1.196411327E-1,-1.073779166E-1,9.657274393E0
2.827819948E0,9.665508270E0,-1.172483116E-1,-9.541380405E-2,9.666690286E0
2.830243021E0,9.677472115E0,-1.124626622E-1,-1.025922745E-1,9.678669307E0
2.832665781E0,9.665508270E0,-1.148554832E-1,-9.062815458E-2,9.666615507E0
2.835088906E0,9.665508270E0,-1.148554832E-1,-9.541380405E-2,9.666661559E0
2.837512136E0,9.689435959E0,-1.028913707E-1,-8.584251255E-2,9.690362469E0
2.839935573E0,9.682257652E0,-1.052841991E-1,-8.584251255E-2,9.683210570E0
2.842359375E0,9.663115501E0,-1.148554832E-1,-9.541380405E-2,9.664269076E0
2.844782709E0,9.651150703E0,-9.092725813E-2,-1.073779166E-1,9.652176319E0
2.847206771E0,9.675079346E0,-1.100698411E-1,-7.387840003E-2,9.675987481E0
2.849630052E0,9.665508270E0,-9.332008660E-2,-8.344969153E-2,9.666318979E0
2.852053281E0,9.682257652E0,-8.614161611E-2,-8.584251255E-2,9.683021355E0
2.854476406E0,9.701400757E0,-9.810572863E-2,-8.344969153E-2,9.702255677E0
2.856899584E0,9.665508270E0,-9.571290761E-2,-1.049850956E-1,9.666552279E0
2.859323021E0,9.665508270E0,-1.100698411E-1,-9.062815458E-2,9.666559830E0
2.861746406E0,9.675079346E0,-9.571290761E-2,-9.541380405E-2,9.676023207E0
2.864169688E0,9.675079346E0,-1.196411327E-1,-9.780662507E-2,9.676313372E0
2.866593177E0,9.670293808E0,-1.004985496E-1,-9.541380405E-2,9.671286682E0
2.869016354E0,9.675079346E0,-9.810572863E-2,-8.584251255E-2,9.675957525E0
2.871439688E0,9.684650421E0,-1.172483116E-1,-1.001994461E-1,9.685878426E0
2.873863386E0,9.682257652E0,-1.004985496E-1,-1.073779166E-1,9.683374578E0
2.876287136E0,9.663115501E0,-1.172483116E-1,-7.387840003E-2,9.664109187E0
2.878710365E0,9.677472115E0,-1.076770201E-1,-9.302098304E-2,9.678518160E0
2.881134063E0,9.665508270E0,-1.076770201E-1,-1.073779166E-1,9.666704427E0
2.883557344E0,9.679864883E0,-1.196411327E-1,-1.025922745E-1,9.681147832E0
2.885980677E0,9.689435959E0,-1.172483116E-1,-1.073779166E-1,9.690740239E0
2.888404011E0,9.682257652E0,-1.172483116E-1,-1.025922745E-1,9.683511015E0
2.890827188E0,9.677472115E0,-1.124626622E-1,-9.302098304E-2,9.678572585E0
2.893250261E0,9.658329964E0,-1.268195957E-1,-1.025922745E-1,9.659707349E0
2.895672969E0,9.655936241E0,-1.100698411E-1,-8.823533356E-2,9.656966684E0
2.898096250E0,9.646365166E0,-1.172483116E-1,-9.302098304E-2,9.647526159E0
2.900519896E0,9.672686577E0,-1.244267747E-1,-1.049850956E-1,9.674056518E0
2.902942865E0,9.663115501E0,-1.028913707E-1,-9.780662507E-2,9.664158213E0
2.905365469E0,9.675079346E0,-1.220339537E-1,-9.780662507E-2,9.676343254E0
2.907788542E0,9.677472115E0,-1.196411327E-1,-1.001994461E-1,9.678730312E0
2.910211667E0,9.687043190E0,-9.571290761E-2,-8.105687052E-2,9.687855126E0
2.912634531E0,9.689435959E0,-1.028913707E-1,-9.302098304E-2,9.690428718E0
2.915057604E0,9.672686577E0,-1.100698411E-1,-1.145563871E-1,9.673991118E0
2.917480834E0,9.677472115E0,-9.810572863E-2,-8.584251255E-2,9.678350076E0
2.919904584E0,9.670293808E0,-1.028913707E-1,-1.097707376E-1,9.671464138E0
2.922327292E0,9.660722733E0,-1.004985496E-1,-1.025922745E-1,9.661790147E0
2.924751302E0,9.665508270E0,-1.076770201E-1,-1.193420291E-1,9.666844727E0
2.927174531E0,9.675079346E0,-1.316052526E-1,-1.049850956E-1,9.676543916E0
2.929597865E0,9.672686577E0,-1.124626622E-1,-8.344969153E-2,9.673700291E0
2.932021198E0,9.667901039E0,-1.220339537E-1,-9.541380405E-2,9.669141978E0
2.934444479E0,9.653543472E0,-1.244267747E-1,-9.062815458E-2,9.654770689E0
2.936867396E0,9.660722733E0,-1.220339537E-1,-1.073779166E-1,9.662090147E0
2.939291146E0,9.679864883E0,-1.100698411E-1,-1.073779166E-1,9.681086176E0
2.941714740E0,9.667901039E0,-1.220339537E-1,-9.302098304E-2,9.669118662E0
2.944137240E0,9.672686577E0,-1.172483116E-1,-1.001994461E-1,9.673916100E0
2.946559844E0,9.687043190E0,-1.435693651E-1,-9.780662507E-2,9.688600728E0
2.948981875E0,9.696614265E0,-1.028913707E-1,-9.302098304E-2,9.697606290E0
2.951404323E0,9.701400757E0,-1.100698411E-1,-8.344969153E-2,9.702384030E0
2.953827292E0,9.675079346E0,-9.571290761E-2,-9.541380405E-2,9.676023207E0
2.956251094E0,9.677472115E0,-1.148554832E-1,-8.584251255E-2,9.678534354E0
2.958674427E0,9.660722733E0,-1.172483116E-1,-9.541380405E-2,9.661905334E0
2.961097448E0,9.679864883E0,-1.124626622E-1,-9.780662507E-2,9.681012248E0
2.963520313E0,9.689435959E0,-9.810572863E-2,-1.001994461E-1,9.690450653E0
2.965943021E0,9.689435959E0,-9.810572863E-2,-1.097707376E-1,9.690554347E0
2.968365886E0,9.677472115E0,-1.004985496E-1,-1.073779166E-1,9.678589593E0
2.970789115E0,9.675079346E0,-9.332008660E-2,-7.627122104E-2,9.675830005E0
2.973211667E0,9.665508270E0,-1.172483116E-1,-1.001994461E-1,9.666738706E0
2.975634688E0,9.672686577E0,-1.100698411E-1,-8.823533356E-2,9.673715236E0
2.978057865E0,9.694221497E0,-1.124626622E-1,-1.121635586E-1,9.695522623E0
2.980481615E0,9.684650421E0,-9.810572863E-2,-1.049850956E-1,9.685716307E0
2.982904948E0,9.675079346E0,-1.004985496E-1,-1.049850956E-1,9.676170843E0
2.985327969E0,9.679864883E0,-9.332008660E-2,-8.823533356E-2,9.680716826E0
2.987751094E0,9.677472115E0,-9.810572863E-2,-1.001994461E-1,9.678488063E0
2.990174688E0,9.694221497E0,-1.124626622E-1,-7.627122104E-2,9.695173829E0
2.992597448E0,9.672686577E0,-1.076770201E-1,-9.302098304E-2,9.673733140E0
2.995020729E0,9.684650421E0,-1.100698411E-1,-8.344969153E-2,9.685635395E0
2.997444011E0,9.687043190E0,-1.172483116E-1,-8.823533356E-2,9.688154541E0
2.999867448E0,9.672686577E0,-9.810572863E-2,-1.073779166E-1,9.673780045E0
3.002291459E0,9.677472115E0,-1.172483116E-1,-1.025922745E-1,9.678726097E0
3.004715469E0,9.663115501E0,-1.004985496E-1,-1.001994461E-1,9.664157546E0
3.007139063E0,9.658329964E0,-9.332008660E-2,-9.062815458E-2,9.659205961E0
3.009562188E0,9.696614265E0,-9.810572863E-2,-8.584251255E-2,9.697490494E0
3.011985573E0,9.699007034E0,-1.172483116E-1,-8.823533356E-2,9.700117014E0
3.014408646E0,9.663115501E0,-1.052841991E-1,-9.541380405E-2,9.664160064E0
3.016832084E0,9.663115501E0,-9.571290761E-2,-9.780662507E-2,9.664084452E0
3.019256406E0,9.677472115E0,-1.028913707E-1,-8.344969153E-2,9.678378842E0
3.021680000E0,9.687043190E0,-9.571290761E-2,-9.780662507E-2,9.688009747E0
3.024103021E0,9.684650421E0,-1.076770201E-1,-1.097707376E-1,9.685871036E0
3.026526146E0,9.672686577E0,-1.100698411E-1,-8.584251255E-2,9.673693706E0
3.028949063E0,9.682257652E0,-1.028913707E-1,-1.025922745E-1,9.683347823E0
3.031372604E0,9.641579628E0,-9.332008660E-2,-1.145563871E-1,9.642711731E0
3.033795677E0,9.663115501E0,-1.100698411E-1,-1.121635586E-1,9.664393267E0
3.036219063E0,9.665508270E0,-1.004985496E-1,-1.049850956E-1,9.666600848E0
3.038643334E0,9.675079346E0,-1.028913707E-1,-8.344969153E-2,9.675986298E0
3.041066823E0,9.667901039E0,-1.100698411E-1,-1.073779166E-1,9.669123843E0
3.043490625E0,9.672686577E0,-1.172483116E-1,-1.001994461E-1,9.673916100E0
3.045913750E0,9.675079346E0,-1.363908947E-1,-8.584251255E-2,9.676421434E0
3.048336459E0,9.679864883E0,-1.244267747E-1,-9.062815458E-2,9.681088763E0
3.050759740E0,9.658329964E0,-8.614161611E-2,-9.541380405E-2,9.659185362E0
3.053182656E0,9.691828728E0,-8.374879509E-2,-9.541380405E-2,9.692660199E0
3.055605156E0,9.675079346E0,-1.196411327E-1,-7.866404206E-2,9.676138816E0
3.058028386E0,9.667901039E0,-1.244267747E-1,-6.909275055E-2,9.668948564E0
3.060451719E0,9.682257652E0,-1.148554832E-1,-9.302098304E-2,9.683385665E0
3.062875677E0,9.675079346E0,-8.853443712E-2,-1.049850956E-1,9.676053977E0
3.065298386E0,9.689435959E0,-7.896314561E-2,-1.001994461E-1,9.690275760E0
3.067721615E0,9.672686577E0,-8.135596663E-2,-9.062815458E-2,9.673453255E0
3.070145104E0,9.684650421E0,-1.076770201E-1,-9.780662507E-2,9.685742835E0
3.072568386E0,9.670293808E0,-9.571290761E-2,-1.049850956E-1,9.671337300E0
3.074991563E0,9.675079346E0,-7.896314561E-2,-8.584251255E-2,9.675782369E0
3.077414896E0,9.670293808E0,-9.332008660E-2,-1.121635586E-1,9.671394503E0
3.079837969E0,9.684650421E0,-1.052841991E-1,-1.073779166E-1,9.685817909E0
3.082261250E0,9.665508270E0,-1.148554832E-1,-8.584251255E-2,9.666571825E0
3.084684063E0,9.651150703E0,-1.124626622E-1,-9.302098304E-2,9.652254175E0
3.087107396E0,9.675079346E0,-1.004985496E-1,-7.148557901E-2,9.675865361E0
3.089530521E0,9.684650421E0,-1.196411327E-1,-8.584251255E-2,9.685769805E0
3.091954063E0,9.684650421E0,-1.387837082E-1,-8.105687052E-2,9.685983941E0
3.094377031E0,9.663115501E0,-1.292124242E-1,-9.780662507E-2,9.664474284E0
3.096799740E0,9.675079346E0,-1.124626622E-1,-8.584251255E-2,9.676113741E0
3.099222969E0,9.672686577E0,-1.076770201E-1,-9.541380405E-2,9.673756445E0
3.101646615E0,9.682257652E0,-1.028913707E-1,-9.302098304E-2,9.683251147E0
3.104069948E0,9.708579063E0,-1.172483116E-1,-8.823533356E-2,9.709687949E0
3.106493281E0,9.699007034E0,-1.244267747E-1,-9.302098304E-2,9.700251150E0
3.108917136E0,9.689435959E0,-1.028913707E-1,-1.049850956E-1,9.690550950E0
3.111339792E0,9.672686577E0,-8.614161611E-2,-1.049850956E-1,9.673639846E0
3.113763646E0,9.665508270E0,-1.076770201E-1,-1.169492081E-1,9.666815483E0
3.116187344E0,9.665508270E0,-9.571290761E-2,-1.001994461E-1,9.666501488E0
3.118610417E0,9.663115501E0,-1.004985496E-1,-1.073779166E-1,9.664234640E0
3.121034063E0,9.665508270E0,-1.124626622E-1,-1.097707376E-1,9.666785794E0
3.123457344E0,9.670293808E0,-9.571290761E-2,-9.541380405E-2,9.671238136E0
3.125881042E0,9.667901039E0,-9.571290761E-2,-1.193420291E-1,9.669111334E0
3.128304531E0,9.679864883E0,-1.076770201E-1,-8.344969153E-2,9.680823434E0
3.130727552E0,9.672686577E0,-9.810572863E-2,-8.344969153E-2,9.673544035E0
3.133150834E0,9.658329964E0,-1.052841991E-1,-8.105687052E-2,9.659243897E0
3.135574219E0,9.663115501E0,-9.810572863E-2,-9.541380405E-2,9.664084526E0
3.137997552E0,9.660722733E0,-1.052841991E-1,-8.584251255E-2,9.661677774E0
3.140421459E0,9.687043190E0,-9.810572863E-2,-1.073779166E-1,9.688135038E0
3.142845313E0,9.694221497E0,-8.374879509E-2,-1.001994461E-1,9.695101042E0
3.145268854E0,9.658329964E0,-1.004985496E-1,-9.062815458E-2,9.659277981E0
3.147692500E0,9.684650421E0,-1.148554832E-1,-1.049850956E-1,9.685900445E0
3.150116771E0,9.665508270E0,-1.028913707E-1,-1.145563871E-1,9.666734708E0
3.152540625E0,9.660722733E0,-1.148554832E-1,-1.001994461E-1,9.661925037E0
3.154963959E0,9.679864883E0,-9.332008660E-2,-9.062815458E-2,9.680738932E0
3.157387552E0,9.689435959E0,-1.028913707E-1,-9.780662507E-2,9.690475838E0
3.159810834E0,9.677472115E0,-1.172483116E-1,-8.344969153E-2,9.678542119E0
3.162233698E0,9.684650421E0,-1.004985496E-1,-1.073779166E-1,9.685767071E0
3.164656927E0,9.665508270E0,-9.092725813E-2,-1.001994461E-1,9.666455287E0
3.167079636E0,9.682257652E0,-1.004985496E-1,-9.062815458E-2,9.683203327E0
3.169502604E0,9.670293808E0,-1.052841991E-1,-1.001994461E-1,9.671385993E0
3.171926042E0,9.667901039E0,-9.092725813E-2,-9.780662507E-2,9.668823321E0
3.174349479E0,9.679864883E0,-1.268195957E-1,-1.025922745E-1,9.681239205E0
3.176772240E0,9.679864883E0,-1.100698411E-1,-1.001994461E-1,9.681009217E0
3.179195313E0,9.682257652E0,-1.124626622E-1,-7.627122104E-2,9.683211161E0
3.181617656E0,9.679864883E0,-1.148554832E-1,-9.780662507E-2,9.681040341E0
3.184040677E0,9.672686577E0,-1.124626622E-1,-1.049850956E-1,9.673910033E0
3.186463490E0,9.655936241E0,-1.028913707E-1,-9.780662507E-2,9.656979728E0
3.188886615E0,9.665508270E0,-1.076770201E-1,-7.148557901E-2,9.666372363E0
3.191309896E0,9.675079346E0,-7.657032460E-2,-1.073779166E-1,9.675978161E0
3.193733177E0,9.691828728E0,-1.196411327E-1,-1.097707376E-1,9.693188727E0
3.196155729E0,9.687043190E0,-1.220339537E-1,-1.025922745E-1,9.688355032E0
3.198578594E0,9.703793526E0,-9.810572863E-2,-1.097707376E-1,9.704910259E0
3.201001563E0,9.667901039E0,-9.092725813E-2,-1.025922745E-1,9.668872915E0
3.203424948E0,9.682257652E0,-9.571290761E-2,-9.541380405E-2,9.683200814E0
3.205847813E0,9.691828728E0,-1.220339537E-1,-9.302098304E-2,9.693043344E0
3.208271771E0,9.675079346E0,-1.220339537E-1,-9.541380405E-2,9.676319364E0
3.210695000E0,9.703793526E0,-1.124626622E-1,-9.302098304E-2,9.704891011E0
3.213117813E0,9.677472115E0,-9.092725813E-2,-8.105687052E-2,9.678238709E0
3.215541302E0,9.687043190E0,-1.004985496E-1,-8.823533356E-2,9.687966309E0
3.217963854E0,9.672686577E0,-1.172483116E-1,-9.541380405E-2,9.673867715E0
3.220387344E0,9.667901039E0,-1.220339537E-1,-1.073779166E-1,9.669267439E0
3.222810781E0,9.679864883E0,-8.614161611E-2,-9.780662507E-2,9.680742258E0
3.225234219E0,9.691828728E0,-1.004985496E-1,-8.823533356E-2,9.692751391E0
3.227657292E0,9.682257652E0,-1.172483116E-1,-1.073779166E-1,9.683562900E0
3.230080625E0,9.675079346E0,-1.076770201E-1,-9.541380405E-2,9.676148949E0
3.232503959E0,9.677472115E0,-1.124626622E-1,-9.541380405E-2,9.678595878E0
3.234927188E0,9.672686577E0,-1.052841991E-1,-8.105687052E-2,9.673599154E0
3.237350417E0,9.694221497E0,-1.435693651E-1,-1.073779166E-1,9.695879156E0
3.239773959E0,9.694221497E0,-1.148554832E-1,-1.121635586E-1,9.695550674E0
3.242197292E0,9.689435959E0,-1.363908947E-1,-9.541380405E-2,9.690865569E0
3.244619792E0,9.672686577E0,-1.052841991E-1,-1.001994461E-1,9.673778492E0
3.247042344E0,9.672686577E0,-1.100698411E-1,-7.866404206E-2,9.673632669E0
3.249465834E0,9.670293808E0,-1.172483116E-1,-8.823533356E-2,9.671407083E0
3.251888646E0,9.660722733E0,-9.571290761E-2,-8.344969153E-2,9.661557252E0
3.254311667E0,9.670293808E0,-1.100698411E-1,-1.001994461E-1,9.671439274E0
3.256734792E0,9.708579063E0,-1.172483116E-1,-1.217348501E-1,9.710050153E0
3.259157865E0,9.651150703E0,-1.028913707E-1,-1.193420291E-1,9.652436949E0
3.261581823E0,9.660722733E0,-1.220339537E-1,-1.145563871E-1,9.662172590E0
3.264004896E0,9.646365166E0,-9.092725813E-2,-1.049850956E-1,9.647364954E0
3.266428177E0,9.655936241E0,-1.004985496E-1,-8.823533356E-2,9.656862333E0
3.268851250E0,9.675079346E0,-1.268195957E-1,-1.049850956E-1,9.676480012E0
3.271274740E0,9.679864883E0,-1.172483116E-1,-9.780662507E-2,9.681069025E0
3.273698438E0,9.636794090E0,-1.387837082E-1,-9.062815458E-2,9.638219479E0
3.276121719E0,9.677472115E0,-1.148554832E-1,-1.121635586E-1,9.678803592E0
3.278545104E0,9.684650421E0,-1.148554832E-1,-1.073779166E-1,9.685926676E0
3.280967969E0,9.675079346E0,-1.172483116E-1,-9.541380405E-2,9.676260192E0
3.283391563E0,9.679864883E0,-1.148554832E-1,-8.344969153E-2,9.680905939E0
3.285814896E0,9.682257652E0,-1.052841991E-1,-1.073779166E-1,9.683425428E0
3.288237917E0,9.701400757E0,-1.076770201E-1,-9.062815458E-2,9.702421576E0
3.290661563E0,9.710971832E0,-1.004985496E-1,-8.584251255E-2,9.711871232E0
3.293085209E0,9.699007034E0,-9.332008660E-2,-9.302098304E-2,9.699902009E0
3.295508698E0,9.689435959E0,-9.332008660E-2,-9.541380405E-2,9.690355083E0
3.297932344E0,9.687043190E0,-1.100698411E-1,-1.073779166E-1,9.688263578E0
3.300356198E0,9.684650421E0,-1.172483116E-1,-9.780662507E-2,9.685853968E0
3.302778802E0,9.679864883E0,-1.148554832E-1,-1.097707376E-1,9.681168605E0
3.305201563E0,9.684650421E0,-1.124626622E-1,-9.541380405E-2,9.685773352E0
3.307624323E0,9.699007034E0,-1.124626622E-1,-7.627122104E-2,9.699958897E0
3.310046823E0,9.660722733E0,-9.810572863E-2,-8.584251255E-2,9.661602216E0
3.312470313E0,9.665508270E0,-9.571290761E-2,-1.025922745E-1,9.666526587E0
3.314893906E0,9.665508270E0,-1.339980662E-1,-9.541380405E-2,9.666907954E0
3.317317448E0,9.699007034E0,-1.148554832E-1,-1.289133132E-1,9.700543690E0
3.319740573E0,9.694221497E0,-1.100698411E-1,-1.001994461E-1,9.695364136E0
3.322163959E0,9.691828728E0,-9.810572863E-2,-7.627122104E-2,9.692625347E0
3.324587292E0,9.672686577E0,-8.614161611E-2,-9.541380405E-2,9.673540706E0
3.327010313E0,9.672686577E0,-7.896314561E-2,-1.073779166E-1,9.673604851E0
3.329432813E0,9.670293808E0,-9.332008660E-2,-9.302098304E-2,9.671191440E0
3.331855417E0,9.677472115E0,-1.004985496E-1,-9.541380405E-2,9.678464252E0
3.334278542E0,9.677472115E0,-1.076770201E-1,-8.823533356E-2,9.678473348E0
3.336701406E0,9.682257652E0,-1.244267747E-1,-8.823533356E-2,9.683459131E0
3.339124271E0,9.679864883E0,-1.100698411E-1,-1.049850956E-1,9.681059932E0
3.341547865E0,9.684650421E0,-1.028913707E-1,-1.097707376E-1,9.685819017E0
3.343970938E0,9.660722733E0,-1.148554832E-1,-9.062815458E-2,9.661830518E0
3.346394115E0,9.667901039E0,-1.100698411E-1,-8.105687052E-2,9.668867363E0
3.348817552E0,9.694221497E0,-1.052841991E-1,-9.062815458E-2,9.695216792E0
3.351241875E0,9.677472115E0,-9.810572863E-2,-9.541380405E-2,9.678439702E0
3.353665729E0,9.677472115E0,-8.853443712E-2,-1.073779166E-1,9.678472756E0
3.356089531E0,9.682257652E0,-8.614161611E-2,-9.541380405E-2,9.683110937E0
3.358512813E0,9.643972397E0,-9.810572863E-2,-8.344969153E-2,9.644832408E0
3.360936354E0,9.658329964E0,-1.100698411E-1,-1.001994461E-1,9.659476848E0
3.363360313E0,9.689435959E0,-1.124626622E-1,-9.302098304E-2,9.690535071E0
3.365784323E0,9.675079346E0,-1.052841991E-1,-1.001994461E-1,9.676170990E0
3.368208125E0,9.677472115E0,-9.810572863E-2,-9.302098304E-2,9.678416408E0
3.370631198E0,9.675079346E0,-9.332008660E-2,-1.001994461E-1,9.676048207E0
3.373054688E0,9.684650421E0,-1.028913707E-1,-9.541380405E-2,9.685666947E0
3.375478438E0,9.672686577E0,-9.810572863E-2,-1.073779166E-1,9.673780045E0
3.377902500E0,9.663115501E0,-1.004985496E-1,-1.001994461E-1,9.664157546E0
3.380325469E0,9.643972397E0,-1.052841991E-1,-9.541380405E-2,9.645019033E0
3.382748542E0,9.670293808E0,-1.148554832E-1,-8.823533356E-2,9.671378371E0
3.385171094E0,9.665508270E0,-9.571290761E-2,-9.780662507E-2,9.666476981E0
3.387593906E0,9.696614265E0,-1.100698411E-1,-8.105687052E-2,9.697577728E0
3.390017292E0,9.684650421E0,-8.135596663E-2,-7.148557901E-2,9.685255947E0
3.392440990E0,9.689435959E0,-1.124626622E-1,-7.627122104E-2,9.690388762E0
3.394864479E0,9.682257652E0,-1.076770201E-1,-8.823533356E-2,9.683258391E0
3.397287240E0,9.682257652E0,-1.220339537E-1,-1.049850956E-1,9.683595789E0
3.399711042E0,9.687043190E0,-1.076770201E-1,-9.062815458E-2,9.688065522E0
3.402134948E0,9.660722733E0,-9.571290761E-2,-1.001994461E-1,9.661716442E0
3.404558073E0,9.689435959E0,-1.172483116E-1,-8.584251255E-2,9.690525543E0
3.406981042E0,9.677472115E0,-1.148554832E-1,-8.344969153E-2,9.678513427E0
3.409404740E0,9.696614265E0,-1.004985496E-1,-8.105687052E-2,9.697473815E0
3.411828229E0,9.689435959E0,-9.810572863E-2,-9.062815458E-2,9.690356412E0
3.414251823E0,9.677472115E0,-1.076770201E-1,-1.025922745E-1,9.678614882E0
3.416675781E0,9.679864883E0,-1.100698411E-1,-8.344969153E-2,9.680850344E0
3.419099271E0,9.675079346E0,-1.004985496E-1,-9.302098304E-2,9.676048429E0
3.421522396E0,9.696614265E0,-8.135596663E-2,-9.541380405E-2,9.697424957E0
3.423946042E0,9.682257652E0,-1.052841991E-1,-1.049850956E-1,9.683399190E0
3.426369323E0,9.672686577E0,-1.052841991E-1,-9.062815458E-2,9.673684088E0
3.428793542E0,9.675079346E0,-8.614161611E-2,-1.025922745E-1,9.676006712E0
3.431216823E0,9.651150703E0,-1.196411327E-1,-8.584251255E-2,9.652273972E0
3.433640209E0,9.679864883E0,-1.052841991E-1,-1.073779166E-1,9.681032948E0
3.436063698E0,9.658329964E0,-1.052841991E-1,-9.302098304E-2,9.659351705E0
3.438487188E0,9.658329964E0,-1.124626622E-1,-6.669992954E-2,9.659215000E0
3.440910781E0,9.660722733E0,-1.196411327E-1,-9.780662507E-2,9.661958593E0
3.443334584E0,9.677472115E0,-9.332008660E-2,-9.780662507E-2,9.678416260E0
3.445758177E0,9.691828728E0,-9.092725813E-2,-1.049850956E-1,9.692823826E0
3.448181354E0,9.694221497E0,-6.939185411E-2,-8.344969153E-2,9.694829009E0
3.450604688E0,9.670293808E0,-9.571290761E-2,-1.025922745E-1,9.671311621E0
3.453028229E0,9.667901039E0,-1.196411327E-1,-9.062815458E-2,9.669066034E0
3.455451927E0,9.665508270E0,-9.810572863E-2,-1.025922745E-1,9.666550576E0
3.457875052E0,9.684650421E0,-1.004985496E-1,-9.541380405E-2,9.685641823E0
3.460298334E0,9.672686577E0,-1.124626622E-1,-8.823533356E-2,9.673742758E0
3.462722344E0,9.670293808E0,-8.374879509E-2,-9.780662507E-2,9.671151034E0
3.465146198E0,9.684650421E0,-9.810572863E-2,-1.049850956E-1,9.685716307E0
3.467569792E0,9.677472115E0,-9.810572863E-2,-9.541380405E-2,9.678439702E0
3.469993802E0,9.663115501E0,-1.004985496E-1,-1.001994461E-1,9.664157546E0
3.472417396E0,9.670293808E0,-9.571290761E-2,-9.780662507E-2,9.671262039E0
3.474840990E0,9.660722733E0,-1.100698411E-1,-8.584251255E-2,9.661731109E0
3.477264584E0,9.665508270E0,-8.853443712E-2,-8.584251255E-2,9.666294916E0
3.479687917E0,9.670293808E0,-1.172483116E-1,-1.025922745E-1,9.671548722E0
3.482110938E0,9.682257652E0,-1.124626622E-1,-7.387840003E-2,9.683192610E0
3.484534063E0,9.682257652E0,-9.571290761E-2,-1.121635586E-1,9.683380343E0
3.486957136E0,9.663115501E0,-1.052841991E-1,-9.062815458E-2,9.664114001E0
3.489380052E0,9.672686577E0,-9.571290761E-2,-1.025922745E-1,9.673704138E0
3.491803490E0,9.665508270E0,-1.028913707E-1,-1.025922745E-1,9.666600330E0
3.494227344E0,9.699007034E0,-9.092725813E-2,-7.387840003E-2,9.699714596E0
3.496650156E0,9.660722733E0,-1.028913707E-1,-1.001994461E-1,9.661790221E0
3.499074063E0,9.679864883E0,-8.853443712E-2,-9.302098304E-2,9.680716679E0
3.501498125E0,9.675079346E0,-1.004985496E-1,-9.541380405E-2,9.676071729E0
3.503921511E0,9.667901039E0,-1.196411327E-1,-9.780662507E-2,9.669135982E0
3.506344896E0,9.687043190E0,-1.220339537E-1,-6.430710852E-2,9.688025261E0
3.508768490E0,9.670293808E0,-8.853443712E-2,-9.062815458E-2,9.671123727E0
3.511191406E0,9.665508270E0,-9.571290761E-2,-9.780662507E-2,9.666476981E0
3.513615104E0,9.689435959E0,-1.100698411E-1,-8.105687052E-2,9.690400136E0
3.516038177E0,9.675079346E0,-1.124626622E-1,-8.344969153E-2,9.676092809E0
3.518460886E0,9.694221497E0,-9.571290761E-2,-1.025922745E-1,9.695236798E0
3.520883229E0,9.675079346E0,-9.810572863E-2,-1.097707376E-1,9.676199393E0
3.523306511E0,9.675079346E0,-8.614161611E-2,-1.025922745E-1,9.676006712E0
3.525730261E0,9.667901039E0,-1.172483116E-1,-1.001994461E-1,9.669131171E0
3.528153698E0,9.684650421E0,-9.092725813E-2,-8.584251255E-2,9.685457681E0
3.530577344E0,9.677472115E0,-9.332008660E-2,-1.001994461E-1,9.678440737E0
3.533001094E0,9.675079346E0,-1.004985496E-1,-8.344969153E-2,9.675961149E0
3.535425573E0,9.672686577E0,-1.196411327E-1,-9.780662507E-2,9.673920909E0
3.537849375E0,9.670293808E0,-1.052841991E-1,-9.541380405E-2,9.671337596E0
3.540273073E0,9.689435959E0,-9.810572863E-2,-9.302098304E-2,9.690379086E0
3.542697448E0,9.660722733E0,-1.292124242E-1,-1.121635586E-1,9.662237848E0
3.545120834E0,9.677472115E0,-1.004985496E-1,-8.584251255E-2,9.678374627E0
3.547543959E0,9.677472115E0,-1.076770201E-1,-8.823533356E-2,9.678473348E0
3.549967344E0,9.675079346E0,-1.220339537E-1,-1.097707376E-1,9.676471580E0
3.552391354E0,9.660722733E0,-1.028913707E-1,-9.062815458E-2,9.661695701E0
3.554815209E0,9.667901039E0,-1.148554832E-1,-8.823533356E-2,9.668985870E0
3.557238177E0,9.687043190E0,-1.052841991E-1,-9.780662507E-2,9.688109034E0
3.559661667E0,9.687043190E0,-1.004985496E-1,-1.097707376E-1,9.688186380E0
3.562085834E0,9.663115501E0,-9.810572863E-2,-1.001994461E-1,9.664132959E0
3.564509688E0,9.658329964E0,-1.172483116E-1,-8.584251255E-2,9.659423057E0
3.566932813E0,9.691828728E0,-1.076770201E-1,-6.909275055E-2,9.692673121E0
3.569356146E0,9.689435959E0,-1.076770201E-1,-9.780662507E-2,9.690527833E0
3.571779896E0,9.725328445E0,-1.148554832E-1,-1.001994461E-1,9.726522764E0
3.574203802E0,9.689435959E0,-7.657032460E-2,-8.584251255E-2,9.690118738E0
3.576627656E0,9.682257652E0,-9.810572863E-2,-8.344969153E-2,9.683114263E0
3.579051146E0,9.699007034E0,-1.148554832E-1,-9.302098304E-2,9.700133099E0
3.581474011E0,9.689435959E0,-1.268195957E-1,-9.541380405E-2,9.690735586E0
3.583896875E0,9.677472115E0,-1.244267747E-1,-8.823533356E-2,9.678674187E0
3.586319896E0,9.675079346E0,-9.332008660E-2,-9.302098304E-2,9.675976534E0
3.588742656E0,9.675079346E0,-8.614161611E-2,-8.823533356E-2,9.675865139E0
3.591165469E0,9.679864883E0,-1.220339537E-1,-8.584251255E-2,9.681014688E0
3.593589011E0,9.689435959E0,-1.028913707E-1,-1.145563871E-1,9.690659369E0
3.596012448E0,9.679864883E0,-9.571290761E-2,-8.584251255E-2,9.680718675E0
3.598436302E0,9.684650421E0,-1.076770201E-1,-9.780662507E-2,9.685742835E0
3.600859896E0,9.679864883E0,-9.810572863E-2,-1.025922745E-1,9.680905643E0
3.603283229E0,9.687043190E0,-1.196411327E-1,-1.001994461E-1,9.688300145E0
3.605705834E0,9.684650421E0,-1.339980662E-1,-1.073779166E-1,9.686172581E0
3.608128750E0,9.684650421E0,-1.124626622E-1,-8.823533356E-2,9.685705297E0
3.610551875E0,9.684650421E0,-1.124626622E-1,-9.541380405E-2,9.685773352E0
3.612974948E0,9.667901039E0,-1.172483116E-1,-9.780662507E-2,9.669106670E0
3.615397552E0,9.658329964E0,-8.374879509E-2,-9.302098304E-2,9.659140979E0
3.617821198E0,9.672686577E0,-1.004985496E-1,-1.049850956E-1,9.673778344E0
3.620244531E0,9.665508270E0,-1.076770201E-1,-8.823533356E-2,9.666510743E0
3.622668542E0,9.665508270E0,-1.124626622E-1,-8.584251255E-2,9.666543690E0
3.625091719E0,9.675079346E0,-9.571290761E-2,-9.780662507E-2,9.676047098E0
3.627515052E0,9.655936241E0,-9.810572863E-2,-1.193420291E-1,9.657172047E0
3.629938021E0,9.682257652E0,-1.076770201E-1,-7.866404206E-2,9.683175906E0
3.632360938E0,9.679864883E0,-1.244267747E-1,-8.105687052E-2,9.681003894E0
3.634784479E0,9.667901039E0,-1.028913707E-1,-1.097707376E-1,9.669071659E0
3.637207917E0,9.667901039E0,-1.220339537E-1,-9.062815458E-2,9.669095938E0
3.639630990E0,9.670293808E0,-9.092725813E-2,-8.344969153E-2,9.671081323E0
3.642053802E0,9.672686577E0,-1.124626622E-1,-9.302098304E-2,9.673787592E0
3.644476875E0,9.687043190E0,-9.571290761E-2,-8.823533356E-2,9.687917846E0
3.646899792E0,9.684650421E0,-1.052841991E-1,-9.302098304E-2,9.685669386E0
3.649322813E0,9.682257652E0,-1.316052526E-1,-1.073779166E-1,9.683747374E0
3.651746146E0,9.672686577E0,-9.571290761E-2,-9.780662507E-2,9.673654568E0
3.654169792E0,9.682257652E0,-9.332008660E-2,-1.121635586E-1,9.683356988E0
3.656593698E0,9.689435959E0,-1.124626622E-1,-9.302098304E-2,9.690535071E0
3.659017604E0,9.677472115E0,-1.052841991E-1,-1.001994461E-1,9.678563489E0
3.661440729E0,9.660722733E0,-1.339980662E-1,-1.193420291E-1,9.662389027E0
3.663864375E0,9.658329964E0,-1.100698411E-1,-1.001994461E-1,9.659476848E0
3.666287448E0,9.689435959E0,-1.052841991E-1,-1.049850956E-1,9.690576651E0
3.668710365E0,9.667901039E0,-9.810572863E-2,-9.302098304E-2,9.668846267E0
3.671134167E0,9.660722733E0,-1.124626622E-1,-1.097707376E-1,9.662000889E0
3.673557552E0,9.675079346E0,-9.092725813E-2,-9.062815458E-2,9.675931044E0
3.675980834E0,9.667901039E0,-1.172483116E-1,-1.025922745E-1,9.669156263E0
3.678404375E0,9.687043190E0,-1.076770201E-1,-1.025922745E-1,9.688184829E0
3.680827761E0,9.682257652E0,-1.124626622E-1,-1.073779166E-1,9.683506137E0
3.683250677E0,9.653543472E0,-9.810572863E-2,-1.145563871E-1,9.654721615E0
3.685674531E0,9.689435959E0,-9.332008660E-2,-1.025922745E-1,9.690428423E0
3.688098281E0,9.670293808E0,-1.172483116E-1,-1.001994461E-1,9.671523635E0
3.690521771E0,9.703793526E0,-1.052841991E-1,-1.025922745E-1,9.704906941E0
3.692945313E0,9.653543472E0,-1.004985496E-1,-1.025922745E-1,9.654611681E0
3.695369375E0,9.679864883E0,-1.076770201E-1,-1.145563871E-1,9.681141548E0
3.697793229E0,9.696614265E0,-1.220339537E-1,-1.049850956E-1,9.697950421E0
3.700215938E0,9.663115501E0,-9.810572863E-2,-9.541380405E-2,9.664084526E0
3.702638334E0,9.660722733E0,-1.244267747E-1,-1.049850956E-1,9.662094370E0
3.705061459E0,9.672686577E0,-1.148554832E-1,-1.049850956E-1,9.673938147E0
3.707484531E0,9.667901039E0,-1.124626622E-1,-1.025922745E-1,9.669099417E0
3.709907761E0,9.691828728E0,-1.052841991E-1,-9.062815458E-2,9.692824269E0
3.712331042E0,9.655936241E0,-9.571290761E-2,-8.584251255E-2,9.656792148E0
3.714754219E0,9.682257652E0,-1.196411327E-1,-9.302098304E-2,9.683443610E0
3.717177396E0,9.679864883E0,-1.124626622E-1,-1.001994461E-1,9.681036718E0
3.719600781E0,9.701400757E0,-9.332008660E-2,-9.062815458E-2,9.702272865E0
3.722024323E0,9.684650421E0,-1.052841991E-1,-1.049850956E-1,9.685791677E0
3.724447917E0,9.670293808E0,-9.810572863E-2,-8.823533356E-2,9.671193956E0
3.726871146E0,9.665508270E0,-8.614161611E-2,-1.001994461E-1,9.666411456E0
3.729294636E0,9.694221497E0,-9.092725813E-2,-9.780662507E-2,9.695141274E0
3.731717917E0,9.703793526E0,-1.339980662E-1,-8.823533356E-2,9.705119770E0
3.734141719E0,9.658329964E0,-1.292124242E-1,-9.062815458E-2,9.659619402E0
3.736564636E0,9.679864883E0,-1.052841991E-1,-8.584251255E-2,9.680818037E0
3.738988646E0,9.672686577E0,-9.810572863E-2,-8.105687052E-2,9.673523689E0
3.741412500E0,9.689435959E0,-1.076770201E-1,-8.584251255E-2,9.690414464E0
3.743836406E0,9.677472115E0,-1.076770201E-1,-1.025922745E-1,9.678614882E0
3.746259584E0,9.706186295E0,-1.052841991E-1,-1.049850956E-1,9.707325019E0
3.748683125E0,9.670293808E0,-1.148554832E-1,-8.584251255E-2,9.671356836E0
3.751106459E0,9.667901039E0,-1.148554832E-1,-9.780662507E-2,9.669077951E0
3.753529844E0,9.667901039E0,-1.052841991E-1,-1.169492081E-1,9.669181578E0
3.755953021E0,9.677472115E0,-1.316052526E-1,-1.025922745E-1,9.678910664E0
3.758376667E0,9.665508270E0,-1.292124242E-1,-1.073779166E-1,9.666968294E0
3.760799792E0,9.658329964E0,-1.076770201E-1,-9.541380405E-2,9.659401422E0
3.763222813E0,9.682257652E0,-9.571290761E-2,-1.049850956E-1,9.683299855E0
3.765646146E0,9.667901039E0,-1.076770201E-1,-8.823533356E-2,9.668903263E0
3.768069375E0,9.675079346E0,-1.196411327E-1,-1.025922745E-1,9.676362928E0
3.770492136E0,9.689435959E0,-1.172483116E-1,-9.541380405E-2,9.690615056E0
3.772915365E0,9.660722733E0,-1.004985496E-1,-7.627122104E-2,9.661546510E0
3.775338334E0,9.663115501E0,-1.004985496E-1,-1.025922745E-1,9.664182652E0
3.777760938E0,9.675079346E0,-1.124626622E-1,-1.073779166E-1,9.676328757E0
3.780183854E0,9.682257652E0,-9.571290761E-2,-7.866404206E-2,9.683050255E0
3.782606927E0,9.699007034E0,-1.100698411E-1,-1.001994461E-1,9.700149110E0
3.785030313E0,9.670293808E0,-9.571290761E-2,-9.062815458E-2,9.671192106E0
3.787453490E0,9.708579063E0,-1.220339537E-1,-8.344969153E-2,9.709704608E0
3.789877188E0,9.708579063E0,-1.052841991E-1,-1.121635586E-1,9.709797776E0
3.792300521E0,9.689435959E0,-9.332008660E-2,-9.302098304E-2,9.690331818E0
3.794724219E0,9.660722733E0,-1.100698411E-1,-9.541380405E-2,9.661820888E0
3.797147865E0,9.675079346E0,-1.220339537E-1,-8.823533356E-2,9.676251242E0
3.799571198E0,9.665508270E0,-1.052841991E-1,-1.001994461E-1,9.666600996E0
3.801994375E0,9.677472115E0,-8.614161611E-2,-1.145563871E-1,9.678533467E0
3.804418125E0,9.643972397E0,-1.172483116E-1,-1.193420291E-1,9.645423437E0
3.806841719E0,9.684650421E0,-1.124626622E-1,-1.025922745E-1,9.685846726E0
3.809265781E0,9.660722733E0,-8.614161611E-2,-9.302098304E-2,9.661554585E0
3.811688854E0,9.694221497E0,-1.292124242E-1,-8.823533356E-2,9.695484091E0
3.814111719E0,9.672686577E0,-1.076770201E-1,-9.780662507E-2,9.673780341E0
3.816534375E0,9.679864883E0,-9.571290761E-2,-9.302098304E-2,9.680784990E0
3.818957136E0,9.691828728E0,-9.332008660E-2,-1.001994461E-1,9.692795915E0
3.821380521E0,9.679864883E0,-1.268195957E-1,-1.241276711E-1,9.681491365E0
3.823803281E0,9.667901039E0,-1.148554832E-1,-1.025922745E-1,9.669127544E0
3.826225938E0,9.670293808E0,-9.571290761E-2,-8.344969153E-2,9.671127501E0
3.828649271E0,9.665508270E0,-1.076770201E-1,-8.344969153E-2,9.666468244E0
3.831072656E0,9.675079346E0,-1.100698411E-1,-9.302098304E-2,9.676152573E0
3.833495677E0,9.677472115E0,-1.268195957E-1,-6.669992954E-2,9.678532875E0
3.835919219E0,9.660722733E0,-1.028913707E-1,-9.062815458E-2,9.661695701E0
3.838342240E0,9.653543472E0,-1.172483116E-1,-1.001994461E-1,9.654775433E0
3.840765209E0,9.670293808E0,-1.292124242E-1,-8.584251255E-2,9.671537991E0
3.843188646E0,9.677472115E0,-1.196411327E-1,-1.217348501E-1,9.678977214E0
3.845612292E0,9.672686577E0,-1.052841991E-1,-1.001994461E-1,9.673778492E0
3.848036511E0,9.672686577E0,-1.148554832E-1,-9.541380405E-2,9.673839010E0
3.850460677E0,9.691828728E0,-1.076770201E-1,-9.062815458E-2,9.692850555E0
3.852884167E0,9.672686577E0,-1.028913707E-1,-9.302098304E-2,9.673681055E0
3.855307604E0,9.677472115E0,-9.810572863E-2,-1.145563871E-1,9.678647345E0
3.857730834E0,9.660722733E0,-1.220339537E-1,-8.584251255E-2,9.661874815E0
3.860153802E0,9.699007034E0,-9.332008660E-2,-8.105687052E-2,9.699794653E0
3.862576719E0,9.672686577E0,-1.076770201E-1,-1.097707376E-1,9.673908702E0
3.865000313E0,9.679864883E0,-1.316052526E-1,-8.823533356E-2,9.681161582E0
3.867424375E0,9.672686577E0,-1.004985496E-1,-1.073779166E-1,9.673804608E0
3.869847448E0,9.665508270E0,-1.004985496E-1,-1.097707376E-1,9.666654007E0
3.872271198E0,9.691828728E0,-1.052841991E-1,-1.049850956E-1,9.692969139E0
3.874694740E0,9.670293808E0,-1.004985496E-1,-1.049850956E-1,9.671385845E0
3.877118125E0,9.672686577E0,-1.028913707E-1,-1.097707376E-1,9.673856618E0
3.879541667E0,9.643972397E0,-9.092725813E-2,-9.541380405E-2,9.644872998E0
3.881964896E0,9.691828728E0,-9.332008660E-2,-9.302098304E-2,9.692724366E0
3.884388073E0,9.706186295E0,-9.092725813E-2,-9.062815458E-2,9.707035264E0
3.886811615E0,9.677472115E0,-9.810572863E-2,-9.062815458E-2,9.678393706E0
3.889235156E0,9.675079346E0,-9.810572863E-2,-8.823533356E-2,9.675979049E0
3.891658542E0,9.682257652E0,-9.571290761E-2,-7.866404206E-2,9.683050255E0
3.894081719E0,9.684650421E0,-1.028913707E-1,-9.541380405E-2,9.685666947E0
3.896504740E0,9.660722733E0,-1.004985496E-1,-9.302098304E-2,9.661693256E0
3.898927865E0,9.658329964E0,-1.028913707E-1,-9.780662507E-2,9.659373192E0
3.901350938E0,9.663115501E0,-1.148554832E-1,-9.541380405E-2,9.664269076E0
3.903774115E0,9.691828728E0,-1.028913707E-1,-9.541380405E-2,9.692844501E0
3.906196459E0,9.665508270E0,-1.172483116E-1,-1.073779166E-1,9.666815779E0
3.908619011E0,9.660722733E0,-1.363908947E-1,-9.780662507E-2,9.662180516E0
3.911041823E0,9.682257652E0,-1.196411327E-1,-9.780662507E-2,9.683490764E0
3.913464636E0,9.672686577E0,-1.100698411E-1,-8.823533356E-2,9.673715236E0
3.915888021E0,9.687043190E0,-1.292124242E-1,-1.073779166E-1,9.688499968E0
3.918310781E0,9.682257652E0,-1.004985496E-1,-8.344969153E-2,9.683138802E0
3.920733854E0,9.663115501E0,-1.052841991E-1,-9.302098304E-2,9.664136736E0
3.923157500E0,9.682257652E0,-1.244267747E-1,-1.001994461E-1,9.683575538E0
3.925581511E0,9.679864883E0,-1.148554832E-1,-9.780662507E-2,9.681040341E0
3.928004844E0,9.682257652E0,-1.148554832E-1,-1.001994461E-1,9.683457283E0
3.930428021E0,9.689435959E0,-1.148554832E-1,-9.302098304E-2,9.690563136E0
3.932851354E0,9.663115501E0,-1.076770201E-1,-1.025922745E-1,9.664259967E0
3.935274896E0,9.682257652E0,-1.052841991E-1,-9.062815458E-2,9.683254178E0
