"Time (s)","Acceleration x (m/s^2)","Acceleration y (m/s^2)","Acceleration z (m/s^2)"
2.975637400E-2,-1.325025558E-1,-1.453639716E-1,9.868598938E0
3.220147900E-2,-1.301097274E-1,-1.238285750E-1,9.885348320E0
3.464491600E-2,-1.372881979E-1,-1.357926875E-1,9.894919395E0
3.708923900E-2,-1.277169138E-1,-1.480558962E-1,9.890133858E0
3.958267600E-2,-1.396810263E-1,-1.357926875E-1,9.870991707E0
4.202621800E-2,-1.396810263E-1,-1.357926875E-1,9.870991707E0
4.442293700E-2,-1.181456149E-1,-1.405783296E-1,9.878170013E0
4.686642600E-2,-1.205384433E-1,-1.310070455E-1,9.890133858E0
4.931080100E-2,-1.301097274E-1,-1.310070455E-1,9.866206169E0
5.175590600E-2,-1.277169138E-1,-1.381855011E-1,9.897313118E0
5.420022900E-2,-1.372881979E-1,-1.142572835E-1,9.897313118E0
5.664366600E-2,-1.420738399E-1,-1.480558962E-1,9.873384476E0
5.908804100E-2,-1.444666684E-1,-1.381855011E-1,9.882955551E0
6.153314500E-2,-1.372881979E-1,-1.286142170E-1,9.887741089E0
6.397741600E-2,-1.444666684E-1,-1.357926875E-1,9.880562782E0
6.642090600E-2,-1.348953694E-1,-1.142572835E-1,9.868598938E0
6.886522900E-2,-1.205384433E-1,-1.310070455E-1,9.878170013E0
7.131033300E-2,-1.205384433E-1,-1.238285750E-1,9.870991707E0
7.375465600E-2,-1.301097274E-1,-1.357926875E-1,9.899705887E0
7.619809300E-2,-1.325025558E-1,-1.453639716E-1,9.880562782E0
7.864246800E-2,-1.325025558E-1,-1.357926875E-1,9.863813400E0
8.108757200E-2,-1.229312643E-1,-1.357926875E-1,9.861420631E0
8.353184300E-2,-1.229312643E-1,-1.381855011E-1,9.897313118E0
8.597533300E-2,-1.492523104E-1,-1.453639716E-1,9.894919395E0
8.841970800E-2,-1.348953694E-1,-1.262213886E-1,9.873384476E0
9.086476000E-2,-1.277169138E-1,-1.238285750E-1,9.887741089E0
9.330908300E-2,-1.277169138E-1,-1.381855011E-1,9.890133858E0
9.575252000E-2,-1.468594968E-1,-1.528415531E-1,9.866206169E0
9.819689500E-2,-1.205384433E-1,-1.262213886E-1,9.856635094E0
1.006419990E-1,-1.277169138E-1,-1.214357466E-1,9.868598938E0
1.030863220E-1,-1.372881979E-1,-1.286142170E-1,9.899705887E0
1.055297600E-1,-1.420738399E-1,-1.310070455E-1,9.875777245E0
1.079741350E-1,-1.325025558E-1,-1.310070455E-1,9.885348320E0
1.104192390E-1,-1.157527938E-1,-1.262213886E-1,9.882955551E0
1.128635100E-1,-1.325025558E-1,-1.504487246E-1,9.899705887E0
1.153069990E-1,-1.301097274E-1,-1.429711580E-1,9.892526627E0
1.177513220E-1,-1.396810263E-1,-1.262213886E-1,9.866206169E0
1.201964260E-1,-1.492523104E-1,-1.600200087E-1,9.868598938E0
1.226407490E-1,-1.468594968E-1,-1.453639716E-1,9.897313118E0
1.250841870E-1,-1.277169138E-1,-1.405783296E-1,9.899705887E0
1.275285620E-1,-1.277169138E-1,-1.214357466E-1,9.856635094E0
1.299736660E-1,-1.301097274E-1,-1.238285750E-1,9.878170013E0
1.324179890E-1,-1.301097274E-1,-1.453639716E-1,9.887741089E0
1.348614260E-1,-1.372881979E-1,-1.480558962E-1,9.899705887E0
1.373058010E-1,-1.301097274E-1,-1.453639716E-1,9.868598938E0
1.397508540E-1,-1.229312643E-1,-1.405783296E-1,9.870991707E0
1.421951760E-1,-1.372881979E-1,-1.480558962E-1,9.892526627E0
1.446386660E-1,-1.277169138E-1,-1.310070455E-1,9.906884193E0
1.470829890E-1,-1.372881979E-1,-1.405783296E-1,9.897313118E0
1.495280930E-1,-1.372881979E-1,-1.357926875E-1,9.870991707E0
1.519724160E-1,-1.396810263E-1,-1.381855011E-1,9.875777245E0
1.544158540E-1,-1.420738399E-1,-1.357926875E-1,9.902098656E0
1.568602290E-1,-1.396810263E-1,-1.429711580E-1,9.885348320E0
1.593053330E-1,-1.277169138E-1,-1.429711580E-1,9.866206169E0
1.617496040E-1,-1.372881979E-1,-1.552343667E-1,9.890133858E0
1.641930930E-1,-1.348953694E-1,-1.453639716E-1,9.909276962E0
1.666374160E-1,-1.277169138E-1,-1.310070455E-1,9.880562782E0
1.690825200E-1,-1.325025558E-1,-1.262213886E-1,9.878170013E0
1.715268430E-1,-1.301097274E-1,-1.310070455E-1,9.861420631E0
1.739702810E-1,-1.229312643E-1,-1.624128371E-1,9.882955551E0
1.764146560E-1,-1.420738399E-1,-1.405783296E-1,9.882955551E0
1.788597600E-1,-1.444666684E-1,-1.453639716E-1,9.856635094E0
1.813040830E-1,-1.277169138E-1,-1.552343667E-1,9.875777245E0
1.837475200E-1,-1.253240854E-1,-1.310070455E-1,9.897313118E0
1.861918950E-1,-1.205384433E-1,-1.357926875E-1,9.887741089E0
1.886369990E-1,-1.205384433E-1,-1.262213886E-1,9.870991707E0
1.910812700E-1,-1.396810263E-1,-1.453639716E-1,9.873384476E0
1.935247600E-1,-1.205384433E-1,-1.262213886E-1,9.882955551E0
1.959690830E-1,-1.253240854E-1,-1.310070455E-1,9.904491425E0
1.984141870E-1,-1.372881979E-1,-1.357926875E-1,9.873384476E0
2.008585100E-1,-1.325025558E-1,-1.552343667E-1,9.897313118E0
2.033019470E-1,-1.444666684E-1,-1.357926875E-1,9.899705887E0
2.057463220E-1,-1.277169138E-1,-1.333998591E-1,9.880562782E0
2.081914260E-1,-1.540379524E-1,-1.429711580E-1,9.882955551E0
2.106356970E-1,-1.133599728E-1,-1.262213886E-1,9.882955551E0
2.130791870E-1,-1.372881979E-1,-1.357926875E-1,9.906884193E0
2.155235620E-1,-1.325025558E-1,-1.429711580E-1,9.890133858E0
2.179686140E-1,-1.277169138E-1,-1.453639716E-1,9.859027863E0
2.204129370E-1,-1.420738399E-1,-1.357926875E-1,9.885348320E0
2.228564260E-1,-1.253240854E-1,-1.480558962E-1,9.887741089E0
2.253007490E-1,-1.229312643E-1,-1.310070455E-1,9.873384476E0
2.277458540E-1,-1.348953694E-1,-1.214357466E-1,9.890133858E0
2.301901760E-1,-1.205384433E-1,-1.381855011E-1,9.885348320E0
2.326336140E-1,-1.492523104E-1,-1.429711580E-1,9.878170013E0
2.350779890E-1,-1.468594968E-1,-1.429711580E-1,9.899705887E0
2.375230930E-1,-1.564307809E-1,-1.286142170E-1,9.892526627E0
2.399673640E-1,-1.396810263E-1,-1.480558962E-1,9.890133858E0
2.424108540E-1,-1.396810263E-1,-1.286142170E-1,9.892526627E0
2.448551760E-1,-1.157527938E-1,-1.429711580E-1,9.878170013E0
2.473002810E-1,-1.253240854E-1,-1.310070455E-1,9.870991707E0
2.497446040E-1,-1.516451389E-1,-1.381855011E-1,9.885348320E0
2.521880410E-1,-1.492523104E-1,-1.286142170E-1,9.875777245E0
2.546324160E-1,-1.229312643E-1,-1.480558962E-1,9.899705887E0
2.570775200E-1,-1.372881979E-1,-1.381855011E-1,9.885348320E0
2.595218430E-1,-1.109671518E-1,-1.310070455E-1,9.873384476E0
2.619652810E-1,-1.229312643E-1,-1.405783296E-1,9.892526627E0
2.644096560E-1,-1.229312643E-1,-1.310070455E-1,9.873384476E0
2.668547600E-1,-1.205384433E-1,-1.333998591E-1,9.885348320E0
2.692990310E-1,-1.205384433E-1,-1.405783296E-1,9.878170013E0
2.717425200E-1,-1.325025558E-1,-1.262213886E-1,9.887741089E0
2.741868430E-1,-1.157527938E-1,-1.429711580E-1,9.885348320E0
2.766319470E-1,-1.157527938E-1,-1.405783296E-1,9.875777245E0
2.790762700E-1,-1.444666684E-1,-1.381855011E-1,9.861420631E0
2.815197080E-1,-1.325025558E-1,-1.310070455E-1,9.882955551E0
2.839640830E-1,-1.396810263E-1,-1.310070455E-1,9.902098656E0
2.864091870E-1,-1.492523104E-1,-1.286142170E-1,9.897313118E0
2.888534580E-1,-1.444666684E-1,-1.238285750E-1,9.887741089E0
2.912969470E-1,-1.253240854E-1,-1.310070455E-1,9.902098656E0
2.937413220E-1,-1.181456149E-1,-1.480558962E-1,9.880562782E0
2.961863740E-1,-1.133599728E-1,-1.528415531E-1,9.875777245E0
2.986306970E-1,-1.540379524E-1,-1.166501045E-1,9.866206169E0
3.010741350E-1,-1.301097274E-1,-1.286142170E-1,9.878170013E0
3.035185100E-1,-1.253240854E-1,-1.405783296E-1,9.887741089E0
3.059636140E-1,-1.372881979E-1,-1.429711580E-1,9.904491425E0
3.084079370E-1,-1.133599728E-1,-1.310070455E-1,9.866206169E0
3.108513740E-1,-1.396810263E-1,-1.286142170E-1,9.882955551E0
3.132957490E-1,-1.109671518E-1,-1.333998591E-1,9.904491425E0
3.157408540E-1,-1.301097274E-1,-1.357926875E-1,9.868598938E0
3.181851240E-1,-1.157527938E-1,-1.576271951E-1,9.868598938E0
3.206286140E-1,-1.301097274E-1,-1.453639716E-1,9.887741089E0
3.230729370E-1,-1.372881979E-1,-1.166501045E-1,9.897313118E0
3.255180410E-1,-1.229312643E-1,-1.480558962E-1,9.899705887E0
3.279623640E-1,-1.277169138E-1,-1.190429255E-1,9.878170013E0
3.304058010E-1,-1.492523104E-1,-1.286142170E-1,9.887741089E0
3.328501760E-1,-1.277169138E-1,-1.453639716E-1,9.892526627E0
3.352952810E-1,-1.420738399E-1,-1.480558962E-1,9.875777245E0
3.377396040E-1,-1.348953694E-1,-1.286142170E-1,9.882955551E0
3.401830410E-1,-1.109671518E-1,-1.453639716E-1,9.885348320E0
3.426274160E-1,-1.253240854E-1,-1.286142170E-1,9.882955551E0
3.450724680E-1,-1.420738399E-1,-1.405783296E-1,9.878170013E0
3.475167910E-1,-1.372881979E-1,-1.429711580E-1,9.875777245E0
3.499602810E-1,-1.229312643E-1,-1.190429255E-1,9.861420631E0
3.524046040E-1,-1.325025558E-1,-1.333998591E-1,9.873384476E0
3.548497080E-1,-1.348953694E-1,-1.286142170E-1,9.878170013E0
3.572940310E-1,-1.444666684E-1,-1.357926875E-1,9.870991707E0
3.597374680E-1,-1.133599728E-1,-1.552343667E-1,9.882955551E0
3.621818430E-1,-1.133599728E-1,-1.286142170E-1,9.880562782E0
3.646269470E-1,-1.181456149E-1,-1.262213886E-1,9.892526627E0
3.670712180E-1,-1.301097274E-1,-1.333998591E-1,9.882955551E0
3.695147080E-1,-1.396810263E-1,-1.310070455E-1,9.885348320E0
3.719590310E-1,-1.325025558E-1,-1.286142170E-1,9.899705887E0
3.744041350E-1,-1.157527938E-1,-1.357926875E-1,9.866206169E0
3.768484580E-1,-1.277169138E-1,-1.190429255E-1,9.887741089E0
3.792918950E-1,-1.277169138E-1,-1.429711580E-1,9.875777245E0
3.817362700E-1,-1.277169138E-1,-1.453639716E-1,9.880562782E0
3.841813740E-1,-1.420738399E-1,-1.310070455E-1,9.890133858E0
3.866256970E-1,-1.181456149E-1,-1.262213886E-1,9.892526627E0
3.890691350E-1,-1.277169138E-1,-1.357926875E-1,9.861420631E0
3.915135100E-1,-1.348953694E-1,-1.429711580E-1,9.882955551E0
3.939586140E-1,-1.157527938E-1,-1.429711580E-1,9.875777245E0
3.964028850E-1,-1.420738399E-1,-1.429711580E-1,9.861420631E0
3.988463740E-1,-1.348953694E-1,-1.310070455E-1,9.861420631E0
4.012906970E-1,-1.444666684E-1,-1.381855011E-1,9.856635094E0
4.037358010E-1,-1.325025558E-1,-1.381855011E-1,9.902098656E0
4.061801240E-1,-1.205384433E-1,-1.405783296E-1,9.880562782E0
4.086235620E-1,-1.253240854E-1,-1.262213886E-1,9.878170013E0
4.110679370E-1,-1.348953694E-1,-1.214357466E-1,9.885348320E0
4.135130410E-1,-1.588236094E-1,-1.310070455E-1,9.882955551E0
4.159573640E-1,-1.348953694E-1,-1.504487246E-1,9.878170013E0
4.184008010E-1,-1.253240854E-1,-1.429711580E-1,9.856635094E0
4.208451760E-1,-1.372881979E-1,-1.310070455E-1,9.885348320E0
4.232902290E-1,-1.420738399E-1,-1.357926875E-1,9.914062500E0
4.257345510E-1,-1.444666684E-1,-1.262213886E-1,9.885348320E0
4.281780410E-1,-1.468594968E-1,-1.262213886E-1,9.878170013E0
4.306223640E-1,-1.277169138E-1,-1.310070455E-1,9.885348320E0
4.330674680E-1,-1.229312643E-1,-1.453639716E-1,9.894919395E0
4.355117910E-1,-1.325025558E-1,-1.310070455E-1,9.878170013E0
4.379552290E-1,-1.229312643E-1,-1.504487246E-1,9.868598938E0
4.403996040E-1,-1.277169138E-1,-1.381855011E-1,9.870991707E0
4.428447080E-1,-1.325025558E-1,-1.381855011E-1,9.890133858E0
4.452889790E-1,-1.253240854E-1,-1.504487246E-1,9.882955551E0
4.477324680E-1,-1.277169138E-1,-1.333998591E-1,9.870991707E0
4.501767910E-1,-1.013958603E-1,-1.381855011E-1,9.875777245E0
4.526218950E-1,-1.253240854E-1,-1.286142170E-1,9.906884193E0
4.550662180E-1,-1.253240854E-1,-1.286142170E-1,9.899705887E0
4.575096560E-1,-1.229312643E-1,-1.453639716E-1,9.878170013E0
4.599540310E-1,-1.444666684E-1,-1.480558962E-1,9.880562782E0
4.623991350E-1,-1.372881979E-1,-1.238285750E-1,9.878170013E0
4.648434580E-1,-1.253240854E-1,-1.357926875E-1,9.887741089E0
4.672868950E-1,-1.396810263E-1,-1.453639716E-1,9.861420631E0
4.697312700E-1,-1.301097274E-1,-1.238285750E-1,9.892526627E0
4.721763740E-1,-1.133599728E-1,-1.333998591E-1,9.882955551E0
4.746206450E-1,-1.157527938E-1,-1.405783296E-1,9.894919395E0
4.770640830E-1,-1.301097274E-1,-1.262213886E-1,9.875777245E0
4.795084580E-1,-1.372881979E-1,-1.357926875E-1,9.875777245E0
4.819535620E-1,-1.372881979E-1,-1.166501045E-1,9.890133858E0
4.843978850E-1,-1.037886813E-1,-1.405783296E-1,9.887741089E0
4.868413220E-1,-1.229312643E-1,-1.405783296E-1,9.894919395E0
4.892856970E-1,-1.253240854E-1,-1.238285750E-1,9.870991707E0
4.917308010E-1,-1.253240854E-1,-1.070788130E-1,9.887741089E0
4.941750720E-1,-1.396810263E-1,-1.262213886E-1,9.897313118E0
4.966185620E-1,-1.444666684E-1,-1.405783296E-1,9.873384476E0
4.990628850E-1,-1.253240854E-1,-1.381855011E-1,9.866206169E0
5.015079890E-1,-1.229312643E-1,-1.357926875E-1,9.880562782E0
5.039523120E-1,-1.325025558E-1,-1.357926875E-1,9.882955551E0
5.063957490E-1,-1.420738399E-1,-1.214357466E-1,9.892526627E0
5.088401240E-1,-1.301097274E-1,-1.238285750E-1,9.866206169E0
5.112852290E-1,-1.396810263E-1,-1.262213886E-1,9.880562782E0
5.137295510E-1,-1.229312643E-1,-1.480558962E-1,9.892526627E0
5.161729890E-1,-1.492523104E-1,-1.214357466E-1,9.861420631E0
5.186173640E-1,-1.348953694E-1,-1.310070455E-1,9.868598938E0
5.210624680E-1,-1.420738399E-1,-1.504487246E-1,9.878170013E0
5.235067390E-1,-1.157527938E-1,-1.262213886E-1,9.878170013E0
5.259502290E-1,-1.205384433E-1,-1.214357466E-1,9.890133858E0
5.283945510E-1,-1.348953694E-1,-1.429711580E-1,9.868598938E0
5.308396560E-1,-1.301097274E-1,-1.238285750E-1,9.868598938E0
5.332839790E-1,-1.372881979E-1,-1.429711580E-1,9.882955551E0
5.357274160E-1,-1.468594968E-1,-1.190429255E-1,9.878170013E0
5.381717910E-1,-1.325025558E-1,-1.286142170E-1,9.873384476E0
5.406168950E-1,-1.085743308E-1,-1.262213886E-1,9.866206169E0
5.430611660E-1,-1.277169138E-1,-1.310070455E-1,9.899705887E0
5.455046560E-1,-1.181456149E-1,-1.333998591E-1,9.890133858E0
5.479490310E-1,-1.253240854E-1,-1.238285750E-1,9.868598938E0
5.503940830E-1,-1.348953694E-1,-1.190429255E-1,9.873384476E0
5.528384060E-1,-1.229312643E-1,-1.166501045E-1,9.904491425E0
5.552818950E-1,-1.157527938E-1,-1.357926875E-1,9.870991707E0
5.577262180E-1,-1.372881979E-1,-1.429711580E-1,9.885348320E0
5.601713220E-1,-1.205384433E-1,-1.190429255E-1,9.859027863E0
5.626156450E-1,-1.325025558E-1,-1.238285750E-1,9.904491425E0
5.650590830E-1,-1.492523104E-1,-1.333998591E-1,9.894919395E0
5.675034580E-1,-1.325025558E-1,-1.480558962E-1,9.859027863E0
5.699485620E-1,-1.181456149E-1,-1.214357466E-1,9.873384476E0
5.723928330E-1,-1.325025558E-1,-1.480558962E-1,9.887741089E0
5.748363220E-1,-1.348953694E-1,-1.310070455E-1,9.894919395E0
5.772806450E-1,-1.253240854E-1,-1.504487246E-1,9.885348320E0
5.797257490E-1,-1.348953694E-1,-1.405783296E-1,9.892526627E0
5.821700720E-1,-1.133599728E-1,-1.310070455E-1,9.894919395E0
5.846135100E-1,-1.205384433E-1,-1.310070455E-1,9.894919395E0
5.870578850E-1,-1.229312643E-1,-1.405783296E-1,9.870991707E0
5.895029890E-1,-1.205384433E-1,-1.480558962E-1,9.882955551E0
5.919472600E-1,-1.181456149E-1,-1.333998591E-1,9.887741089E0
5.943907490E-1,-1.205384433E-1,-1.405783296E-1,9.899705887E0
5.968351240E-1,-1.229312643E-1,-1.405783296E-1,9.885348320E0
5.992801760E-1,-1.372881979E-1,-1.214357466E-1,9.878170013E0
6.017244990E-1,-1.253240854E-1,-1.504487246E-1,9.878170013E0
6.041679370E-1,-1.444666684E-1,-1.381855011E-1,9.904491425E0
6.066123120E-1,-1.372881979E-1,-1.453639716E-1,9.885348320E0
6.090574160E-1,-1.564307809E-1,-1.310070455E-1,9.873384476E0
6.115017390E-1,-1.348953694E-1,-1.262213886E-1,9.885348320E0
6.139451760E-1,-1.181456149E-1,-1.357926875E-1,9.902098656E0
6.163895510E-1,-1.301097274E-1,-1.528415531E-1,9.878170013E0
6.188346560E-1,-1.301097274E-1,-1.357926875E-1,9.890133858E0
6.212789260E-1,-1.205384433E-1,-1.262213886E-1,9.885348320E0
6.237224160E-1,-1.325025558E-1,-1.333998591E-1,9.892526627E0
6.261667390E-1,-1.468594968E-1,-1.310070455E-1,9.866206169E0
6.286118430E-1,-1.325025558E-1,-1.286142170E-1,9.878170013E0
6.310561660E-1,-1.301097274E-1,-1.310070455E-1,9.885348320E0
6.334996040E-1,-1.157527938E-1,-1.453639716E-1,9.885348320E0
6.359439790E-1,-1.277169138E-1,-1.357926875E-1,9.880562782E0
6.383890830E-1,-1.372881979E-1,-1.429711580E-1,9.861420631E0
6.408334060E-1,-1.181456149E-1,-1.286142170E-1,9.887741089E0
6.432768430E-1,-1.253240854E-1,-1.405783296E-1,9.892526627E0
6.457212180E-1,-1.277169138E-1,-1.310070455E-1,9.875777245E0
6.481663220E-1,-1.277169138E-1,-1.429711580E-1,9.851848602E0
6.506105930E-1,-1.372881979E-1,-1.480558962E-1,9.875777245E0
6.530540830E-1,-1.181456149E-1,-1.286142170E-1,9.899705887E0
6.554984060E-1,-1.396810263E-1,-1.286142170E-1,9.863813400E0
6.579435100E-1,-1.253240854E-1,-1.214357466E-1,9.863813400E0
6.603878330E-1,-1.205384433E-1,-1.357926875E-1,9.890133858E0
6.628312700E-1,-1.348953694E-1,-1.286142170E-1,9.902098656E0
6.652756450E-1,-1.396810263E-1,-1.480558962E-1,9.875777245E0
6.677207490E-1,-1.325025558E-1,-1.405783296E-1,9.897313118E0
6.701650200E-1,-1.181456149E-1,-1.504487246E-1,9.880562782E0
6.726085100E-1,-1.277169138E-1,-1.310070455E-1,9.887741089E0
6.750528330E-1,-1.253240854E-1,-1.405783296E-1,9.880562782E0
6.774979370E-1,-1.277169138E-1,-1.405783296E-1,9.885348320E0
6.799422600E-1,-1.444666684E-1,-1.528415531E-1,9.890133858E0
6.823856970E-1,-1.325025558E-1,-1.405783296E-1,9.887741089E0
6.848300720E-1,-1.205384433E-1,-1.552343667E-1,9.880562782E0
6.872751760E-1,-1.564307809E-1,-1.453639716E-1,9.882955551E0
6.897194990E-1,-1.277169138E-1,-1.238285750E-1,9.882955551E0
6.921629370E-1,-1.013958603E-1,-1.190429255E-1,9.885348320E0
6.946073120E-1,-1.229312643E-1,-1.381855011E-1,9.906884193E0
6.970523640E-1,-1.301097274E-1,-1.310070455E-1,9.885348320E0
6.994966870E-1,-1.205384433E-1,-1.333998591E-1,9.870991707E0
7.019401760E-1,-1.396810263E-1,-1.190429255E-1,9.882955551E0
7.043844990E-1,-1.157527938E-1,-1.310070455E-1,9.861420631E0
7.068296040E-1,-1.396810263E-1,-1.381855011E-1,9.892526627E0
7.092739260E-1,-1.277169138E-1,-1.504487246E-1,9.873384476E0
7.117173640E-1,-1.253240854E-1,-1.405783296E-1,9.873384476E0
7.141617390E-1,-1.205384433E-1,-1.429711580E-1,9.885348320E0
7.166068430E-1,-1.253240854E-1,-1.528415531E-1,9.870991707E0
7.190511140E-1,-1.420738399E-1,-1.333998591E-1,9.859027863E0
7.214946040E-1,-1.348953694E-1,-1.262213886E-1,9.887741089E0
7.239389260E-1,-1.109671518E-1,-1.357926875E-1,9.890133858E0
7.263840310E-1,-1.253240854E-1,-1.262213886E-1,9.878170013E0
7.288283540E-1,-1.205384433E-1,-1.453639716E-1,9.868598938E0
7.312717910E-1,-1.157527938E-1,-1.405783296E-1,9.897313118E0
7.337161660E-1,-1.133599728E-1,-1.214357466E-1,9.880562782E0
7.361612700E-1,-1.205384433E-1,-1.381855011E-1,9.868598938E0
7.386055930E-1,-1.301097274E-1,-1.310070455E-1,9.880562782E0
7.410490310E-1,-1.277169138E-1,-1.142572835E-1,9.890133858E0
7.434933540E-1,-1.492523104E-1,-1.357926875E-1,9.885348320E0
7.459385100E-1,-1.348953694E-1,-1.480558962E-1,9.878170013E0
7.483827810E-1,-1.372881979E-1,-1.528415531E-1,9.866206169E0
7.508262180E-1,-1.468594968E-1,-1.453639716E-1,9.863813400E0
7.532705930E-1,-1.348953694E-1,-1.286142170E-1,9.887741089E0
7.557156970E-1,-1.372881979E-1,-1.333998591E-1,9.875777245E0
7.581600200E-1,-1.133599728E-1,-1.333998591E-1,9.882955551E0
7.606034580E-1,-1.325025558E-1,-1.552343667E-1,9.885348320E0
7.630478330E-1,-1.396810263E-1,-1.453639716E-1,9.890133858E0
7.654929370E-1,-1.372881979E-1,-1.453639716E-1,9.902098656E0
7.679372080E-1,-1.229312643E-1,-1.190429255E-1,9.868598938E0
7.703806970E-1,-1.133599728E-1,-1.286142170E-1,9.880562782E0
7.728250200E-1,-1.277169138E-1,-1.357926875E-1,9.906884193E0
7.752701240E-1,-1.205384433E-1,-1.429711580E-1,9.866206169E0
7.777144470E-1,-1.301097274E-1,-1.070788130E-1,9.870991707E0
7.801578850E-1,-1.420738399E-1,-1.310070455E-1,9.878170013E0
7.826022600E-1,-1.133599728E-1,-1.405783296E-1,9.882955551E0
7.850473640E-1,-1.301097274E-1,-1.381855011E-1,9.885348320E0
7.874916870E-1,-1.372881979E-1,-1.453639716E-1,9.880562782E0
7.899351240E-1,-1.301097274E-1,-1.504487246E-1,9.885348320E0
7.923794990E-1,-1.444666684E-1,-1.214357466E-1,9.904491425E0
7.948246040E-1,-1.205384433E-1,-1.480558962E-1,9.882955551E0
7.972688740E-1,-1.372881979E-1,-1.286142170E-1,9.859027863E0
7.997123640E-1,-1.444666684E-1,-1.286142170E-1,9.873384476E0
8.021566870E-1,-1.372881979E-1,-1.576271951E-1,9.863813400E0
8.046017910E-1,-1.325025558E-1,-1.453639716E-1,9.902098656E0
8.070461140E-1,-1.181456149E-1,-1.381855011E-1,9.875777245E0
8.094895510E-1,-1.348953694E-1,-1.262213886E-1,9.882955551E0
8.119339260E-1,-1.301097274E-1,-1.310070455E-1,9.882955551E0
8.143790310E-1,-1.516451389E-1,-1.262213886E-1,9.890133858E0
8.168233010E-1,-1.420738399E-1,-1.453639716E-1,9.885348320E0
8.192667910E-1,-1.468594968E-1,-1.405783296E-1,9.902098656E0
8.217111140E-1,-1.109671518E-1,-1.381855011E-1,9.909276962E0
8.241562180E-1,-1.229312643E-1,-1.453639716E-1,9.878170013E0
8.266005410E-1,-1.253240854E-1,-1.405783296E-1,9.878170013E0
8.290439790E-1,-1.444666684E-1,-1.429711580E-1,9.854242325E0
8.314883540E-1,-1.205384433E-1,-1.552343667E-1,9.882955551E0
8.339334580E-1,-1.109671518E-1,-1.504487246E-1,9.882955551E0
8.363777810E-1,-1.325025558E-1,-1.429711580E-1,9.875777245E0
8.388212180E-1,-1.157527938E-1,-1.624128371E-1,9.859027863E0
8.412655930E-1,-1.205384433E-1,-1.333998591E-1,9.873384476E0
8.437106970E-1,-1.516451389E-1,-1.286142170E-1,9.868598938E0
8.461549680E-1,-1.372881979E-1,-1.429711580E-1,9.878170013E0
8.485984580E-1,-1.468594968E-1,-1.429711580E-1,9.873384476E0
8.510427810E-1,-1.396810263E-1,-1.381855011E-1,9.882955551E0
8.534878850E-1,-1.301097274E-1,-1.357926875E-1,9.892526627E0
8.559322080E-1,-1.205384433E-1,-1.381855011E-1,9.868598938E0
8.583756450E-1,-1.492523104E-1,-1.381855011E-1,9.861420631E0
8.608200200E-1,-1.540379524E-1,-1.286142170E-1,9.875777245E0
8.632651240E-1,-1.253240854E-1,-1.238285750E-1,9.856635094E0
8.657093950E-1,-1.325025558E-1,-1.190429255E-1,9.892526627E0
8.681528850E-1,-1.301097274E-1,-1.381855011E-1,9.866206169E0
8.705972080E-1,-1.277169138E-1,-1.262213886E-1,9.875777245E0
8.730423120E-1,-1.277169138E-1,-1.381855011E-1,9.894919395E0
8.754866350E-1,-1.396810263E-1,-1.166501045E-1,9.885348320E0
8.779300720E-1,-1.205384433E-1,-1.381855011E-1,9.868598938E0
8.803744470E-1,-1.301097274E-1,-1.357926875E-1,9.875777245E0
8.828195510E-1,-1.205384433E-1,-1.381855011E-1,9.887741089E0
8.852638740E-1,-1.325025558E-1,-1.381855011E-1,9.863813400E0
8.877073120E-1,-1.133599728E-1,-1.480558962E-1,9.866206169E0
8.901516870E-1,-1.277169138E-1,-1.238285750E-1,9.894919395E0
8.925967910E-1,-1.301097274E-1,-1.238285750E-1,9.892526627E0
8.950410620E-1,-1.325025558E-1,-1.333998591E-1,9.880562782E0
8.974844990E-1,-1.109671518E-1,-1.528415531E-1,9.873384476E0
8.999288740E-1,-1.277169138E-1,-1.333998591E-1,9.868598938E0
9.023739790E-1,-1.133599728E-1,-1.286142170E-1,9.894919395E0
9.048183010E-1,-1.181456149E-1,-1.480558962E-1,9.870991707E0
9.072617390E-1,-1.277169138E-1,-1.504487246E-1,9.873384476E0
9.097061140E-1,-1.372881979E-1,-1.333998591E-1,9.880562782E0
9.121512180E-1,-1.325025558E-1,-1.166501045E-1,9.859027863E0
9.145954890E-1,-1.037886813E-1,-1.357926875E-1,9.887741089E0
9.170389790E-1,-1.181456149E-1,-1.214357466E-1,9.902098656E0
9.194833010E-1,-1.516451389E-1,-1.381855011E-1,9.866206169E0
9.219284060E-1,-1.372881979E-1,-1.333998591E-1,9.882955551E0
9.243727290E-1,-1.229312643E-1,-1.600200087E-1,9.890133858E0
9.268161660E-1,-1.420738399E-1,-1.286142170E-1,9.880562782E0
9.292605410E-1,-1.492523104E-1,-1.214357466E-1,9.875777245E0
9.317056450E-1,-1.253240854E-1,-1.166501045E-1,9.916455269E0
9.341499160E-1,-1.420738399E-1,-1.480558962E-1,9.890133858E0
9.365934060E-1,-1.396810263E-1,-1.453639716E-1,9.880562782E0
9.390377810E-1,-1.444666684E-1,-1.429711580E-1,9.882955551E0
9.414828850E-1,-1.301097274E-1,-1.286142170E-1,9.868598938E0
9.439271560E-1,-1.325025558E-1,-1.429711580E-1,9.894919395E0
9.463706450E-1,-1.540379524E-1,-1.357926875E-1,9.885348320E0
9.488149680E-1,-1.372881979E-1,-1.429711580E-1,9.875777245E0
9.512600720E-1,-1.348953694E-1,-1.214357466E-1,9.880562782E0
9.537043950E-1,-1.253240854E-1,-1.238285750E-1,9.894919395E0
9.561478330E-1,-1.420738399E-1,-1.453639716E-1,9.873384476E0
9.585922080E-1,-1.396810263E-1,-1.333998591E-1,9.870991707E0
9.610373120E-1,-1.325025558E-1,-1.381855011E-1,9.873384476E0
9.634815830E-1,-1.229312643E-1,-1.357926875E-1,9.882955551E0
9.659250720E-1,-1.396810263E-1,-1.405783296E-1,9.878170013E0
9.683693950E-1,-1.301097274E-1,-1.576271951E-1,9.875777245E0
9.708144990E-1,-1.109671518E-1,-1.357926875E-1,9.880562782E0
9.732588220E-1,-1.229312643E-1,-1.429711580E-1,9.899705887E0
9.757022600E-1,-1.133599728E-1,-1.262213886E-1,9.885348320E0
9.781466350E-1,-1.301097274E-1,-1.453639716E-1,9.856635094E0
9.805917390E-1,-1.181456149E-1,-1.333998591E-1,9.885348320E0
9.830360100E-1,-1.301097274E-1,-1.214357466E-1,9.899705887E0
9.854794990E-1,-1.301097274E-1,-1.262213886E-1,9.880562782E0
9.879238740E-1,-1.372881979E-1,-1.286142170E-1,9.861420631E0
9.903689260E-1,-1.492523104E-1,-1.480558962E-1,9.868598938E0
9.928132490E-1,-1.372881979E-1,-1.357926875E-1,9.890133858E0
9.952567390E-1,-1.133599728E-1,-1.552343667E-1,9.878170013E0
9.977010620E-1,-1.253240854E-1,-1.429711580E-1,9.861420631E0
1.000146166E0,-1.540379524E-1,-1.480558962E-1,9.878170013E0
1.002590489E0,-1.181456149E-1,-1.453639716E-1,9.911669731E0
1.005033926E0,-1.205384433E-1,-1.286142170E-1,9.904491425E0
1.007478301E0,-1.540379524E-1,-1.405783296E-1,9.882955551E0
1.009923406E0,-1.253240854E-1,-1.600200087E-1,9.887741089E0
1.012367676E0,-1.109671518E-1,-1.262213886E-1,9.887741089E0
1.014811166E0,-1.348953694E-1,-1.600200087E-1,9.870991707E0
1.017255489E0,-1.133599728E-1,-1.333998591E-1,9.861420631E0
1.019700593E0,-1.301097274E-1,-1.333998591E-1,9.863813400E0
1.022144916E0,-1.396810263E-1,-1.286142170E-1,9.882955551E0
1.024588354E0,-1.061815023E-1,-1.453639716E-1,9.897313118E0
1.027032729E0,-9.900303930E-2,-1.453639716E-1,9.890133858E0
1.029477833E0,-1.253240854E-1,-1.214357466E-1,9.880562782E0
1.031922104E0,-1.277169138E-1,-1.142572835E-1,9.866206169E0
1.034365593E0,-1.205384433E-1,-1.262213886E-1,9.878170013E0
1.036809968E0,-1.253240854E-1,-1.142572835E-1,9.870991707E0
1.039255072E0,-1.301097274E-1,-1.310070455E-1,9.859027863E0
1.041699343E0,-1.348953694E-1,-1.357926875E-1,9.885348320E0
1.044142781E0,-1.013958603E-1,-1.310070455E-1,9.875777245E0
1.046587156E0,-1.133599728E-1,-1.453639716E-1,9.878170013E0
1.049032260E0,-1.325025558E-1,-1.381855011E-1,9.880562782E0
1.051476583E0,-1.301097274E-1,-1.142572835E-1,9.894919395E0
1.053920020E0,-1.181456149E-1,-1.405783296E-1,9.882955551E0
1.056364395E0,-1.205384433E-1,-1.504487246E-1,9.870991707E0
1.058809499E0,-1.325025558E-1,-1.357926875E-1,9.890133858E0
1.061253770E0,-1.277169138E-1,-1.381855011E-1,9.894919395E0
1.063697260E0,-1.348953694E-1,-1.333998591E-1,9.887741089E0
1.066141583E0,-1.396810263E-1,-1.600200087E-1,9.878170013E0
1.068586687E0,-1.468594968E-1,-1.429711580E-1,9.868598938E0
1.071031010E0,-1.396810263E-1,-1.310070455E-1,9.892526627E0
1.073474447E0,-1.205384433E-1,-1.429711580E-1,9.899705887E0
1.075918822E0,-1.205384433E-1,-1.357926875E-1,9.885348320E0
1.078363926E0,-1.420738399E-1,-1.504487246E-1,9.861420631E0
1.080808249E0,-1.301097274E-1,-1.310070455E-1,9.890133858E0
1.083251687E0,-1.372881979E-1,-1.504487246E-1,9.899705887E0
1.085696062E0,-1.205384433E-1,-1.310070455E-1,9.875777245E0
1.088141114E0,-1.348953694E-1,-1.286142170E-1,9.863813400E0
1.090585437E0,-1.444666684E-1,-1.333998591E-1,9.863813400E0
1.093028874E0,-1.348953694E-1,-1.357926875E-1,9.890133858E0
1.095473249E0,-1.301097274E-1,-1.238285750E-1,9.906884193E0
1.097918354E0,-1.133599728E-1,-1.286142170E-1,9.863813400E0
1.100362676E0,-1.301097274E-1,-1.286142170E-1,9.875777245E0
1.102806114E0,-1.325025558E-1,-1.429711580E-1,9.885348320E0
1.105250489E0,-1.325025558E-1,-1.504487246E-1,9.887741089E0
1.107695593E0,-1.325025558E-1,-1.357926875E-1,9.875777245E0
1.110139864E0,-1.348953694E-1,-1.310070455E-1,9.870991707E0
1.112583354E0,-1.420738399E-1,-1.286142170E-1,9.875777245E0
1.115027676E0,-1.325025558E-1,-1.528415531E-1,9.878170013E0
1.117472781E0,-1.396810263E-1,-1.238285750E-1,9.875777245E0
1.119917104E0,-1.348953694E-1,-1.262213886E-1,9.885348320E0
1.122360541E0,-1.277169138E-1,-1.405783296E-1,9.880562782E0
1.124804916E0,-1.325025558E-1,-1.190429255E-1,9.899705887E0
1.127250020E0,-1.348953694E-1,-1.238285750E-1,9.868598938E0
1.129694291E0,-1.229312643E-1,-1.381855011E-1,9.887741089E0
1.132137781E0,-1.420738399E-1,-1.262213886E-1,9.863813400E0
1.134582156E0,-1.372881979E-1,-1.429711580E-1,9.892526627E0
1.137027208E0,-1.636092514E-1,-1.480558962E-1,9.887741089E0
1.139471531E0,-1.325025558E-1,-1.310070455E-1,9.890133858E0
1.141914968E0,-1.396810263E-1,-1.166501045E-1,9.904491425E0
1.144359343E0,-1.444666684E-1,-1.357926875E-1,9.899705887E0
1.146804447E0,-1.253240854E-1,-1.429711580E-1,9.890133858E0
1.149248770E0,-1.325025558E-1,-1.238285750E-1,9.863813400E0
1.151692208E0,-1.229312643E-1,-1.333998591E-1,9.875777245E0
1.154136583E0,-1.109671518E-1,-1.238285750E-1,9.870991707E0
1.156581687E0,-1.372881979E-1,-1.357926875E-1,9.887741089E0
1.159025958E0,-1.492523104E-1,-1.405783296E-1,9.873384476E0
1.161469447E0,-1.301097274E-1,-1.504487246E-1,9.870991707E0
1.163913770E0,-1.253240854E-1,-1.429711580E-1,9.863813400E0
1.166358874E0,-1.229312643E-1,-1.310070455E-1,9.880562782E0
1.168803197E0,-1.492523104E-1,-1.381855011E-1,9.866206169E0
1.171246635E0,-1.229312643E-1,-1.333998591E-1,9.890133858E0
1.173691010E0,-1.253240854E-1,-1.262213886E-1,9.902098656E0
1.176136114E0,-1.301097274E-1,-1.310070455E-1,9.904491425E0
1.178580385E0,-1.516451389E-1,-1.310070455E-1,9.880562782E0
1.181023874E0,-1.109671518E-1,-1.357926875E-1,9.894919395E0
1.183468197E0,-1.277169138E-1,-1.357926875E-1,9.873384476E0
1.185913301E0,-1.277169138E-1,-1.576271951E-1,9.902098656E0
1.188357624E0,-1.325025558E-1,-1.190429255E-1,9.873384476E0
1.190801062E0,-1.061815023E-1,-1.405783296E-1,9.868598938E0
1.193245437E0,-1.181456149E-1,-1.405783296E-1,9.894919395E0
1.195690541E0,-1.205384433E-1,-1.333998591E-1,9.887741089E0
1.198134864E0,-1.277169138E-1,-1.310070455E-1,9.861420631E0
1.200578301E0,-1.325025558E-1,-1.262213886E-1,9.870991707E0
1.203022676E0,-1.516451389E-1,-1.357926875E-1,9.892526627E0
1.205467781E0,-1.588236094E-1,-1.453639716E-1,9.854242325E0
1.207912051E0,-1.516451389E-1,-1.357926875E-1,9.870991707E0
1.210355541E0,-1.516451389E-1,-1.429711580E-1,9.870991707E0
1.212799864E0,-1.301097274E-1,-1.333998591E-1,9.892526627E0
1.215244968E0,-1.277169138E-1,-1.214357466E-1,9.899705887E0
1.217689291E0,-1.492523104E-1,-1.429711580E-1,9.885348320E0
1.220132729E0,-1.085743308E-1,-1.333998591E-1,9.892526627E0
1.222577104E0,-1.181456149E-1,-1.190429255E-1,9.899705887E0
1.225022208E0,-1.420738399E-1,-1.429711580E-1,9.887741089E0
1.227466479E0,-1.301097274E-1,-1.357926875E-1,9.861420631E0
1.229909968E0,-1.468594968E-1,-1.429711580E-1,9.882955551E0
1.232354291E0,-1.348953694E-1,-1.405783296E-1,9.875777245E0
1.234799395E0,-1.396810263E-1,-1.238285750E-1,9.870991707E0
1.237243718E0,-1.372881979E-1,-1.286142170E-1,9.863813400E0
1.239687156E0,-1.181456149E-1,-1.357926875E-1,9.870991707E0
1.242131531E0,-1.229312643E-1,-1.333998591E-1,9.894919395E0
1.244576635E0,-1.325025558E-1,-1.262213886E-1,9.897313118E0
1.247020958E0,-1.301097274E-1,-1.357926875E-1,9.878170013E0
1.249464395E0,-1.157527938E-1,-1.262213886E-1,9.906884193E0
1.251908770E0,-1.372881979E-1,-1.357926875E-1,9.885348320E0
1.254353822E0,-1.301097274E-1,-1.333998591E-1,9.887741089E0
1.256798145E0,-1.444666684E-1,-1.405783296E-1,9.866206169E0
1.259241635E0,-1.372881979E-1,-1.238285750E-1,9.890133858E0
1.261685958E0,-1.348953694E-1,-1.310070455E-1,9.897313118E0
1.264131062E0,-1.205384433E-1,-1.405783296E-1,9.911669731E0
1.266575385E0,-1.325025558E-1,-1.310070455E-1,9.887741089E0
1.269018822E0,-1.396810263E-1,-1.333998591E-1,9.870991707E0
1.271463197E0,-1.444666684E-1,-1.381855011E-1,9.885348320E0
1.273908301E0,-1.277169138E-1,-1.528415531E-1,9.887741089E0
1.276352572E0,-1.492523104E-1,-1.333998591E-1,9.880562782E0
1.278796062E0,-1.372881979E-1,-1.286142170E-1,9.880562782E0
1.281240385E0,-1.229312643E-1,-1.405783296E-1,9.878170013E0
1.283685489E0,-1.277169138E-1,-1.333998591E-1,9.866206169E0
1.286129812E0,-1.468594968E-1,-1.262213886E-1,9.875777245E0
1.288573249E0,-1.492523104E-1,-1.214357466E-1,9.882955551E0
1.291017624E0,-1.516451389E-1,-1.070788130E-1,9.880562782E0
1.293462729E0,-1.348953694E-1,-1.190429255E-1,9.868598938E0
1.295906999E0,-1.325025558E-1,-1.405783296E-1,9.885348320E0
1.298350489E0,-1.253240854E-1,-1.552343667E-1,9.870991707E0
1.300794864E0,-1.277169138E-1,-1.190429255E-1,9.890133858E0
1.303239916E0,-1.277169138E-1,-1.453639716E-1,9.885348320E0
1.305684239E0,-1.348953694E-1,-1.429711580E-1,9.906884193E0
1.308127676E0,-1.516451389E-1,-1.142572835E-1,9.868598938E0
1.310572051E0,-1.396810263E-1,-1.405783296E-1,9.873384476E0
1.313017156E0,-1.348953694E-1,-1.333998591E-1,9.897313118E0
1.315461479E0,-1.348953694E-1,-1.480558962E-1,9.873384476E0
1.317904916E0,-1.229312643E-1,-1.528415531E-1,9.873384476E0
1.320349291E0,-1.301097274E-1,-1.405783296E-1,9.880562782E0
1.322794395E0,-1.253240854E-1,-1.453639716E-1,9.887741089E0
1.325238666E0,-1.420738399E-1,-1.286142170E-1,9.878170013E0
1.327682156E0,-1.253240854E-1,-1.286142170E-1,9.875777245E0
1.330126479E0,-1.396810263E-1,-1.429711580E-1,9.885348320E0
1.332571583E0,-1.372881979E-1,-1.480558962E-1,9.887741089E0
1.335015906E0,-1.325025558E-1,-1.262213886E-1,9.882955551E0
1.337459343E0,-1.420738399E-1,-1.480558962E-1,9.885348320E0
1.339903718E0,-1.348953694E-1,-1.333998591E-1,9.887741089E0
1.342348822E0,-1.301097274E-1,-1.262213886E-1,9.878170013E0
1.344793093E0,-1.348953694E-1,-1.405783296E-1,9.904491425E0
1.347236583E0,-1.348953694E-1,-1.480558962E-1,9.880562782E0
1.349680906E0,-1.181456149E-1,-1.357926875E-1,9.870991707E0
1.352126010E0,-1.181456149E-1,-1.333998591E-1,9.892526627E0
1.354570333E0,-1.229312643E-1,-1.357926875E-1,9.906884193E0
1.357013770E0,-1.205384433E-1,-1.429711580E-1,9.866206169E0
1.359458145E0,-1.325025558E-1,-1.552343667E-1,9.878170013E0
1.361903249E0,-1.253240854E-1,-1.286142170E-1,9.894919395E0
1.364347572E0,-1.325025558E-1,-1.381855011E-1,9.894919395E0
1.366791010E0,-1.372881979E-1,-1.480558962E-1,9.859027863E0
1.369235385E0,-1.396810263E-1,-1.381855011E-1,9.878170013E0
1.371680437E0,-1.277169138E-1,-1.357926875E-1,9.890133858E0
1.374124760E0,-1.277169138E-1,-1.381855011E-1,9.899705887E0
1.376568249E0,-1.277169138E-1,-1.576271951E-1,9.894919395E0
1.379012572E0,-1.133599728E-1,-1.286142170E-1,9.906884193E0
1.381457676E0,-1.348953694E-1,-1.286142170E-1,9.878170013E0
1.383901999E0,-1.325025558E-1,-1.357926875E-1,9.890133858E0
1.386345437E0,-1.420738399E-1,-1.262213886E-1,9.892526627E0
1.388789812E0,-1.492523104E-1,-1.357926875E-1,9.897313118E0
1.391234916E0,-1.301097274E-1,-1.528415531E-1,9.890133858E0
1.393679187E0,-1.157527938E-1,-1.381855011E-1,9.894919395E0
1.396122676E0,-1.133599728E-1,-1.429711580E-1,9.859027863E0
1.398566999E0,-1.348953694E-1,-1.214357466E-1,9.856635094E0
1.401012104E0,-1.253240854E-1,-1.381855011E-1,9.870991707E0
1.403456426E0,-1.396810263E-1,-1.504487246E-1,9.899705887E0
1.405899864E0,-1.157527938E-1,-1.453639716E-1,9.859027863E0
1.408344239E0,-1.277169138E-1,-1.142572835E-1,9.887741089E0
1.410789343E0,-1.277169138E-1,-1.333998591E-1,9.885348320E0
1.413233666E0,-1.181456149E-1,-1.453639716E-1,9.882955551E0
1.415677104E0,-1.253240854E-1,-1.214357466E-1,9.885348320E0
1.418121479E0,-1.444666684E-1,-1.286142170E-1,9.875777245E0
1.420566531E0,-1.229312643E-1,-1.357926875E-1,9.885348320E0
1.423010854E0,-1.396810263E-1,-1.405783296E-1,9.899705887E0
1.425454343E0,-1.396810263E-1,-1.357926875E-1,9.899705887E0
1.427898666E0,-1.301097274E-1,-1.357926875E-1,9.870991707E0
1.430343770E0,-1.325025558E-1,-1.357926875E-1,9.875777245E0
1.432788093E0,-1.085743308E-1,-1.310070455E-1,9.892526627E0
1.435231531E0,-1.396810263E-1,-1.695913076E-1,9.890133858E0
1.437675906E0,-1.564307809E-1,-1.214357466E-1,9.873384476E0
1.440121010E0,-1.372881979E-1,-1.429711580E-1,9.882955551E0
1.442565281E0,-1.420738399E-1,-1.214357466E-1,9.904491425E0
1.445008770E0,-1.372881979E-1,-1.286142170E-1,9.882955551E0
1.447453093E0,-1.157527938E-1,-1.214357466E-1,9.868598938E0
1.449898197E0,-1.301097274E-1,-1.214357466E-1,9.861420631E0
1.452342520E0,-1.348953694E-1,-1.214357466E-1,9.916455269E0
1.454785958E0,-1.348953694E-1,-1.480558962E-1,9.911669731E0
1.457230333E0,-1.253240854E-1,-1.381855011E-1,9.863813400E0
1.459675437E0,-1.396810263E-1,-1.429711580E-1,9.875777245E0
1.462119708E0,-1.444666684E-1,-1.357926875E-1,9.892526627E0
1.464563197E0,-1.085743308E-1,-1.333998591E-1,9.892526627E0
1.467007520E0,-1.277169138E-1,-1.453639716E-1,9.892526627E0
1.469452624E0,-1.420738399E-1,-1.238285750E-1,9.887741089E0
1.471896947E0,-1.492523104E-1,-1.310070455E-1,9.892526627E0
1.474340385E0,-1.372881979E-1,-1.429711580E-1,9.885348320E0
1.476784760E0,-1.420738399E-1,-1.190429255E-1,9.880562782E0
1.479229864E0,-1.396810263E-1,-1.214357466E-1,9.866206169E0
1.481674187E0,-1.253240854E-1,-1.286142170E-1,9.897313118E0
1.484117624E0,-1.277169138E-1,-1.381855011E-1,9.870991707E0
1.486561999E0,-1.444666684E-1,-1.190429255E-1,9.902098656E0
1.489007104E0,-1.205384433E-1,-1.405783296E-1,9.859027863E0
1.491451374E0,-1.253240854E-1,-1.405783296E-1,9.878170013E0
1.493894864E0,-1.253240854E-1,-1.381855011E-1,9.885348320E0
1.496339187E0,-1.205384433E-1,-1.357926875E-1,9.897313118E0
1.498784291E0,-1.085743308E-1,-1.357926875E-1,9.882955551E0
1.501228614E0,-1.444666684E-1,-1.214357466E-1,9.897313118E0
1.503672051E0,-1.253240854E-1,-1.333998591E-1,9.904491425E0
1.506116426E0,-1.253240854E-1,-1.405783296E-1,9.882955551E0
1.508561531E0,-1.348953694E-1,-1.405783296E-1,9.878170013E0
1.511005801E0,-1.301097274E-1,-1.528415531E-1,9.890133858E0
1.513449291E0,-1.157527938E-1,-1.429711580E-1,9.906884193E0
1.515893614E0,-1.277169138E-1,-1.480558962E-1,9.894919395E0
1.518338718E0,-1.372881979E-1,-1.333998591E-1,9.880562782E0
1.520783041E0,-1.229312643E-1,-1.333998591E-1,9.887741089E0
1.523226479E0,-1.229312643E-1,-1.453639716E-1,9.892526627E0
1.525670854E0,-1.325025558E-1,-1.357926875E-1,9.870991707E0
1.528115958E0,-1.492523104E-1,-1.381855011E-1,9.863813400E0
1.530560281E0,-1.372881979E-1,-1.214357466E-1,9.878170013E0
1.533003718E0,-1.277169138E-1,-1.310070455E-1,9.892526627E0
1.535448093E0,-1.205384433E-1,-1.238285750E-1,9.897313118E0
1.537893145E0,-1.420738399E-1,-1.333998591E-1,9.875777245E0
1.540337468E0,-1.277169138E-1,-1.214357466E-1,9.870991707E0
1.542780906E0,-1.420738399E-1,-1.429711580E-1,9.882955551E0
1.545225281E0,-1.301097274E-1,-1.262213886E-1,9.890133858E0
1.547670385E0,-1.372881979E-1,-1.453639716E-1,9.868598938E0
1.550114708E0,-1.229312643E-1,-1.310070455E-1,9.866206169E0
1.552558145E0,-1.540379524E-1,-1.429711580E-1,9.897313118E0
1.555002520E0,-1.396810263E-1,-1.504487246E-1,9.887741089E0
1.557447624E0,-1.444666684E-1,-1.429711580E-1,9.880562782E0
1.559891895E0,-1.372881979E-1,-1.528415531E-1,9.914062500E0
1.562335385E0,-1.277169138E-1,-1.429711580E-1,9.894919395E0
1.564779708E0,-1.325025558E-1,-1.357926875E-1,9.882955551E0
1.567224812E0,-1.325025558E-1,-1.480558962E-1,9.866206169E0
1.569669135E0,-1.540379524E-1,-1.333998591E-1,9.885348320E0
1.572112572E0,-1.253240854E-1,-1.190429255E-1,9.870991707E0
1.574556947E0,-1.325025558E-1,-1.480558962E-1,9.899705887E0
1.577002051E0,-1.253240854E-1,-1.480558962E-1,9.861420631E0
1.579446322E0,-1.229312643E-1,-1.504487246E-1,9.863813400E0
1.581889812E0,-1.253240854E-1,-1.429711580E-1,9.890133858E0
1.584334135E0,-1.516451389E-1,-1.286142170E-1,9.899705887E0
1.586779239E0,-1.372881979E-1,-1.381855011E-1,9.878170013E0
1.589223562E0,-1.061815023E-1,-1.381855011E-1,9.890133858E0
1.591666999E0,-1.277169138E-1,-1.429711580E-1,9.890133858E0
1.594111374E0,-1.277169138E-1,-1.480558962E-1,9.882955551E0
1.596556479E0,-1.468594968E-1,-1.453639716E-1,9.875777245E0
1.599000801E0,-1.372881979E-1,-1.429711580E-1,9.875777245E0
1.601444239E0,-1.301097274E-1,-1.310070455E-1,9.914062500E0
1.603888614E0,-1.205384433E-1,-1.310070455E-1,9.882955551E0
1.606333666E0,-1.325025558E-1,-1.238285750E-1,9.873384476E0
1.608777989E0,-1.444666684E-1,-1.480558962E-1,9.875777245E0
1.611221479E0,-1.420738399E-1,-1.381855011E-1,9.885348320E0
1.613665801E0,-1.325025558E-1,-1.238285750E-1,9.887741089E0
1.616110906E0,-1.612164229E-1,-1.381855011E-1,9.868598938E0
1.618555229E0,-1.420738399E-1,-1.576271951E-1,9.870991707E0
1.620998666E0,-1.277169138E-1,-1.381855011E-1,9.885348320E0
1.623443041E0,-1.325025558E-1,-1.405783296E-1,9.885348320E0
1.625888145E0,-1.325025558E-1,-1.381855011E-1,9.885348320E0
1.628332416E0,-1.372881979E-1,-1.480558962E-1,9.885348320E0
1.630775906E0,-1.085743308E-1,-1.310070455E-1,9.882955551E0
1.633220229E0,-1.205384433E-1,-1.286142170E-1,9.892526627E0
1.635665333E0,-1.372881979E-1,-1.453639716E-1,9.878170013E0
1.638109656E0,-1.325025558E-1,-1.429711580E-1,9.863813400E0
1.640553093E0,-1.205384433E-1,-1.480558962E-1,9.870991707E0
1.642997468E0,-1.181456149E-1,-1.504487246E-1,9.890133858E0
1.645442572E0,-1.253240854E-1,-1.357926875E-1,9.885348320E0
1.647886843E0,-1.468594968E-1,-1.262213886E-1,9.866206169E0
1.650330333E0,-1.444666684E-1,-1.453639716E-1,9.866206169E0
1.652774656E0,-1.468594968E-1,-1.333998591E-1,9.906884193E0
1.655219760E0,-1.205384433E-1,-1.310070455E-1,9.887741089E0
1.657664083E0,-1.277169138E-1,-1.429711580E-1,9.844670296E0
1.660107520E0,-1.396810263E-1,-1.118644550E-1,9.890133858E0
1.662551895E0,-1.301097274E-1,-1.238285750E-1,9.890133858E0
1.664996999E0,-1.348953694E-1,-1.429711580E-1,9.902098656E0
1.667441322E0,-1.396810263E-1,-1.528415531E-1,9.892526627E0
1.669884760E0,-9.661021084E-2,-1.238285750E-1,9.887741089E0
1.672329135E0,-1.277169138E-1,-1.381855011E-1,9.902098656E0
1.674774239E0,-1.229312643E-1,-1.453639716E-1,9.904491425E0
1.677218510E0,-1.229312643E-1,-1.381855011E-1,9.861420631E0
1.679661999E0,-1.325025558E-1,-1.333998591E-1,9.856635094E0
1.682106322E0,-1.420738399E-1,-1.310070455E-1,9.868598938E0
1.684551426E0,-1.372881979E-1,-1.357926875E-1,9.878170013E0
1.686995749E0,-1.444666684E-1,-1.214357466E-1,9.894919395E0
1.689439187E0,-1.085743308E-1,-1.262213886E-1,9.866206169E0
1.691883562E0,-1.468594968E-1,-1.238285750E-1,9.885348320E0
1.694328666E0,-1.348953694E-1,-1.552343667E-1,9.899705887E0
1.696772937E0,-1.253240854E-1,-1.046859920E-1,9.878170013E0
1.699216426E0,-1.277169138E-1,-1.333998591E-1,9.880562782E0
1.701660749E0,-1.325025558E-1,-1.333998591E-1,9.899705887E0
1.704105854E0,-1.253240854E-1,-1.504487246E-1,9.868598938E0
1.706550176E0,-1.301097274E-1,-1.405783296E-1,9.873384476E0
1.708993614E0,-1.348953694E-1,-1.357926875E-1,9.870991707E0
1.711437989E0,-1.205384433E-1,-1.190429255E-1,9.892526627E0
1.713883093E0,-1.396810263E-1,-1.552343667E-1,9.885348320E0
1.716327364E0,-1.372881979E-1,-1.333998591E-1,9.866206169E0
1.718770854E0,-1.229312643E-1,-1.262213886E-1,9.894919395E0
1.721215229E0,-1.229312643E-1,-1.453639716E-1,9.909276962E0
1.723660281E0,-1.109671518E-1,-1.405783296E-1,9.911669731E0
1.726104604E0,-1.468594968E-1,-1.357926875E-1,9.875777245E0
1.728548041E0,-1.301097274E-1,-1.504487246E-1,9.887741089E0
1.730992416E0,-1.181456149E-1,-1.333998591E-1,9.882955551E0
1.733437520E0,-1.301097274E-1,-1.333998591E-1,9.904491425E0
1.735881843E0,-1.372881979E-1,-1.576271951E-1,9.880562782E0
1.738325281E0,-1.205384433E-1,-1.357926875E-1,9.875777245E0
1.740769656E0,-1.325025558E-1,-1.214357466E-1,9.866206169E0
1.743214760E0,-1.205384433E-1,-1.310070455E-1,9.892526627E0
1.745659031E0,-1.348953694E-1,-1.504487246E-1,9.882955551E0
1.748102520E0,-1.253240854E-1,-1.429711580E-1,9.866206169E0
1.750546843E0,-1.277169138E-1,-1.357926875E-1,9.868598938E0
1.752991947E0,-1.157527938E-1,-1.333998591E-1,9.899705887E0
1.755436270E0,-1.301097274E-1,-1.381855011E-1,9.899705887E0
1.757879708E0,-1.229312643E-1,-1.357926875E-1,9.882955551E0
1.760324083E0,-1.301097274E-1,-1.262213886E-1,9.880562782E0
1.762769187E0,-1.420738399E-1,-1.333998591E-1,9.890133858E0
1.765213458E0,-1.277169138E-1,-1.381855011E-1,9.868598938E0
1.767656947E0,-1.181456149E-1,-1.405783296E-1,9.887741089E0
1.770101270E0,-1.372881979E-1,-1.286142170E-1,9.887741089E0
1.772546374E0,-1.277169138E-1,-1.286142170E-1,9.880562782E0
1.774990697E0,-1.468594968E-1,-1.405783296E-1,9.873384476E0
1.777434135E0,-1.492523104E-1,-1.480558962E-1,9.861420631E0
1.779878510E0,-1.301097274E-1,-1.357926875E-1,9.868598938E0
1.782323614E0,-1.277169138E-1,-1.286142170E-1,9.882955551E0
1.784767885E0,-1.325025558E-1,-1.357926875E-1,9.885348320E0
1.787211374E0,-1.229312643E-1,-1.310070455E-1,9.878170013E0
1.789655697E0,-1.468594968E-1,-1.118644550E-1,9.885348320E0
1.792100801E0,-1.444666684E-1,-1.333998591E-1,9.899705887E0
1.794545124E0,-1.348953694E-1,-1.286142170E-1,9.892526627E0
1.796988562E0,-1.372881979E-1,-1.262213886E-1,9.861420631E0
1.799432937E0,-1.372881979E-1,-1.405783296E-1,9.899705887E0
1.801878041E0,-1.420738399E-1,-1.262213886E-1,9.899705887E0
1.804322364E0,-1.372881979E-1,-1.381855011E-1,9.873384476E0
1.806765801E0,-1.301097274E-1,-1.333998591E-1,9.866206169E0
1.809210176E0,-1.325025558E-1,-1.333998591E-1,9.882955551E0
1.811655281E0,-1.085743308E-1,-1.310070455E-1,9.885348320E0
1.814099551E0,-1.444666684E-1,-1.190429255E-1,9.870991707E0
1.816543041E0,-1.229312643E-1,-1.357926875E-1,9.861420631E0
1.818987364E0,-1.325025558E-1,-1.453639716E-1,9.878170013E0
1.821432468E0,-1.468594968E-1,-1.357926875E-1,9.892526627E0
1.823876791E0,-1.253240854E-1,-1.504487246E-1,9.892526627E0
1.826320229E0,-1.301097274E-1,-1.238285750E-1,9.866206169E0
1.828764604E0,-1.468594968E-1,-1.262213886E-1,9.882955551E0
1.831209708E0,-1.348953694E-1,-1.310070455E-1,9.873384476E0
1.833653979E0,-1.325025558E-1,-1.310070455E-1,9.885348320E0
1.836097468E0,-1.444666684E-1,-1.286142170E-1,9.885348320E0
1.838541791E0,-1.325025558E-1,-1.286142170E-1,9.885348320E0
1.840986895E0,-1.492523104E-1,-1.528415531E-1,9.887741089E0
1.843431218E0,-1.277169138E-1,-1.624128371E-1,9.894919395E0
1.845874656E0,-1.372881979E-1,-1.381855011E-1,9.880562782E0
1.848319031E0,-1.229312643E-1,-1.286142170E-1,9.882955551E0
1.850764135E0,-1.468594968E-1,-1.333998591E-1,9.878170013E0
1.853208458E0,-1.253240854E-1,-1.552343667E-1,9.892526627E0
1.855651895E0,-1.492523104E-1,-1.381855011E-1,9.868598938E0
1.858096270E0,-1.301097274E-1,-1.310070455E-1,9.875777245E0
1.860541322E0,-1.229312643E-1,-1.381855011E-1,9.868598938E0
1.862985645E0,-1.325025558E-1,-1.357926875E-1,9.899705887E0
1.865429135E0,-1.468594968E-1,-1.528415531E-1,9.885348320E0
1.867873458E0,-1.564307809E-1,-1.333998591E-1,9.885348320E0
1.870318562E0,-1.396810263E-1,-1.262213886E-1,9.873384476E0
1.872762885E0,-1.396810263E-1,-1.262213886E-1,9.882955551E0
1.875206322E0,-1.348953694E-1,-1.214357466E-1,9.885348320E0
1.877650697E0,-1.348953694E-1,-1.286142170E-1,9.885348320E0
1.880095801E0,-1.396810263E-1,-1.333998591E-1,9.887741089E0
1.882540072E0,-1.444666684E-1,-1.333998591E-1,9.890133858E0
1.884983562E0,-1.205384433E-1,-1.310070455E-1,9.878170013E0
1.887427885E0,-1.253240854E-1,-1.310070455E-1,9.863813400E0
1.889872989E0,-1.253240854E-1,-1.262213886E-1,9.894919395E0
1.892317312E0,-1.301097274E-1,-1.357926875E-1,9.902098656E0
1.894760749E0,-1.277169138E-1,-1.429711580E-1,9.909276962E0
1.897205124E0,-1.396810263E-1,-1.262213886E-1,9.861420631E0
1.899650229E0,-1.205384433E-1,-1.357926875E-1,9.890133858E0
1.902094499E0,-1.420738399E-1,-1.357926875E-1,9.899705887E0
1.904537989E0,-1.348953694E-1,-1.333998591E-1,9.873384476E0
1.906982312E0,-1.325025558E-1,-1.600200087E-1,9.861420631E0
1.909427416E0,-1.444666684E-1,-1.310070455E-1,9.866206169E0
1.911871739E0,-1.372881979E-1,-1.357926875E-1,9.875777245E0
1.914315176E0,-1.468594968E-1,-1.453639716E-1,9.902098656E0
1.916759551E0,-1.301097274E-1,-1.480558962E-1,9.892526627E0
1.919204656E0,-1.277169138E-1,-1.286142170E-1,9.885348320E0
1.921648979E0,-1.253240854E-1,-1.357926875E-1,9.885348320E0
1.924092416E0,-1.229312643E-1,-1.381855011E-1,9.890133858E0
1.926536791E0,-1.325025558E-1,-1.405783296E-1,9.870991707E0
1.928981843E0,-1.492523104E-1,-1.286142170E-1,9.882955551E0
1.931426166E0,-1.372881979E-1,-1.504487246E-1,9.887741089E0
1.933869604E0,-1.325025558E-1,-1.552343667E-1,9.882955551E0
1.936313979E0,-1.396810263E-1,-1.357926875E-1,9.866206169E0
1.938759083E0,-1.325025558E-1,-1.381855011E-1,9.859027863E0
1.941203406E0,-1.348953694E-1,-1.214357466E-1,9.897313118E0
1.943646843E0,-1.444666684E-1,-1.310070455E-1,9.899705887E0
1.946091218E0,-1.085743308E-1,-1.405783296E-1,9.887741089E0
1.948536322E0,-1.277169138E-1,-1.238285750E-1,9.866206169E0
1.950980593E0,-1.301097274E-1,-1.238285750E-1,9.878170013E0
1.953424083E0,-1.325025558E-1,-1.504487246E-1,9.890133858E0
1.955868406E0,-1.396810263E-1,-1.310070455E-1,9.890133858E0
1.958313510E0,-1.492523104E-1,-1.453639716E-1,9.885348320E0
1.960757833E0,-1.372881979E-1,-1.528415531E-1,9.894919395E0
1.963201270E0,-1.420738399E-1,-1.333998591E-1,9.880562782E0
1.965645645E0,-1.516451389E-1,-1.238285750E-1,9.892526627E0
1.968090749E0,-1.301097274E-1,-1.333998591E-1,9.875777245E0
1.970535020E0,-1.301097274E-1,-1.429711580E-1,9.890133858E0
1.972978510E0,-1.205384433E-1,-1.286142170E-1,9.899705887E0
1.975422833E0,-1.396810263E-1,-1.453639716E-1,9.911669731E0
1.977867937E0,-1.325025558E-1,-1.333998591E-1,9.880562782E0
1.980312260E0,-1.396810263E-1,-1.405783296E-1,9.868598938E0
1.982755697E0,-1.277169138E-1,-1.357926875E-1,9.885348320E0
1.985200072E0,-1.157527938E-1,-1.429711580E-1,9.880562782E0
1.987645176E0,-1.157527938E-1,-1.310070455E-1,9.873384476E0
1.990089499E0,-1.229312643E-1,-1.429711580E-1,9.878170013E0
1.992532937E0,-1.109671518E-1,-1.333998591E-1,9.897313118E0
1.994977312E0,-1.109671518E-1,-1.214357466E-1,9.880562782E0
1.997422364E0,-1.612164229E-1,-1.238285750E-1,9.866206169E0
1.999866687E0,-1.301097274E-1,-1.094716340E-1,9.894919395E0
2.002310124E0,-1.157527938E-1,-1.453639716E-1,9.890133858E0
2.004754499E0,-1.325025558E-1,-1.310070455E-1,9.887741089E0
2.007199604E0,-1.348953694E-1,-1.214357466E-1,9.863813400E0
2.009643926E0,-1.157527938E-1,-1.238285750E-1,9.880562782E0
2.012087364E0,-1.277169138E-1,-1.381855011E-1,9.887741089E0
2.014531739E0,-1.205384433E-1,-1.357926875E-1,9.880562782E0
2.016976843E0,-1.253240854E-1,-1.381855011E-1,9.856635094E0
2.019421114E0,-1.157527938E-1,-1.262213886E-1,9.880562782E0
2.021864604E0,-1.277169138E-1,-1.262213886E-1,9.894919395E0
2.024308926E0,-1.229312643E-1,-1.576271951E-1,9.887741089E0
2.026754031E0,-1.420738399E-1,-1.190429255E-1,9.882955551E0
2.029198354E0,-1.420738399E-1,-1.238285750E-1,9.885348320E0
2.031641791E0,-1.253240854E-1,-1.190429255E-1,9.878170013E0
2.034086166E0,-1.348953694E-1,-1.405783296E-1,9.882955551E0
2.036531270E0,-1.348953694E-1,-1.238285750E-1,9.873384476E0
2.038975541E0,-1.325025558E-1,-1.333998591E-1,9.878170013E0
2.041419031E0,-1.133599728E-1,-1.310070455E-1,9.887741089E0
2.043863354E0,-1.109671518E-1,-1.453639716E-1,9.892526627E0
2.046308458E0,-1.229312643E-1,-1.453639716E-1,9.854242325E0
2.048752781E0,-1.277169138E-1,-1.357926875E-1,9.882955551E0
2.051196218E0,-1.325025558E-1,-1.504487246E-1,9.878170013E0
2.053640593E0,-1.492523104E-1,-1.333998591E-1,9.906884193E0
2.056085697E0,-1.277169138E-1,-1.405783296E-1,9.878170013E0
2.058530020E0,-1.301097274E-1,-1.357926875E-1,9.868598938E0
2.060973458E0,-1.396810263E-1,-1.357926875E-1,9.887741089E0
2.063417833E0,-1.157527938E-1,-1.238285750E-1,9.882955551E0
2.065862885E0,-1.253240854E-1,-1.453639716E-1,9.887741089E0
2.068307208E0,-1.133599728E-1,-1.214357466E-1,9.875777245E0
2.070750645E0,-1.205384433E-1,-1.262213886E-1,9.880562782E0
2.073195020E0,-1.348953694E-1,-1.310070455E-1,9.921240807E0
2.075640124E0,-1.133599728E-1,-1.528415531E-1,9.873384476E0
2.078084447E0,-1.348953694E-1,-1.214357466E-1,9.878170013E0
2.080527885E0,-1.181456149E-1,-1.310070455E-1,9.885348320E0
2.082972260E0,-1.253240854E-1,-1.429711580E-1,9.870991707E0
2.085417364E0,-1.181456149E-1,-1.381855011E-1,9.892526627E0
2.087861635E0,-1.229312643E-1,-1.333998591E-1,9.878170013E0
2.090305124E0,-1.229312643E-1,-1.286142170E-1,9.859027863E0
2.092749447E0,-1.277169138E-1,-1.453639716E-1,9.887741089E0
2.095194551E0,-1.277169138E-1,-1.142572835E-1,9.892526627E0
2.097638874E0,-1.348953694E-1,-1.357926875E-1,9.880562782E0
2.100082312E0,-1.157527938E-1,-1.333998591E-1,9.875777245E0
2.102526687E0,-1.181456149E-1,-1.214357466E-1,9.906884193E0
2.104971791E0,-1.444666684E-1,-1.310070455E-1,9.890133858E0
2.107416062E0,-1.468594968E-1,-1.238285750E-1,9.870991707E0
2.109859551E0,-1.109671518E-1,-1.405783296E-1,9.894919395E0
2.112303874E0,-1.348953694E-1,-1.357926875E-1,9.892526627E0
2.114748979E0,-1.420738399E-1,-1.286142170E-1,9.892526627E0
2.117193301E0,-1.444666684E-1,-1.624128371E-1,9.880562782E0
2.119636739E0,-1.348953694E-1,-1.166501045E-1,9.863813400E0
2.122081114E0,-1.277169138E-1,-1.190429255E-1,9.870991707E0
2.124526218E0,-1.492523104E-1,-1.333998591E-1,9.863813400E0
2.126970489E0,-1.396810263E-1,-1.381855011E-1,9.870991707E0
2.129413979E0,-1.396810263E-1,-1.381855011E-1,9.859027863E0
2.131858354E0,-1.205384433E-1,-1.576271951E-1,9.894919395E0
2.134303406E0,-1.205384433E-1,-1.357926875E-1,9.902098656E0
2.136747729E0,-1.301097274E-1,-1.310070455E-1,9.882955551E0
2.139191166E0,-1.444666684E-1,-1.310070455E-1,9.863813400E0
2.141635541E0,-1.492523104E-1,-1.238285750E-1,9.880562782E0
2.144080645E0,-1.396810263E-1,-1.333998591E-1,9.890133858E0
2.146524968E0,-1.468594968E-1,-1.381855011E-1,9.875777245E0
2.148968406E0,-1.396810263E-1,-1.190429255E-1,9.894919395E0
2.151412781E0,-1.181456149E-1,-1.429711580E-1,9.890133858E0
2.153857833E0,-1.205384433E-1,-1.405783296E-1,9.899705887E0
2.156302156E0,-1.444666684E-1,-1.262213886E-1,9.880562782E0
2.158745645E0,-1.133599728E-1,-1.480558962E-1,9.897313118E0
2.161189968E0,-1.277169138E-1,-1.381855011E-1,9.868598938E0
2.163635072E0,-1.205384433E-1,-1.381855011E-1,9.885348320E0
2.166079395E0,-1.444666684E-1,-1.310070455E-1,9.870991707E0
2.168522833E0,-1.205384433E-1,-1.310070455E-1,9.873384476E0
2.170967208E0,-1.277169138E-1,-1.333998591E-1,9.892526627E0
2.173412312E0,-1.205384433E-1,-1.286142170E-1,9.887741089E0
2.175856583E0,-1.348953694E-1,-1.310070455E-1,9.887741089E0
2.178300072E0,-1.205384433E-1,-1.405783296E-1,9.878170013E0
2.180744395E0,-1.396810263E-1,-1.429711580E-1,9.894919395E0
2.183189499E0,-1.109671518E-1,-1.405783296E-1,9.866206169E0
2.185633822E0,-1.444666684E-1,-1.286142170E-1,9.870991707E0
2.188077260E0,-1.277169138E-1,-1.310070455E-1,9.863813400E0
2.190521635E0,-1.229312643E-1,-1.405783296E-1,9.892526627E0
2.192966739E0,-1.277169138E-1,-1.453639716E-1,9.902098656E0
2.195411010E0,-1.468594968E-1,-1.429711580E-1,9.894919395E0
2.197854499E0,-1.348953694E-1,-1.190429255E-1,9.880562782E0
2.200298822E0,-1.420738399E-1,-1.453639716E-1,9.902098656E0
2.202743926E0,-1.372881979E-1,-1.070788130E-1,9.906884193E0
2.205188249E0,-1.277169138E-1,-1.238285750E-1,9.887741089E0
2.207631687E0,-1.301097274E-1,-1.214357466E-1,9.868598938E0
2.210076062E0,-1.085743308E-1,-1.142572835E-1,9.892526627E0
2.212521166E0,-1.396810263E-1,-1.453639716E-1,9.918848038E0
2.214965489E0,-1.396810263E-1,-1.357926875E-1,9.890133858E0
2.217408926E0,-1.420738399E-1,-1.214357466E-1,9.878170013E0
2.219853301E0,-1.277169138E-1,-1.310070455E-1,9.875777245E0
2.222298354E0,-1.325025558E-1,-1.286142170E-1,9.894919395E0
2.224742676E0,-1.301097274E-1,-1.552343667E-1,9.878170013E0
2.227186114E0,-1.348953694E-1,-1.286142170E-1,9.866206169E0
2.229630489E0,-1.301097274E-1,-1.310070455E-1,9.849455833E0
2.232075593E0,-1.396810263E-1,-1.357926875E-1,9.885348320E0
2.234519916E0,-1.301097274E-1,-1.286142170E-1,9.899705887E0
2.236963354E0,-1.325025558E-1,-1.238285750E-1,9.861420631E0
2.239407729E0,-1.301097274E-1,-1.310070455E-1,9.887741089E0
2.241852833E0,-1.372881979E-1,-1.405783296E-1,9.887741089E0
2.244297104E0,-1.348953694E-1,-1.262213886E-1,9.885348320E0
2.246740593E0,-1.396810263E-1,-1.310070455E-1,9.859027863E0
2.249184916E0,-1.301097274E-1,-1.357926875E-1,9.882955551E0
2.251630020E0,-1.253240854E-1,-1.528415531E-1,9.885348320E0
2.254074343E0,-1.253240854E-1,-1.453639716E-1,9.892526627E0
2.256517781E0,-1.229312643E-1,-1.310070455E-1,9.863813400E0
2.258962156E0,-1.301097274E-1,-1.214357466E-1,9.880562782E0
2.261407260E0,-1.229312643E-1,-1.429711580E-1,9.887741089E0
2.263851531E0,-1.325025558E-1,-1.310070455E-1,9.899705887E0
2.266295020E0,-1.372881979E-1,-1.357926875E-1,9.866206169E0
2.268739395E0,-1.277169138E-1,-1.381855011E-1,9.854242325E0
2.271184447E0,-1.277169138E-1,-1.453639716E-1,9.875777245E0
2.273628770E0,-1.157527938E-1,-1.480558962E-1,9.868598938E0
2.276072208E0,-1.325025558E-1,-1.262213886E-1,9.890133858E0
2.278516583E0,-1.348953694E-1,-1.286142170E-1,9.887741089E0
2.280961687E0,-1.253240854E-1,-1.429711580E-1,9.899705887E0
2.283406010E0,-1.372881979E-1,-1.286142170E-1,9.892526627E0
2.285849447E0,-1.420738399E-1,-1.405783296E-1,9.861420631E0
2.288293822E0,-1.325025558E-1,-1.286142170E-1,9.866206169E0
2.290738874E0,-1.396810263E-1,-1.310070455E-1,9.868598938E0
2.293183197E0,-1.396810263E-1,-1.429711580E-1,9.887741089E0
2.295626635E0,-1.277169138E-1,-1.381855011E-1,9.856635094E0
2.298071010E0,-1.301097274E-1,-1.381855011E-1,9.873384476E0
2.300516114E0,-1.325025558E-1,-1.381855011E-1,9.878170013E0
2.302960437E0,-1.348953694E-1,-1.333998591E-1,9.911669731E0
2.305403874E0,-1.492523104E-1,-1.310070455E-1,9.890133858E0
2.307848249E0,-1.325025558E-1,-1.405783296E-1,9.878170013E0
2.310293354E0,-1.420738399E-1,-1.504487246E-1,9.918848038E0
2.312737624E0,-1.396810263E-1,-1.504487246E-1,9.904491425E0
2.315181114E0,-1.420738399E-1,-1.214357466E-1,9.894919395E0
2.317625437E0,-1.229312643E-1,-1.333998591E-1,9.875777245E0
2.320070541E0,-1.253240854E-1,-1.333998591E-1,9.894919395E0
2.322514864E0,-1.420738399E-1,-1.405783296E-1,9.899705887E0
2.324958301E0,-1.396810263E-1,-1.357926875E-1,9.866206169E0
2.327402676E0,-1.277169138E-1,-1.552343667E-1,9.880562782E0
2.329847781E0,-1.157527938E-1,-1.528415531E-1,9.892526627E0
2.332292051E0,-1.301097274E-1,-1.357926875E-1,9.892526627E0
2.334735541E0,-1.348953694E-1,-1.357926875E-1,9.861420631E0
2.337179864E0,-1.420738399E-1,-1.405783296E-1,9.859027863E0
2.339624968E0,-1.253240854E-1,-1.166501045E-1,9.894919395E0
2.342069291E0,-1.444666684E-1,-1.262213886E-1,9.894919395E0
2.344512729E0,-1.564307809E-1,-1.310070455E-1,9.902098656E0
2.346957104E0,-1.396810263E-1,-1.238285750E-1,9.882955551E0
2.349402208E0,-1.348953694E-1,-1.405783296E-1,9.875777245E0
2.351846479E0,-1.205384433E-1,-1.480558962E-1,9.880562782E0
2.354289968E0,-1.181456149E-1,-1.333998591E-1,9.878170013E0
2.356734291E0,-1.205384433E-1,-1.286142170E-1,9.875777245E0
2.359179395E0,-1.277169138E-1,-1.381855011E-1,9.897313118E0
2.361623718E0,-1.253240854E-1,-1.142572835E-1,9.863813400E0
2.364067156E0,-1.133599728E-1,-1.381855011E-1,9.894919395E0
2.366511531E0,-1.325025558E-1,-1.480558962E-1,9.870991707E0
2.368956635E0,-1.372881979E-1,-1.166501045E-1,9.906884193E0
2.371400958E0,-1.396810263E-1,-1.480558962E-1,9.887741089E0
2.373844395E0,-1.229312643E-1,-1.333998591E-1,9.906884193E0
2.376288770E0,-1.564307809E-1,-1.357926875E-1,9.875777245E0
2.378733822E0,-1.348953694E-1,-1.333998591E-1,9.866206169E0
2.381178145E0,-1.444666684E-1,-1.238285750E-1,9.899705887E0
2.383621583E0,-1.157527938E-1,-1.238285750E-1,9.880562782E0
2.386065958E0,-1.396810263E-1,-1.262213886E-1,9.866206169E0
2.388511062E0,-1.253240854E-1,-1.286142170E-1,9.882955551E0
2.390955385E0,-1.253240854E-1,-1.357926875E-1,9.885348320E0
2.393398822E0,-1.037886813E-1,-1.286142170E-1,9.885348320E0
2.395843197E0,-1.253240854E-1,-1.333998591E-1,9.851848602E0
2.398288301E0,-1.420738399E-1,-1.381855011E-1,9.866206169E0
2.400732572E0,-1.396810263E-1,-1.405783296E-1,9.887741089E0
2.403176062E0,-1.277169138E-1,-1.286142170E-1,9.894919395E0
2.405620385E0,-1.348953694E-1,-1.142572835E-1,9.890133858E0
2.408065489E0,-1.301097274E-1,-1.238285750E-1,9.851848602E0
2.410509812E0,-1.348953694E-1,-1.405783296E-1,9.880562782E0
2.412953249E0,-1.157527938E-1,-1.333998591E-1,9.863813400E0
2.415397624E0,-1.516451389E-1,-1.600200087E-1,9.880562782E0
2.417842729E0,-1.396810263E-1,-1.528415531E-1,9.875777245E0
2.420286999E0,-1.157527938E-1,-1.480558962E-1,9.863813400E0
2.422730489E0,-1.061815023E-1,-1.381855011E-1,9.902098656E0
2.425174812E0,-1.253240854E-1,-1.262213886E-1,9.878170013E0
2.427619916E0,-1.492523104E-1,-1.405783296E-1,9.868598938E0
2.430064239E0,-1.396810263E-1,-1.504487246E-1,9.894919395E0
2.432507676E0,-1.277169138E-1,-1.286142170E-1,9.909276962E0
2.434952051E0,-1.348953694E-1,-1.357926875E-1,9.868598938E0
2.437397156E0,-1.372881979E-1,-1.238285750E-1,9.882955551E0
2.439841479E0,-1.396810263E-1,-1.142572835E-1,9.887741089E0
2.442284916E0,-1.061815023E-1,-1.262213886E-1,9.882955551E0
2.444729291E0,-1.492523104E-1,-1.576271951E-1,9.887741089E0
2.447174343E0,-1.420738399E-1,-1.357926875E-1,9.902098656E0
2.449618666E0,-1.372881979E-1,-1.357926875E-1,9.887741089E0
2.452062104E0,-1.229312643E-1,-1.405783296E-1,9.892526627E0
2.454506479E0,-1.468594968E-1,-1.429711580E-1,9.887741089E0
2.456951583E0,-1.396810263E-1,-1.286142170E-1,9.863813400E0
2.459395906E0,-1.157527938E-1,-1.429711580E-1,9.868598938E0
2.461839343E0,-1.157527938E-1,-1.333998591E-1,9.899705887E0
2.464283718E0,-1.396810263E-1,-1.190429255E-1,9.878170013E0
2.466728822E0,-1.037886813E-1,-1.453639716E-1,9.882955551E0
2.469173093E0,-1.277169138E-1,-1.238285750E-1,9.885348320E0
2.471616583E0,-1.516451389E-1,-1.262213886E-1,9.882955551E0
2.474060906E0,-1.492523104E-1,-1.381855011E-1,9.902098656E0
2.476506010E0,-1.396810263E-1,-1.480558962E-1,9.894919395E0
2.478950333E0,-1.301097274E-1,-1.238285750E-1,9.885348320E0
2.481393770E0,-1.301097274E-1,-1.286142170E-1,9.906884193E0
2.483838145E0,-1.396810263E-1,-1.262213886E-1,9.885348320E0
2.486283249E0,-1.277169138E-1,-1.504487246E-1,9.880562782E0
2.488727520E0,-1.492523104E-1,-1.357926875E-1,9.885348320E0
2.491171010E0,-1.325025558E-1,-1.381855011E-1,9.890133858E0
2.493615333E0,-1.109671518E-1,-1.286142170E-1,9.899705887E0
2.496060437E0,-1.396810263E-1,-1.357926875E-1,9.878170013E0
2.498504760E0,-1.444666684E-1,-1.333998591E-1,9.887741089E0
2.500948197E0,-1.372881979E-1,-1.405783296E-1,9.875777245E0
2.503392572E0,-1.277169138E-1,-1.429711580E-1,9.863813400E0
2.505837676E0,-1.301097274E-1,-1.767697781E-1,9.863813400E0
2.508281947E0,-1.396810263E-1,-1.429711580E-1,9.868598938E0
2.510725437E0,-9.900303930E-2,-1.405783296E-1,9.870991707E0
2.513169760E0,-1.157527938E-1,-1.357926875E-1,9.887741089E0
2.515614864E0,-1.205384433E-1,-1.286142170E-1,9.878170013E0
2.518059187E0,-1.540379524E-1,-1.286142170E-1,9.875777245E0
2.520502624E0,-1.396810263E-1,-1.333998591E-1,9.863813400E0
2.522946999E0,-1.372881979E-1,-1.310070455E-1,9.892526627E0
2.525392104E0,-1.396810263E-1,-1.480558962E-1,9.866206169E0
2.527836426E0,-1.372881979E-1,-1.310070455E-1,9.875777245E0
2.530279864E0,-1.396810263E-1,-1.381855011E-1,9.882955551E0
2.532724239E0,-1.253240854E-1,-1.310070455E-1,9.897313118E0
2.535169291E0,-1.133599728E-1,-1.429711580E-1,9.882955551E0
2.537613614E0,-1.396810263E-1,-1.310070455E-1,9.849455833E0
2.540057051E0,-1.420738399E-1,-1.310070455E-1,9.890133858E0
2.542501426E0,-1.564307809E-1,-1.333998591E-1,9.892526627E0
2.544946531E0,-1.396810263E-1,-1.333998591E-1,9.866206169E0
2.547390854E0,-1.325025558E-1,-1.357926875E-1,9.868598938E0
2.549834291E0,-1.372881979E-1,-1.310070455E-1,9.887741089E0
2.552278666E0,-1.420738399E-1,-1.405783296E-1,9.880562782E0
2.554723770E0,-1.325025558E-1,-1.381855011E-1,9.873384476E0
2.557168041E0,-1.301097274E-1,-1.357926875E-1,9.880562782E0
2.559611531E0,-1.181456149E-1,-1.166501045E-1,9.885348320E0
2.562055854E0,-1.253240854E-1,-1.333998591E-1,9.880562782E0
2.564500958E0,-1.420738399E-1,-1.333998591E-1,9.887741089E0
2.566945281E0,-1.253240854E-1,-1.480558962E-1,9.870991707E0
2.569388718E0,-1.229312643E-1,-1.310070455E-1,9.880562782E0
2.571833093E0,-1.277169138E-1,-1.381855011E-1,9.861420631E0
2.574278197E0,-1.229312643E-1,-1.405783296E-1,9.861420631E0
2.576722468E0,-1.468594968E-1,-1.381855011E-1,9.875777245E0
2.579165958E0,-1.301097274E-1,-1.405783296E-1,9.887741089E0
2.581610281E0,-1.181456149E-1,-1.166501045E-1,9.890133858E0
2.584055385E0,-1.372881979E-1,-1.381855011E-1,9.902098656E0
2.586499708E0,-1.372881979E-1,-1.429711580E-1,9.880562782E0
2.588943145E0,-1.205384433E-1,-1.453639716E-1,9.882955551E0
2.591387520E0,-1.157527938E-1,-1.357926875E-1,9.904491425E0
2.593832624E0,-1.253240854E-1,-1.381855011E-1,9.873384476E0
2.596276895E0,-1.253240854E-1,-1.333998591E-1,9.878170013E0
2.598720385E0,-1.205384433E-1,-1.333998591E-1,9.878170013E0
2.601164708E0,-1.301097274E-1,-1.405783296E-1,9.894919395E0
2.603609812E0,-1.229312643E-1,-1.504487246E-1,9.863813400E0
2.606054135E0,-1.277169138E-1,-1.333998591E-1,9.880562782E0
2.608497572E0,-1.133599728E-1,-1.190429255E-1,9.885348320E0
2.610941947E0,-1.181456149E-1,-1.238285750E-1,9.904491425E0
2.613387051E0,-1.420738399E-1,-1.480558962E-1,9.890133858E0
2.615831322E0,-1.372881979E-1,-1.286142170E-1,9.878170013E0
2.618274812E0,-1.420738399E-1,-1.480558962E-1,9.873384476E0
2.620719187E0,-1.420738399E-1,-1.480558962E-1,9.899705887E0
2.623164239E0,-1.253240854E-1,-1.405783296E-1,9.873384476E0
2.625608562E0,-1.468594968E-1,-1.238285750E-1,9.890133858E0
2.628051999E0,-1.372881979E-1,-1.429711580E-1,9.911669731E0
2.630496374E0,-1.301097274E-1,-1.552343667E-1,9.894919395E0
2.632941479E0,-1.396810263E-1,-1.357926875E-1,9.890133858E0
2.635385801E0,-1.348953694E-1,-1.381855011E-1,9.885348320E0
2.637829239E0,-1.420738399E-1,-1.504487246E-1,9.878170013E0
2.640273614E0,-1.325025558E-1,-1.429711580E-1,9.892526627E0
2.642718718E0,-1.277169138E-1,-1.429711580E-1,9.885348320E0
2.645162989E0,-1.468594968E-1,-1.333998591E-1,9.882955551E0
2.647606479E0,-1.348953694E-1,-1.504487246E-1,9.875777245E0
2.650050801E0,-1.348953694E-1,-1.429711580E-1,9.904491425E0
2.652495906E0,-1.301097274E-1,-1.214357466E-1,9.916455269E0
2.654940229E0,-1.420738399E-1,-1.262213886E-1,9.885348320E0
2.657383666E0,-1.348953694E-1,-1.381855011E-1,9.880562782E0
2.659828041E0,-1.325025558E-1,-1.310070455E-1,9.904491425E0
2.662273145E0,-1.325025558E-1,-1.333998591E-1,9.861420631E0
2.664717416E0,-1.420738399E-1,-1.333998591E-1,9.885348320E0
2.667160906E0,-1.253240854E-1,-1.528415531E-1,9.880562782E0
2.669605229E0,-1.229312643E-1,-1.453639716E-1,9.882955551E0
2.672050333E0,-1.301097274E-1,-1.333998591E-1,9.909276962E0
2.674494656E0,-1.420738399E-1,-1.286142170E-1,9.890133858E0
2.676938093E0,-1.253240854E-1,-1.214357466E-1,9.878170013E0
2.679382468E0,-1.205384433E-1,-1.381855011E-1,9.885348320E0
2.681827572E0,-1.133599728E-1,-1.310070455E-1,9.890133858E0
2.684271843E0,-1.396810263E-1,-1.381855011E-1,9.885348320E0
2.686715333E0,-1.301097274E-1,-1.405783296E-1,9.873384476E0
2.689159656E0,-1.372881979E-1,-1.453639716E-1,9.873384476E0
2.691604760E0,-1.133599728E-1,-1.429711580E-1,9.892526627E0
2.694049083E0,-1.253240854E-1,-1.504487246E-1,9.890133858E0
2.696492520E0,-1.301097274E-1,-1.453639716E-1,9.873384476E0
2.698936895E0,-1.181456149E-1,-1.262213886E-1,9.894919395E0
2.701381999E0,-1.181456149E-1,-1.214357466E-1,9.894919395E0
2.703826322E0,-1.253240854E-1,-1.381855011E-1,9.902098656E0
2.706269760E0,-1.372881979E-1,-1.429711580E-1,9.892526627E0
2.708714083E0,-1.253240854E-1,-1.357926875E-1,9.894919395E0
2.711159187E0,-1.492523104E-1,-1.238285750E-1,9.875777245E0
2.713603510E0,-1.181456149E-1,-1.453639716E-1,9.887741089E0
2.716046947E0,-1.253240854E-1,-1.405783296E-1,9.878170013E0
2.718491322E0,-1.205384433E-1,-1.357926875E-1,9.897313118E0
2.720936426E0,-1.540379524E-1,-1.118644550E-1,9.894919395E0
2.723380749E0,-1.277169138E-1,-1.405783296E-1,9.897313118E0
2.725824187E0,-1.277169138E-1,-1.405783296E-1,9.870991707E0
2.728268562E0,-1.301097274E-1,-1.286142170E-1,9.875777245E0
2.730713666E0,-1.253240854E-1,-1.504487246E-1,9.880562782E0
2.733157937E0,-1.157527938E-1,-1.381855011E-1,9.854242325E0
2.735601426E0,-1.277169138E-1,-1.381855011E-1,9.878170013E0
2.738045749E0,-1.348953694E-1,-1.357926875E-1,9.873384476E0
2.740490854E0,-1.301097274E-1,-1.238285750E-1,9.873384476E0
2.742935176E0,-1.109671518E-1,-1.429711580E-1,9.894919395E0
2.745378614E0,-1.229312643E-1,-1.381855011E-1,9.887741089E0
2.747822989E0,-1.372881979E-1,-1.624128371E-1,9.890133858E0
2.750268093E0,-1.301097274E-1,-1.286142170E-1,9.892526627E0
2.752712364E0,-1.372881979E-1,-1.357926875E-1,9.911669731E0
2.755155854E0,-1.396810263E-1,-1.357926875E-1,9.875777245E0
2.757600176E0,-1.325025558E-1,-1.381855011E-1,9.875777245E0
2.760045281E0,-1.348953694E-1,-1.453639716E-1,9.892526627E0
2.762489604E0,-1.420738399E-1,-1.310070455E-1,9.873384476E0
2.764933041E0,-1.229312643E-1,-1.405783296E-1,9.866206169E0
2.767377416E0,-1.229312643E-1,-1.333998591E-1,9.873384476E0
2.769822520E0,-1.253240854E-1,-1.286142170E-1,9.899705887E0
2.772266791E0,-1.372881979E-1,-1.381855011E-1,9.914062500E0
2.774710281E0,-1.205384433E-1,-1.504487246E-1,9.885348320E0
2.777154604E0,-1.396810263E-1,-1.333998591E-1,9.847063065E0
2.779599708E0,-1.253240854E-1,-1.357926875E-1,9.894919395E0
2.782044031E0,-1.396810263E-1,-1.429711580E-1,9.880562782E0
2.784487468E0,-1.181456149E-1,-1.310070455E-1,9.880562782E0
2.786931843E0,-1.301097274E-1,-1.286142170E-1,9.882955551E0
2.789376947E0,-1.301097274E-1,-1.310070455E-1,9.885348320E0
2.791821218E0,-1.229312643E-1,-1.286142170E-1,9.899705887E0
2.794264708E0,-1.396810263E-1,-1.357926875E-1,9.885348320E0
2.796709031E0,-1.492523104E-1,-1.405783296E-1,9.863813400E0
2.799154135E0,-1.325025558E-1,-1.262213886E-1,9.875777245E0
2.801598458E0,-1.205384433E-1,-1.286142170E-1,9.885348320E0
2.804041895E0,-1.492523104E-1,-1.453639716E-1,9.880562782E0
2.806486270E0,-1.372881979E-1,-1.429711580E-1,9.870991707E0
2.808931374E0,-1.325025558E-1,-1.381855011E-1,9.885348320E0
2.811375697E0,-1.277169138E-1,-1.262213886E-1,9.911669731E0
2.813819135E0,-1.253240854E-1,-1.453639716E-1,9.892526627E0
2.816263510E0,-1.396810263E-1,-1.310070455E-1,9.863813400E0
2.818708562E0,-1.229312643E-1,-1.453639716E-1,9.892526627E0
2.821152885E0,-1.444666684E-1,-1.286142170E-1,9.911669731E0
2.823596374E0,-1.348953694E-1,-1.429711580E-1,9.873384476E0
2.826040697E0,-1.157527938E-1,-1.286142170E-1,9.856635094E0
2.828485801E0,-1.181456149E-1,-1.310070455E-1,9.875777245E0
2.830930124E0,-1.061815023E-1,-1.405783296E-1,9.885348320E0
2.833373562E0,-1.492523104E-1,-1.381855011E-1,9.882955551E0
2.835817937E0,-1.325025558E-1,-1.166501045E-1,9.897313118E0
2.838263041E0,-1.325025558E-1,-1.357926875E-1,9.878170013E0
2.840707312E0,-1.205384433E-1,-1.333998591E-1,9.897313118E0
2.843150801E0,-1.420738399E-1,-1.576271951E-1,9.875777245E0
2.845595124E0,-1.396810263E-1,-1.405783296E-1,9.875777245E0
2.848040229E0,-1.396810263E-1,-1.504487246E-1,9.887741089E0
2.850484551E0,-1.516451389E-1,-1.333998591E-1,9.909276962E0
2.852927989E0,-1.277169138E-1,-1.528415531E-1,9.882955551E0
2.855372364E0,-1.372881979E-1,-1.429711580E-1,9.887741089E0
2.857817468E0,-1.253240854E-1,-1.286142170E-1,9.882955551E0
2.860261739E0,-1.205384433E-1,-1.190429255E-1,9.880562782E0
2.862705229E0,-1.181456149E-1,-1.333998591E-1,9.882955551E0
2.865149551E0,-1.229312643E-1,-1.286142170E-1,9.873384476E0
2.867594656E0,-1.205384433E-1,-1.381855011E-1,9.863813400E0
2.870038979E0,-1.229312643E-1,-1.357926875E-1,9.861420631E0
2.872482416E0,-1.325025558E-1,-1.405783296E-1,9.897313118E0
2.874926791E0,-1.444666684E-1,-1.504487246E-1,9.882955551E0
2.877371895E0,-1.325025558E-1,-1.357926875E-1,9.890133858E0
2.879816218E0,-1.325025558E-1,-1.310070455E-1,9.890133858E0
2.882259656E0,-1.325025558E-1,-1.190429255E-1,9.899705887E0
2.884704031E0,-1.348953694E-1,-1.453639716E-1,9.892526627E0
2.887149083E0,-1.396810263E-1,-1.286142170E-1,9.866206169E0
2.889593406E0,-1.325025558E-1,-1.333998591E-1,9.894919395E0
2.892036843E0,-1.420738399E-1,-1.310070455E-1,9.878170013E0
2.894481218E0,-1.372881979E-1,-1.357926875E-1,9.870991707E0
2.896926322E0,-1.420738399E-1,-1.381855011E-1,9.863813400E0
2.899370645E0,-1.277169138E-1,-1.480558962E-1,9.873384476E0
2.901814083E0,-1.157527938E-1,-1.357926875E-1,9.894919395E0
2.904258458E0,-1.325025558E-1,-1.357926875E-1,9.875777245E0
2.906703562E0,-1.348953694E-1,-1.333998591E-1,9.856635094E0
2.909147833E0,-1.348953694E-1,-1.333998591E-1,9.880562782E0
2.911591270E0,-1.372881979E-1,-1.333998591E-1,9.890133858E0
2.914035645E0,-1.348953694E-1,-1.333998591E-1,9.885348320E0
2.916480749E0,-1.205384433E-1,-1.405783296E-1,9.863813400E0
2.918925072E0,-1.516451389E-1,-1.381855011E-1,9.882955551E0
2.921368510E0,-1.253240854E-1,-1.333998591E-1,9.897313118E0
2.923812885E0,-1.420738399E-1,-1.453639716E-1,9.856635094E0
2.926257989E0,-1.372881979E-1,-1.333998591E-1,9.885348320E0
2.928702260E0,-1.181456149E-1,-1.357926875E-1,9.887741089E0
2.931145749E0,-1.301097274E-1,-1.286142170E-1,9.890133858E0
2.933590072E0,-1.325025558E-1,-1.648056656E-1,9.890133858E0
2.936035176E0,-1.444666684E-1,-1.429711580E-1,9.868598938E0
2.938479499E0,-1.229312643E-1,-1.480558962E-1,9.861420631E0
2.940922937E0,-1.301097274E-1,-1.453639716E-1,9.894919395E0
2.943367312E0,-1.229312643E-1,-1.528415531E-1,9.868598938E0
2.945812416E0,-1.277169138E-1,-1.381855011E-1,9.870991707E0
2.948256687E0,-1.348953694E-1,-1.262213886E-1,9.866206169E0
2.950700176E0,-1.229312643E-1,-1.405783296E-1,9.887741089E0
2.953144499E0,-1.396810263E-1,-1.405783296E-1,9.887741089E0
2.955589604E0,-1.372881979E-1,-1.357926875E-1,9.863813400E0
2.958033926E0,-1.444666684E-1,-1.528415531E-1,9.868598938E0
2.960477364E0,-1.277169138E-1,-1.429711580E-1,9.870991707E0
2.962921739E0,-1.301097274E-1,-1.429711580E-1,9.906884193E0
2.965366843E0,-1.396810263E-1,-1.286142170E-1,9.887741089E0
2.967811114E0,-1.301097274E-1,-1.190429255E-1,9.870991707E0
2.970254604E0,-1.325025558E-1,-1.166501045E-1,9.904491425E0
2.972698926E0,-1.420738399E-1,-1.190429255E-1,9.892526627E0
2.975144031E0,-1.372881979E-1,-1.310070455E-1,9.880562782E0
2.977588354E0,-1.301097274E-1,-1.333998591E-1,9.887741089E0
2.980031791E0,-1.253240854E-1,-1.166501045E-1,9.880562782E0
2.982476166E0,-1.157527938E-1,-1.214357466E-1,9.902098656E0
2.984921270E0,-1.277169138E-1,-1.118644550E-1,9.870991707E0
2.987365593E0,-1.396810263E-1,-1.286142170E-1,9.863813400E0
2.989809031E0,-1.325025558E-1,-1.480558962E-1,9.882955551E0
2.992253354E0,-1.277169138E-1,-1.286142170E-1,9.878170013E0
2.994698458E0,-1.253240854E-1,-1.286142170E-1,9.885348320E0
2.997142781E0,-1.301097274E-1,-1.405783296E-1,9.892526627E0
2.999586218E0,-1.181456149E-1,-1.286142170E-1,9.875777245E0
3.002030593E0,-1.205384433E-1,-1.262213886E-1,9.911669731E0
3.004475697E0,-1.205384433E-1,-1.381855011E-1,9.904491425E0
3.006920020E0,-1.372881979E-1,-1.453639716E-1,9.847063065E0
3.009363458E0,-1.157527938E-1,-1.453639716E-1,9.882955551E0
3.011807833E0,-1.301097274E-1,-1.429711580E-1,9.911669731E0
3.014252885E0,-1.301097274E-1,-1.453639716E-1,9.897313118E0
3.016697208E0,-1.492523104E-1,-1.262213886E-1,9.856635094E0
3.019140697E0,-1.348953694E-1,-1.381855011E-1,9.878170013E0
3.021585020E0,-1.396810263E-1,-1.357926875E-1,9.892526627E0
3.024030124E0,-1.253240854E-1,-1.405783296E-1,9.890133858E0
3.026474447E0,-1.372881979E-1,-1.405783296E-1,9.859027863E0
3.028917885E0,-1.205384433E-1,-1.238285750E-1,9.870991707E0
3.031362260E0,-1.277169138E-1,-1.310070455E-1,9.911669731E0
3.033807364E0,-1.205384433E-1,-1.238285750E-1,9.887741089E0
3.036251635E0,-1.372881979E-1,-1.262213886E-1,9.856635094E0
3.038695124E0,-1.301097274E-1,-1.310070455E-1,9.885348320E0
3.041139447E0,-1.229312643E-1,-1.142572835E-1,9.892526627E0
3.043584551E0,-1.444666684E-1,-1.310070455E-1,9.897313118E0
3.046028874E0,-1.348953694E-1,-1.528415531E-1,9.885348320E0
3.048472312E0,-1.444666684E-1,-1.286142170E-1,9.868598938E0
3.050916687E0,-1.325025558E-1,-1.429711580E-1,9.899705887E0
3.053361791E0,-1.396810263E-1,-1.333998591E-1,9.890133858E0
3.055806062E0,-1.372881979E-1,-1.286142170E-1,9.890133858E0
3.058249551E0,-1.468594968E-1,-1.453639716E-1,9.909276962E0
3.060693874E0,-1.277169138E-1,-1.429711580E-1,9.882955551E0
3.063138979E0,-1.109671518E-1,-1.310070455E-1,9.873384476E0
3.065583301E0,-1.636092514E-1,-1.333998591E-1,9.875777245E0
3.068026739E0,-1.444666684E-1,-1.453639716E-1,9.882955551E0
3.070471114E0,-1.325025558E-1,-1.504487246E-1,9.887741089E0
3.072916218E0,-1.229312643E-1,-1.286142170E-1,9.882955551E0
3.075360489E0,-1.348953694E-1,-1.429711580E-1,9.856635094E0
3.077803979E0,-1.277169138E-1,-1.528415531E-1,9.875777245E0
3.080248301E0,-1.181456149E-1,-1.333998591E-1,9.885348320E0
3.082693406E0,-1.205384433E-1,-1.405783296E-1,9.892526627E0
3.085137729E0,-1.229312643E-1,-1.576271951E-1,9.878170013E0
3.087581166E0,-1.277169138E-1,-1.453639716E-1,9.885348320E0
3.090025541E0,-1.229312643E-1,-1.310070455E-1,9.875777245E0
3.092470645E0,-1.205384433E-1,-1.528415531E-1,9.885348320E0
3.094914968E0,-1.301097274E-1,-1.310070455E-1,9.868598938E0
3.097358406E0,-1.181456149E-1,-1.504487246E-1,9.878170013E0
3.099802729E0,-1.301097274E-1,-1.381855011E-1,9.880562782E0
3.102247833E0,-1.348953694E-1,-1.453639716E-1,9.882955551E0
3.104692156E0,-1.277169138E-1,-1.429711580E-1,9.882955551E0
3.107135593E0,-1.301097274E-1,-1.480558962E-1,9.878170013E0
3.109579968E0,-1.229312643E-1,-1.333998591E-1,9.863813400E0
3.112025072E0,-1.133599728E-1,-1.381855011E-1,9.880562782E0
3.114469395E0,-1.372881979E-1,-1.381855011E-1,9.892526627E0
3.116912833E0,-1.253240854E-1,-1.214357466E-1,9.873384476E0
3.119357208E0,-1.516451389E-1,-1.381855011E-1,9.887741089E0
3.121802312E0,-1.301097274E-1,-1.405783296E-1,9.904491425E0
3.124246583E0,-1.348953694E-1,-1.405783296E-1,9.885348320E0
3.126690072E0,-1.301097274E-1,-1.453639716E-1,9.873384476E0
3.129134395E0,-1.420738399E-1,-1.405783296E-1,9.873384476E0
3.131579499E0,-1.348953694E-1,-1.214357466E-1,9.899705887E0
3.134023822E0,-1.181456149E-1,-1.405783296E-1,9.875777245E0
3.136467260E0,-1.348953694E-1,-1.262213886E-1,9.870991707E0
3.138911635E0,-1.301097274E-1,-1.429711580E-1,9.873384476E0
3.141356739E0,-1.277169138E-1,-1.286142170E-1,9.894919395E0
3.143801010E0,-1.253240854E-1,-1.576271951E-1,9.887741089E0
3.146244499E0,-1.348953694E-1,-1.357926875E-1,9.873384476E0
3.148688822E0,-1.348953694E-1,-1.142572835E-1,9.866206169E0
3.151133926E0,-1.157527938E-1,-1.214357466E-1,9.873384476E0
3.153578249E0,-1.396810263E-1,-1.333998591E-1,9.870991707E0
3.156021687E0,-1.325025558E-1,-1.480558962E-1,9.873384476E0
3.158466062E0,-1.325025558E-1,-1.480558962E-1,9.866206169E0
3.160911166E0,-1.205384433E-1,-1.381855011E-1,9.880562782E0
3.163355437E0,-1.420738399E-1,-1.405783296E-1,9.894919395E0
3.165798926E0,-1.348953694E-1,-1.190429255E-1,9.861420631E0
3.168243249E0,-1.181456149E-1,-1.262213886E-1,9.880562782E0
3.170688354E0,-1.396810263E-1,-1.480558962E-1,9.894919395E0
3.173132676E0,-1.037886813E-1,-1.333998591E-1,9.887741089E0
3.175576114E0,-1.205384433E-1,-1.238285750E-1,9.878170013E0
3.178020489E0,-1.348953694E-1,-1.333998591E-1,9.892526627E0
3.180465593E0,-1.109671518E-1,-1.453639716E-1,9.887741089E0
3.182909864E0,-1.085743308E-1,-1.214357466E-1,9.894919395E0
3.185353354E0,-1.372881979E-1,-1.357926875E-1,9.878170013E0
3.187797676E0,-1.229312643E-1,-1.405783296E-1,9.870991707E0
3.190242781E0,-1.277169138E-1,-1.528415531E-1,9.873384476E0
3.192687104E0,-1.085743308E-1,-1.405783296E-1,9.882955551E0
3.195130541E0,-1.301097274E-1,-1.381855011E-1,9.849455833E0
3.197574916E0,-1.348953694E-1,-1.429711580E-1,9.887741089E0
3.200020020E0,-1.444666684E-1,-1.333998591E-1,9.904491425E0
3.202464343E0,-1.540379524E-1,-1.405783296E-1,9.887741089E0
3.204907781E0,-1.468594968E-1,-1.405783296E-1,9.866206169E0
3.207352156E0,-1.492523104E-1,-1.405783296E-1,9.880562782E0
3.209797208E0,-1.396810263E-1,-1.405783296E-1,9.885348320E0
3.212241531E0,-1.229312643E-1,-1.214357466E-1,9.875777245E0
3.214684968E0,-1.253240854E-1,-1.453639716E-1,9.882955551E0
3.217129343E0,-1.420738399E-1,-1.286142170E-1,9.866206169E0
3.219574447E0,-1.372881979E-1,-1.238285750E-1,9.882955551E0
3.222018770E0,-1.277169138E-1,-1.214357466E-1,9.878170013E0
3.224462208E0,-1.133599728E-1,-1.190429255E-1,9.875777245E0
3.226906583E0,-1.348953694E-1,-1.286142170E-1,9.882955551E0
3.229351687E0,-1.325025558E-1,-1.286142170E-1,9.880562782E0
3.231795958E0,-1.301097274E-1,-1.333998591E-1,9.885348320E0
3.234239447E0,-1.325025558E-1,-1.528415531E-1,9.878170013E0
3.236683770E0,-1.396810263E-1,-1.405783296E-1,9.859027863E0
3.239128874E0,-1.205384433E-1,-1.310070455E-1,9.868598938E0
3.241573197E0,-1.348953694E-1,-1.381855011E-1,9.894919395E0
3.244016635E0,-1.157527938E-1,-1.310070455E-1,9.882955551E0
3.246461010E0,-1.277169138E-1,-1.381855011E-1,9.880562782E0
3.248906114E0,-1.396810263E-1,-1.381855011E-1,9.894919395E0
3.251350385E0,-1.420738399E-1,-1.333998591E-1,9.887741089E0
3.253793874E0,-1.301097274E-1,-1.480558962E-1,9.894919395E0
3.256238197E0,-1.325025558E-1,-1.528415531E-1,9.875777245E0
3.258683301E0,-1.516451389E-1,-1.238285750E-1,9.887741089E0
3.261127624E0,-1.372881979E-1,-1.453639716E-1,9.897313118E0
3.263571062E0,-1.325025558E-1,-1.648056656E-1,9.878170013E0
3.266015437E0,-1.444666684E-1,-1.262213886E-1,9.892526627E0
3.268460541E0,-1.468594968E-1,-1.286142170E-1,9.882955551E0
3.270904812E0,-1.325025558E-1,-1.528415531E-1,9.897313118E0
3.273348301E0,-1.277169138E-1,-1.480558962E-1,9.890133858E0
3.275792624E0,-1.420738399E-1,-1.357926875E-1,9.873384476E0
3.278237729E0,-1.133599728E-1,-1.286142170E-1,9.894919395E0
3.280682051E0,-1.277169138E-1,-1.262213886E-1,9.892526627E0
3.283125489E0,-1.468594968E-1,-1.381855011E-1,9.873384476E0
3.285569864E0,-1.444666684E-1,-1.238285750E-1,9.861420631E0
3.288014968E0,-1.325025558E-1,-1.429711580E-1,9.882955551E0
3.290459239E0,-1.325025558E-1,-1.453639716E-1,9.909276962E0
3.292902729E0,-1.133599728E-1,-1.552343667E-1,9.875777245E0
3.295347051E0,-1.540379524E-1,-1.480558962E-1,9.861420631E0
3.297792156E0,-1.229312643E-1,-1.381855011E-1,9.890133858E0
3.300236479E0,-1.277169138E-1,-1.453639716E-1,9.863813400E0
3.302679916E0,-1.205384433E-1,-1.552343667E-1,9.890133858E0
3.305124291E0,-1.325025558E-1,-1.381855011E-1,9.870991707E0
3.307569395E0,-1.396810263E-1,-1.504487246E-1,9.890133858E0
3.310013666E0,-1.253240854E-1,-1.357926875E-1,9.856635094E0
3.312457156E0,-1.325025558E-1,-1.429711580E-1,9.885348320E0
3.314901531E0,-1.444666684E-1,-1.504487246E-1,9.870991707E0
3.317346583E0,-1.157527938E-1,-1.238285750E-1,9.885348320E0
3.319790906E0,-1.253240854E-1,-1.286142170E-1,9.892526627E0
3.322234343E0,-1.301097274E-1,-1.405783296E-1,9.904491425E0
3.324678718E0,-1.420738399E-1,-1.333998591E-1,9.870991707E0
3.327123822E0,-1.325025558E-1,-1.429711580E-1,9.863813400E0
3.329568145E0,-1.181456149E-1,-1.262213886E-1,9.870991707E0
3.332011583E0,-1.229312643E-1,-1.576271951E-1,9.868598938E0
3.334455958E0,-1.229312643E-1,-1.576271951E-1,9.885348320E0
3.336901010E0,-1.372881979E-1,-1.600200087E-1,9.873384476E0
3.339345333E0,-1.468594968E-1,-1.333998591E-1,9.882955551E0
3.341788822E0,-1.325025558E-1,-1.262213886E-1,9.906884193E0
3.344233145E0,-1.253240854E-1,-1.142572835E-1,9.885348320E0
3.346678249E0,-1.444666684E-1,-1.238285750E-1,9.861420631E0
3.349122572E0,-1.229312643E-1,-1.405783296E-1,9.887741089E0
3.351566010E0,-1.301097274E-1,-1.381855011E-1,9.909276962E0
3.354010385E0,-1.444666684E-1,-1.238285750E-1,9.894919395E0
3.356455489E0,-1.109671518E-1,-1.238285750E-1,9.890133858E0
3.358899760E0,-1.420738399E-1,-1.405783296E-1,9.866206169E0
3.361343249E0,-1.396810263E-1,-1.381855011E-1,9.890133858E0
3.363787572E0,-1.348953694E-1,-1.357926875E-1,9.875777245E0
3.366232676E0,-1.229312643E-1,-1.504487246E-1,9.880562782E0
3.368676999E0,-1.372881979E-1,-1.333998591E-1,9.870991707E0
3.371120437E0,-1.253240854E-1,-1.357926875E-1,9.887741089E0
3.373564812E0,-1.301097274E-1,-1.310070455E-1,9.875777245E0
3.376009916E0,-1.372881979E-1,-1.453639716E-1,9.842277527E0
3.378454187E0,-1.157527938E-1,-1.357926875E-1,9.873384476E0
3.380897676E0,-1.253240854E-1,-1.286142170E-1,9.892526627E0
3.383341999E0,-1.301097274E-1,-1.405783296E-1,9.894919395E0
3.385787104E0,-1.348953694E-1,-1.214357466E-1,9.894919395E0
3.388231426E0,-1.253240854E-1,-1.381855011E-1,9.892526627E0
3.390674864E0,-1.157527938E-1,-1.429711580E-1,9.882955551E0
3.393119239E0,-1.253240854E-1,-1.381855011E-1,9.902098656E0
3.395564343E0,-1.348953694E-1,-1.262213886E-1,9.880562782E0
3.398008666E0,-1.109671518E-1,-1.333998591E-1,9.904491425E0
3.400452104E0,-1.229312643E-1,-1.504487246E-1,9.885348320E0
3.402896426E0,-1.181456149E-1,-1.118644550E-1,9.892526627E0
3.405341531E0,-1.229312643E-1,-1.286142170E-1,9.885348320E0
3.407785854E0,-1.348953694E-1,-1.453639716E-1,9.885348320E0
3.410229291E0,-1.348953694E-1,-1.480558962E-1,9.892526627E0
3.412673666E0,-1.301097274E-1,-1.262213886E-1,9.875777245E0
3.415118770E0,-1.109671518E-1,-1.333998591E-1,9.892526627E0
3.417563041E0,-1.325025558E-1,-1.453639716E-1,9.887741089E0
3.420006531E0,-1.301097274E-1,-1.286142170E-1,9.887741089E0
3.422450906E0,-1.277169138E-1,-1.600200087E-1,9.902098656E0
3.424895958E0,-1.325025558E-1,-1.405783296E-1,9.856635094E0
3.427340281E0,-1.085743308E-1,-1.405783296E-1,9.885348320E0
3.429783718E0,-1.109671518E-1,-1.286142170E-1,9.878170013E0
3.432228093E0,-1.348953694E-1,-1.453639716E-1,9.887741089E0
3.434673197E0,-1.444666684E-1,-1.405783296E-1,9.887741089E0
3.437117520E0,-1.253240854E-1,-1.405783296E-1,9.894919395E0
3.439560958E0,-1.396810263E-1,-1.357926875E-1,9.890133858E0
3.442005333E0,-1.420738399E-1,-1.405783296E-1,9.866206169E0
3.444450385E0,-1.277169138E-1,-1.238285750E-1,9.904491425E0
3.446894708E0,-1.253240854E-1,-1.214357466E-1,9.861420631E0
3.449338145E0,-1.229312643E-1,-1.381855011E-1,9.885348320E0
3.451782520E0,-1.253240854E-1,-1.480558962E-1,9.875777245E0
3.454227624E0,-1.325025558E-1,-1.333998591E-1,9.887741089E0
3.456671895E0,-1.205384433E-1,-1.333998591E-1,9.890133858E0
3.459115385E0,-1.492523104E-1,-1.333998591E-1,9.875777245E0
3.461559760E0,-1.229312643E-1,-1.453639716E-1,9.894919395E0
3.464004864E0,-1.588236094E-1,-1.238285750E-1,9.897313118E0
3.466449135E0,-1.516451389E-1,-1.429711580E-1,9.875777245E0
3.468892624E0,-1.277169138E-1,-1.310070455E-1,9.882955551E0
3.471336947E0,-1.133599728E-1,-1.405783296E-1,9.894919395E0
3.473782051E0,-1.516451389E-1,-1.480558962E-1,9.885348320E0
3.476226374E0,-1.396810263E-1,-1.333998591E-1,9.880562782E0
3.478669812E0,-1.468594968E-1,-1.381855011E-1,9.870991707E0
3.481114187E0,-1.348953694E-1,-1.480558962E-1,9.890133858E0
3.483559291E0,-1.229312643E-1,-1.262213886E-1,9.878170013E0
3.486003562E0,-1.348953694E-1,-1.381855011E-1,9.870991707E0
3.488447051E0,-1.372881979E-1,-1.480558962E-1,9.887741089E0
3.490891374E0,-1.372881979E-1,-1.429711580E-1,9.887741089E0
3.493336479E0,-1.301097274E-1,-1.333998591E-1,9.894919395E0
3.495780801E0,-1.372881979E-1,-1.429711580E-1,9.863813400E0
3.498224239E0,-1.396810263E-1,-1.214357466E-1,9.870991707E0
3.500668614E0,-1.085743308E-1,-1.480558962E-1,9.897313118E0
3.503113718E0,-1.396810263E-1,-1.333998591E-1,9.870991707E0
3.505557989E0,-1.301097274E-1,-1.310070455E-1,9.875777245E0
3.508001479E0,-1.157527938E-1,-1.357926875E-1,9.892526627E0
3.510445801E0,-1.468594968E-1,-1.310070455E-1,9.914062500E0
3.512890906E0,-1.325025558E-1,-1.576271951E-1,9.899705887E0
3.515335229E0,-1.444666684E-1,-1.381855011E-1,9.868598938E0
3.517778666E0,-1.181456149E-1,-1.286142170E-1,9.890133858E0
3.520223041E0,-1.253240854E-1,-1.381855011E-1,9.885348320E0
3.522668145E0,-1.181456149E-1,-1.381855011E-1,9.875777245E0
3.525112416E0,-1.396810263E-1,-1.333998591E-1,9.868598938E0
3.527555906E0,-1.348953694E-1,-1.357926875E-1,9.880562782E0
3.530000229E0,-1.085743308E-1,-1.357926875E-1,9.875777245E0
3.532445333E0,-1.277169138E-1,-1.262213886E-1,9.899705887E0
3.534889656E0,-1.420738399E-1,-1.286142170E-1,9.866206169E0
3.537333093E0,-1.516451389E-1,-1.357926875E-1,9.882955551E0
3.539777468E0,-1.229312643E-1,-1.333998591E-1,9.868598938E0
3.542222572E0,-1.325025558E-1,-1.214357466E-1,9.875777245E0
3.544666843E0,-1.277169138E-1,-1.214357466E-1,9.894919395E0
3.547110333E0,-1.205384433E-1,-1.238285750E-1,9.868598938E0
3.549554656E0,-1.396810263E-1,-1.405783296E-1,9.880562782E0
3.551999760E0,-1.396810263E-1,-1.552343667E-1,9.885348320E0
3.554444083E0,-1.205384433E-1,-1.405783296E-1,9.863813400E0
3.556887520E0,-1.420738399E-1,-1.480558962E-1,9.854242325E0
3.559331895E0,-1.325025558E-1,-1.405783296E-1,9.882955551E0
3.561776999E0,-1.444666684E-1,-1.480558962E-1,9.914062500E0
3.564221322E0,-1.301097274E-1,-1.504487246E-1,9.885348320E0
3.566664760E0,-1.277169138E-1,-1.286142170E-1,9.866206169E0
3.569109135E0,-1.253240854E-1,-1.333998591E-1,9.873384476E0
3.571554187E0,-1.372881979E-1,-1.357926875E-1,9.897313118E0
3.573998510E0,-1.420738399E-1,-1.480558962E-1,9.894919395E0
3.576441947E0,-1.205384433E-1,-1.528415531E-1,9.875777245E0
3.578886322E0,-1.396810263E-1,-1.648056656E-1,9.875777245E0
3.581331426E0,-1.444666684E-1,-1.142572835E-1,9.885348320E0
3.583775749E0,-1.301097274E-1,-1.429711580E-1,9.873384476E0
3.586219187E0,-1.396810263E-1,-1.405783296E-1,9.866206169E0
3.588663562E0,-1.205384433E-1,-1.381855011E-1,9.856635094E0
3.591108666E0,-1.372881979E-1,-1.262213886E-1,9.906884193E0
3.593552937E0,-1.348953694E-1,-1.286142170E-1,9.885348320E0
3.595996426E0,-1.420738399E-1,-1.238285750E-1,9.868598938E0
3.598440749E0,-1.325025558E-1,-1.333998591E-1,9.885348320E0
3.600885854E0,-1.372881979E-1,-1.429711580E-1,9.885348320E0
3.603330176E0,-1.444666684E-1,-1.429711580E-1,9.890133858E0
3.605773614E0,-1.348953694E-1,-1.405783296E-1,9.878170013E0
3.608217989E0,-1.253240854E-1,-1.576271951E-1,9.870991707E0
3.610663093E0,-1.277169138E-1,-1.310070455E-1,9.911669731E0
3.613107364E0,-1.372881979E-1,-1.333998591E-1,9.894919395E0
3.615550854E0,-1.396810263E-1,-1.405783296E-1,9.866206169E0
3.617995176E0,-1.468594968E-1,-1.429711580E-1,9.854242325E0
3.620440281E0,-1.301097274E-1,-1.453639716E-1,9.885348320E0
3.622884604E0,-1.253240854E-1,-1.429711580E-1,9.899705887E0
3.625328041E0,-1.444666684E-1,-1.552343667E-1,9.885348320E0
3.627772416E0,-1.277169138E-1,-1.357926875E-1,9.887741089E0
3.630217520E0,-1.348953694E-1,-1.333998591E-1,9.902098656E0
3.632661791E0,-1.277169138E-1,-1.357926875E-1,9.887741089E0
3.635105281E0,-1.229312643E-1,-1.453639716E-1,9.887741089E0
3.637549604E0,-1.444666684E-1,-1.333998591E-1,9.870991707E0
3.639994708E0,-1.277169138E-1,-1.357926875E-1,9.882955551E0
3.642439031E0,-1.372881979E-1,-1.576271951E-1,9.894919395E0
3.644882468E0,-1.157527938E-1,-1.333998591E-1,9.878170013E0
3.647326843E0,-1.348953694E-1,-1.262213886E-1,9.873384476E0
3.649771947E0,-1.229312643E-1,-1.310070455E-1,9.868598938E0
3.652216218E0,-1.348953694E-1,-1.357926875E-1,9.890133858E0
3.654659708E0,-1.205384433E-1,-1.310070455E-1,9.875777245E0
3.657104031E0,-1.277169138E-1,-1.310070455E-1,9.861420631E0
3.659549135E0,-1.205384433E-1,-1.381855011E-1,9.882955551E0
3.661993458E0,-1.061815023E-1,-1.214357466E-1,9.887741089E0
3.664436895E0,-1.372881979E-1,-1.333998591E-1,9.880562782E0
3.666881270E0,-1.468594968E-1,-1.286142170E-1,9.882955551E0
3.669326374E0,-1.348953694E-1,-1.238285750E-1,9.890133858E0
3.671770645E0,-1.325025558E-1,-1.576271951E-1,9.894919395E0
3.674214135E0,-1.372881979E-1,-1.262213886E-1,9.875777245E0
3.676658510E0,-1.444666684E-1,-1.381855011E-1,9.882955551E0
3.679103562E0,-1.396810263E-1,-1.262213886E-1,9.866206169E0
3.681547885E0,-1.205384433E-1,-1.528415531E-1,9.894919395E0
3.683991322E0,-1.348953694E-1,-1.166501045E-1,9.870991707E0
3.686435697E0,-1.492523104E-1,-1.262213886E-1,9.894919395E0
3.688880801E0,-1.277169138E-1,-1.357926875E-1,9.890133858E0
3.691325124E0,-1.372881979E-1,-1.357926875E-1,9.897313118E0
3.693768562E0,-1.229312643E-1,-1.429711580E-1,9.890133858E0
3.696212885E0,-1.372881979E-1,-1.453639716E-1,9.882955551E0
3.698657989E0,-1.420738399E-1,-1.310070455E-1,9.880562782E0
3.701102312E0,-1.468594968E-1,-1.286142170E-1,9.899705887E0
3.703545749E0,-1.396810263E-1,-1.453639716E-1,9.892526627E0
3.705990124E0,-1.325025558E-1,-1.552343667E-1,9.882955551E0
3.708435229E0,-1.325025558E-1,-1.600200087E-1,9.878170013E0
3.710879551E0,-1.157527938E-1,-1.405783296E-1,9.894919395E0
3.713322989E0,-1.396810263E-1,-1.429711580E-1,9.882955551E0
3.715767364E0,-1.540379524E-1,-1.310070455E-1,9.873384476E0
3.718212416E0,-1.468594968E-1,-1.142572835E-1,9.890133858E0
3.720656739E0,-1.301097274E-1,-1.262213886E-1,9.880562782E0
3.723100176E0,-1.229312643E-1,-1.214357466E-1,9.890133858E0
3.725544551E0,-1.348953694E-1,-1.190429255E-1,9.873384476E0
3.727989656E0,-1.277169138E-1,-1.166501045E-1,9.878170013E0
3.730433979E0,-1.396810263E-1,-1.310070455E-1,9.890133858E0
3.732877416E0,-1.420738399E-1,-1.381855011E-1,9.902098656E0
3.735321791E0,-1.325025558E-1,-1.528415531E-1,9.866206169E0
3.737766895E0,-1.253240854E-1,-1.381855011E-1,9.885348320E0
3.740211166E0,-1.492523104E-1,-1.504487246E-1,9.890133858E0
3.742654656E0,-1.277169138E-1,-1.190429255E-1,9.904491425E0
3.745098979E0,-1.277169138E-1,-1.238285750E-1,9.873384476E0
3.747544083E0,-1.133599728E-1,-1.214357466E-1,9.906884193E0
3.749988406E0,-1.325025558E-1,-1.381855011E-1,9.892526627E0
3.752431843E0,-1.205384433E-1,-1.381855011E-1,9.882955551E0
3.754876218E0,-1.229312643E-1,-1.286142170E-1,9.890133858E0
3.757321322E0,-1.325025558E-1,-1.381855011E-1,9.873384476E0
3.759765593E0,-1.325025558E-1,-1.429711580E-1,9.897313118E0
3.762209083E0,-1.301097274E-1,-1.405783296E-1,9.873384476E0
3.764653406E0,-1.468594968E-1,-1.381855011E-1,9.863813400E0
3.767098510E0,-1.396810263E-1,-1.238285750E-1,9.878170013E0
3.769542833E0,-1.253240854E-1,-1.429711580E-1,9.887741089E0
3.771986270E0,-1.325025558E-1,-1.381855011E-1,9.897313118E0
3.774430645E0,-1.348953694E-1,-1.429711580E-1,9.887741089E0
3.776875749E0,-1.253240854E-1,-1.262213886E-1,9.873384476E0
3.779320020E0,-1.061815023E-1,-1.286142170E-1,9.870991707E0
3.781763510E0,-1.253240854E-1,-1.504487246E-1,9.892526627E0
3.784207833E0,-1.229312643E-1,-1.357926875E-1,9.880562782E0
3.786652937E0,-1.229312643E-1,-1.357926875E-1,9.863813400E0
3.789097260E0,-1.420738399E-1,-1.381855011E-1,9.890133858E0
3.791540697E0,-1.253240854E-1,-1.357926875E-1,9.897313118E0
3.793985072E0,-1.181456149E-1,-1.381855011E-1,9.882955551E0
3.796430176E0,-1.205384433E-1,-1.357926875E-1,9.873384476E0
3.798874447E0,-1.325025558E-1,-1.429711580E-1,9.894919395E0
3.801317937E0,-1.301097274E-1,-1.405783296E-1,9.882955551E0
3.803762260E0,-1.396810263E-1,-1.357926875E-1,9.890133858E0
3.806207364E0,-1.253240854E-1,-1.405783296E-1,9.875777245E0
3.808651687E0,-1.396810263E-1,-1.310070455E-1,9.899705887E0
3.811095124E0,-1.372881979E-1,-1.333998591E-1,9.914062500E0
3.813539499E0,-1.229312643E-1,-1.357926875E-1,9.875777245E0
3.815984604E0,-1.372881979E-1,-1.405783296E-1,9.866206169E0
3.818428874E0,-1.420738399E-1,-1.429711580E-1,9.885348320E0
3.820872364E0,-1.253240854E-1,-1.504487246E-1,9.894919395E0
3.823316687E0,-1.301097274E-1,-1.286142170E-1,9.873384476E0
3.825761791E0,-1.253240854E-1,-1.357926875E-1,9.866206169E0
3.828206114E0,-1.444666684E-1,-1.429711580E-1,9.880562782E0
3.830649551E0,-1.301097274E-1,-1.357926875E-1,9.873384476E0
3.833093926E0,-1.277169138E-1,-1.333998591E-1,9.911669731E0
3.835539031E0,-1.061815023E-1,-1.333998591E-1,9.878170013E0
3.837983354E0,-1.229312643E-1,-1.286142170E-1,9.868598938E0
3.840426791E0,-1.109671518E-1,-1.381855011E-1,9.890133858E0
3.842871114E0,-1.061815023E-1,-1.333998591E-1,9.885348320E0
3.845316218E0,-1.277169138E-1,-1.504487246E-1,9.863813400E0
3.847760541E0,-1.277169138E-1,-1.190429255E-1,9.875777245E0
3.850203979E0,-1.277169138E-1,-1.190429255E-1,9.897313118E0
3.852648354E0,-1.277169138E-1,-1.405783296E-1,9.914062500E0
3.855093458E0,-1.325025558E-1,-1.429711580E-1,9.897313118E0
3.857537781E0,-1.277169138E-1,-1.286142170E-1,9.890133858E0
3.859981218E0,-1.420738399E-1,-1.262213886E-1,9.887741089E0
3.862425593E0,-1.205384433E-1,-1.333998591E-1,9.870991707E0
3.864870645E0,-1.277169138E-1,-1.333998591E-1,9.870991707E0
3.867314968E0,-1.348953694E-1,-1.262213886E-1,9.873384476E0
3.869758458E0,-1.253240854E-1,-1.357926875E-1,9.863813400E0
3.872202781E0,-1.253240854E-1,-1.405783296E-1,9.880562782E0
3.874647885E0,-1.229312643E-1,-1.453639716E-1,9.866206169E0
3.877092208E0,-1.372881979E-1,-1.405783296E-1,9.873384476E0
3.879535645E0,-1.229312643E-1,-1.238285750E-1,9.887741089E0
3.881980020E0,-1.157527938E-1,-1.357926875E-1,9.894919395E0
3.884425124E0,-1.325025558E-1,-1.429711580E-1,9.870991707E0
3.886869395E0,-1.348953694E-1,-1.214357466E-1,9.880562782E0
3.889312885E0,-1.660020649E-1,-1.310070455E-1,9.892526627E0
3.891757208E0,-1.205384433E-1,-1.310070455E-1,9.890133858E0
3.894202312E0,-1.372881979E-1,-1.357926875E-1,9.887741089E0
3.896646635E0,-1.420738399E-1,-1.214357466E-1,9.878170013E0
3.899090072E0,-1.301097274E-1,-1.286142170E-1,9.878170013E0
3.901534447E0,-1.277169138E-1,-1.262213886E-1,9.897313118E0
3.903979551E0,-1.540379524E-1,-1.453639716E-1,9.854242325E0
3.906423822E0,-1.348953694E-1,-1.190429255E-1,9.875777245E0
3.908867312E0,-1.133599728E-1,-1.286142170E-1,9.870991707E0
3.911311635E0,-1.492523104E-1,-1.576271951E-1,9.892526627E0
3.913756739E0,-1.325025558E-1,-1.357926875E-1,9.904491425E0
3.916201062E0,-1.229312643E-1,-1.429711580E-1,9.878170013E0
3.918644499E0,-1.157527938E-1,-1.333998591E-1,9.873384476E0
3.921088874E0,-1.301097274E-1,-1.405783296E-1,9.890133858E0
3.923533979E0,-1.157527938E-1,-1.429711580E-1,9.873384476E0
3.925978249E0,-1.468594968E-1,-1.262213886E-1,9.859027863E0
3.928421739E0,-1.205384433E-1,-1.333998591E-1,9.892526627E0
3.930866062E0,-1.301097274E-1,-1.453639716E-1,9.887741089E0
3.933311166E0,-1.372881979E-1,-1.480558962E-1,9.875777245E0
3.935755489E0,-1.540379524E-1,-1.453639716E-1,9.859027863E0
3.938198926E0,-1.301097274E-1,-1.190429255E-1,9.887741089E0
3.940643301E0,-1.420738399E-1,-1.310070455E-1,9.892526627E0
3.943088406E0,-1.372881979E-1,-1.429711580E-1,9.897313118E0
3.945532676E0,-1.229312643E-1,-1.480558962E-1,9.878170013E0
3.947976166E0,-1.253240854E-1,-1.214357466E-1,9.878170013E0
3.950420489E0,-1.348953694E-1,-1.357926875E-1,9.885348320E0
3.952865593E0,-1.396810263E-1,-1.429711580E-1,9.885348320E0
3.955309916E0,-1.372881979E-1,-1.429711580E-1,9.851848602E0
3.957753354E0,-1.301097274E-1,-1.528415531E-1,9.868598938E0
3.960197729E0,-1.157527938E-1,-1.357926875E-1,9.880562782E0
3.962642833E0,-1.277169138E-1,-1.238285750E-1,9.897313118E0
3.965087104E0,-1.348953694E-1,-1.528415531E-1,9.861420631E0
3.967530593E0,-1.325025558E-1,-1.262213886E-1,9.868598938E0
3.969974916E0,-1.325025558E-1,-1.333998591E-1,9.878170013E0
3.972420020E0,-1.181456149E-1,-1.405783296E-1,9.897313118E0
3.974864343E0,-1.372881979E-1,-1.333998591E-1,9.873384476E0
3.977307781E0,-1.277169138E-1,-1.262213886E-1,9.856635094E0
3.979752156E0,-1.181456149E-1,-1.333998591E-1,9.890133858E0
3.982197260E0,-1.301097274E-1,-1.429711580E-1,9.894919395E0
3.984641531E0,-1.277169138E-1,-1.333998591E-1,9.851848602E0
3.987085020E0,-1.229312643E-1,-1.480558962E-1,9.870991707E0
3.989529343E0,-1.157527938E-1,-1.381855011E-1,9.878170013E0
3.991974447E0,-1.205384433E-1,-1.333998591E-1,9.890133858E0
3.994418770E0,-1.396810263E-1,-1.262213886E-1,9.897313118E0
3.996862208E0,-1.301097274E-1,-1.357926875E-1,9.887741089E0
3.999306583E0,-1.277169138E-1,-1.429711580E-1,9.921240807E0
4.001751687E0,-1.301097274E-1,-1.310070455E-1,9.880562782E0
4.004195958E0,-1.253240854E-1,-1.552343667E-1,9.890133858E0
4.006639447E0,-1.444666684E-1,-1.262213886E-1,9.861420631E0
4.009083822E0,-1.229312643E-1,-1.453639716E-1,9.882955551E0
4.011528874E0,-1.372881979E-1,-1.262213886E-1,9.906884193E0
4.013973197E0,-1.277169138E-1,-1.552343667E-1,9.882955551E0
4.016416635E0,-1.468594968E-1,-1.238285750E-1,9.878170013E0
4.018861010E0,-1.301097274E-1,-1.238285750E-1,9.880562782E0
4.021306114E0,-1.325025558E-1,-1.405783296E-1,9.892526627E0
4.023750437E0,-1.229312643E-1,-1.310070455E-1,9.875777245E0
4.026193874E0,-1.277169138E-1,-1.381855011E-1,9.866206169E0
4.028638249E0,-1.253240854E-1,-1.453639716E-1,9.897313118E0
4.031083301E0,-1.157527938E-1,-1.214357466E-1,9.868598938E0
4.033527624E0,-1.468594968E-1,-1.381855011E-1,9.890133858E0
4.035971062E0,-1.205384433E-1,-1.429711580E-1,9.854242325E0
4.038415437E0,-1.372881979E-1,-1.405783296E-1,9.870991707E0
4.040860541E0,-1.301097274E-1,-1.333998591E-1,9.902098656E0
4.043304864E0,-1.301097274E-1,-1.429711580E-1,9.870991707E0
4.045748301E0,-1.348953694E-1,-1.429711580E-1,9.885348320E0
4.048192676E0,-1.181456149E-1,-1.333998591E-1,9.894919395E0
4.050637781E0,-1.277169138E-1,-1.286142170E-1,9.885348320E0
4.053082051E0,-1.325025558E-1,-1.429711580E-1,9.873384476E0
4.055525541E0,-1.372881979E-1,-1.238285750E-1,9.878170013E0
4.057969864E0,-1.396810263E-1,-1.429711580E-1,9.870991707E0
4.060414968E0,-1.157527938E-1,-1.286142170E-1,9.885348320E0
4.062859291E0,-1.396810263E-1,-1.166501045E-1,9.868598938E0
4.065302729E0,-1.468594968E-1,-1.405783296E-1,9.863813400E0
4.067747104E0,-1.396810263E-1,-1.480558962E-1,9.880562782E0
4.070192208E0,-1.253240854E-1,-1.262213886E-1,9.887741089E0
4.072636479E0,-1.253240854E-1,-1.214357466E-1,9.878170013E0
4.075079968E0,-1.229312643E-1,-1.405783296E-1,9.868598938E0
4.077524291E0,-1.277169138E-1,-1.429711580E-1,9.880562782E0
4.079969395E0,-1.205384433E-1,-1.286142170E-1,9.890133858E0
4.082413718E0,-1.253240854E-1,-1.381855011E-1,9.882955551E0
4.084857156E0,-1.157527938E-1,-1.504487246E-1,9.897313118E0
4.087301531E0,-1.229312643E-1,-1.453639716E-1,9.866206169E0
4.089746635E0,-1.372881979E-1,-1.310070455E-1,9.890133858E0
4.092190906E0,-1.372881979E-1,-1.381855011E-1,9.878170013E0
4.094634395E0,-1.348953694E-1,-1.552343667E-1,9.890133858E0
4.097078718E0,-1.444666684E-1,-1.429711580E-1,9.882955551E0
4.099523822E0,-1.229312643E-1,-1.695913076E-1,9.882955551E0
4.101968145E0,-1.253240854E-1,-1.453639716E-1,9.906884193E0
4.104411583E0,-1.301097274E-1,-1.528415531E-1,9.854242325E0
4.106855958E0,-1.253240854E-1,-1.286142170E-1,9.863813400E0
4.109301062E0,-1.181456149E-1,-1.190429255E-1,9.873384476E0
4.111745333E0,-1.277169138E-1,-1.310070455E-1,9.902098656E0
4.114188822E0,-1.468594968E-1,-1.381855011E-1,9.866206169E0
4.116633145E0,-1.348953694E-1,-1.238285750E-1,9.873384476E0
4.119078249E0,-1.229312643E-1,-1.405783296E-1,9.892526627E0
4.121522572E0,-1.420738399E-1,-1.552343667E-1,9.882955551E0
4.123966010E0,-1.277169138E-1,-1.528415531E-1,9.887741089E0
4.126410385E0,-1.205384433E-1,-1.333998591E-1,9.878170013E0
4.128855489E0,-1.253240854E-1,-1.381855011E-1,9.873384476E0
4.131299760E0,-1.372881979E-1,-1.480558962E-1,9.890133858E0
4.133743249E0,-1.420738399E-1,-1.310070455E-1,9.885348320E0
4.136187572E0,-1.420738399E-1,-1.357926875E-1,9.885348320E0
4.138632676E0,-1.372881979E-1,-1.333998591E-1,9.887741089E0
4.141076999E0,-1.253240854E-1,-1.190429255E-1,9.890133858E0
4.143520437E0,-1.277169138E-1,-1.357926875E-1,9.870991707E0
4.145964812E0,-1.468594968E-1,-1.429711580E-1,9.863813400E0
4.148409916E0,-1.348953694E-1,-1.286142170E-1,9.882955551E0
4.150854187E0,-1.492523104E-1,-1.310070455E-1,9.887741089E0
4.153297676E0,-1.420738399E-1,-1.381855011E-1,9.875777245E0
4.155741999E0,-1.444666684E-1,-1.405783296E-1,9.859027863E0
4.158187104E0,-1.325025558E-1,-1.453639716E-1,9.890133858E0
4.160631426E0,-1.277169138E-1,-1.286142170E-1,9.885348320E0
4.163074864E0,-1.277169138E-1,-1.480558962E-1,9.909276962E0
4.165519239E0,-1.348953694E-1,-1.429711580E-1,9.873384476E0
4.167964343E0,-1.348953694E-1,-1.333998591E-1,9.882955551E0
4.170408614E0,-1.157527938E-1,-1.333998591E-1,9.899705887E0
4.172852104E0,-1.205384433E-1,-1.286142170E-1,9.902098656E0
4.175296426E0,-1.444666684E-1,-1.166501045E-1,9.873384476E0
4.177741531E0,-1.253240854E-1,-1.429711580E-1,9.894919395E0
4.180185854E0,-1.325025558E-1,-1.357926875E-1,9.902098656E0
4.182629291E0,-1.372881979E-1,-1.405783296E-1,9.894919395E0
4.185073666E0,-1.348953694E-1,-1.286142170E-1,9.866206169E0
4.187518770E0,-1.301097274E-1,-1.381855011E-1,9.866206169E0
4.189963093E0,-1.229312643E-1,-1.504487246E-1,9.897313118E0
4.192406531E0,-1.229312643E-1,-1.381855011E-1,9.892526627E0
4.194850906E0,-1.277169138E-1,-1.357926875E-1,9.861420631E0
4.197295958E0,-1.325025558E-1,-1.429711580E-1,9.887741089E0
4.199740281E0,-1.181456149E-1,-1.286142170E-1,9.894919395E0
4.202183718E0,-1.181456149E-1,-1.357926875E-1,9.882955551E0
4.204628093E0,-1.372881979E-1,-1.453639716E-1,9.890133858E0
4.207073197E0,-1.325025558E-1,-1.480558962E-1,9.880562782E0
4.209517520E0,-1.205384433E-1,-1.333998591E-1,9.894919395E0
4.211960958E0,-1.372881979E-1,-1.238285750E-1,9.892526627E0
4.214405333E0,-1.229312643E-1,-1.381855011E-1,9.854242325E0
4.216850385E0,-1.468594968E-1,-1.453639716E-1,9.882955551E0
4.219294708E0,-1.277169138E-1,-1.214357466E-1,9.885348320E0
4.221738145E0,-1.253240854E-1,-1.453639716E-1,9.866206169E0
4.224182520E0,-1.325025558E-1,-1.381855011E-1,9.863813400E0
4.226627624E0,-1.396810263E-1,-1.429711580E-1,9.870991707E0
4.229071947E0,-1.205384433E-1,-1.333998591E-1,9.902098656E0
4.231515385E0,-1.420738399E-1,-1.648056656E-1,9.882955551E0
4.233959760E0,-1.372881979E-1,-1.333998591E-1,9.873384476E0
4.236404812E0,-1.492523104E-1,-1.333998591E-1,9.885348320E0
4.238849135E0,-1.301097274E-1,-1.453639716E-1,9.899705887E0
4.241292572E0,-1.396810263E-1,-1.310070455E-1,9.899705887E0
4.243736947E0,-1.348953694E-1,-1.504487246E-1,9.899705887E0
4.246182051E0,-1.420738399E-1,-1.118644550E-1,9.856635094E0
4.248626374E0,-1.253240854E-1,-1.429711580E-1,9.892526627E0
4.251069812E0,-1.277169138E-1,-1.262213886E-1,9.870991707E0
4.253514187E0,-1.325025558E-1,-1.357926875E-1,9.880562782E0
4.255959291E0,-1.181456149E-1,-1.310070455E-1,9.873384476E0
4.258403562E0,-1.133599728E-1,-1.381855011E-1,9.873384476E0
4.260847051E0,-1.205384433E-1,-1.429711580E-1,9.875777245E0
4.263291374E0,-1.301097274E-1,-1.262213886E-1,9.882955551E0
4.265736479E0,-1.157527938E-1,-1.310070455E-1,9.878170013E0
4.268180801E0,-1.348953694E-1,-1.238285750E-1,9.885348320E0
4.270624239E0,-1.229312643E-1,-1.480558962E-1,9.882955551E0
4.273068614E0,-1.157527938E-1,-1.238285750E-1,9.892526627E0
4.275513718E0,-1.325025558E-1,-1.357926875E-1,9.859027863E0
4.277957989E0,-1.229312643E-1,-1.214357466E-1,9.870991707E0
4.280401479E0,-1.181456149E-1,-1.480558962E-1,9.868598938E0
4.282845801E0,-1.229312643E-1,-1.333998591E-1,9.875777245E0
4.285290906E0,-1.181456149E-1,-1.333998591E-1,9.880562782E0
4.287735229E0,-1.372881979E-1,-1.405783296E-1,9.875777245E0
4.290178666E0,-1.277169138E-1,-1.238285750E-1,9.887741089E0
4.292623041E0,-1.372881979E-1,-1.310070455E-1,9.890133858E0
4.295068145E0,-1.372881979E-1,-1.405783296E-1,9.859027863E0
4.297512416E0,-1.348953694E-1,-1.405783296E-1,9.868598938E0
4.299955906E0,-1.348953694E-1,-1.333998591E-1,9.911669731E0
4.302400229E0,-1.348953694E-1,-1.453639716E-1,9.878170013E0
4.304845333E0,-1.348953694E-1,-1.286142170E-1,9.870991707E0
4.307289656E0,-1.157527938E-1,-1.190429255E-1,9.890133858E0
4.309733093E0,-1.253240854E-1,-1.405783296E-1,9.892526627E0
4.312177468E0,-1.277169138E-1,-1.286142170E-1,9.880562782E0
4.314622572E0,-1.420738399E-1,-1.429711580E-1,9.878170013E0
4.317066843E0,-1.325025558E-1,-1.357926875E-1,9.863813400E0
4.319510333E0,-1.372881979E-1,-1.286142170E-1,9.887741089E0
4.321954656E0,-1.229312643E-1,-1.576271951E-1,9.873384476E0
4.324399760E0,-1.205384433E-1,-1.552343667E-1,9.890133858E0
4.326844083E0,-1.420738399E-1,-1.286142170E-1,9.887741089E0
4.329287520E0,-1.157527938E-1,-1.381855011E-1,9.868598938E0
4.331731895E0,-1.253240854E-1,-1.405783296E-1,9.882955551E0
4.334176999E0,-1.348953694E-1,-1.381855011E-1,9.875777245E0
4.336621270E0,-1.588236094E-1,-1.310070455E-1,9.880562782E0
4.339064760E0,-1.229312643E-1,-1.262213886E-1,9.870991707E0
4.341509083E0,-1.420738399E-1,-1.405783296E-1,9.887741089E0
4.343954187E0,-1.229312643E-1,-1.310070455E-1,9.882955551E0
4.346398510E0,-1.420738399E-1,-1.214357466E-1,9.868598938E0
4.348841947E0,-1.301097274E-1,-1.453639716E-1,9.878170013E0
4.351286322E0,-1.372881979E-1,-1.214357466E-1,9.880562782E0
4.353731426E0,-1.301097274E-1,-1.453639716E-1,9.892526627E0
4.356175697E0,-1.205384433E-1,-1.310070455E-1,9.878170013E0
4.358619187E0,-1.181456149E-1,-1.190429255E-1,9.880562782E0
4.361063510E0,-1.229312643E-1,-1.214357466E-1,9.890133858E0
4.363508614E0,-1.348953694E-1,-1.429711580E-1,9.885348320E0
4.365952937E0,-1.205384433E-1,-1.214357466E-1,9.863813400E0
4.368396374E0,-1.277169138E-1,-1.310070455E-1,9.892526627E0
4.370840749E0,-1.277169138E-1,-1.094716340E-1,9.906884193E0
4.373285854E0,-1.325025558E-1,-1.405783296E-1,9.882955551E0
4.375730124E0,-1.205384433E-1,-1.480558962E-1,9.882955551E0
4.378173614E0,-1.205384433E-1,-1.262213886E-1,9.902098656E0
4.380617937E0,-1.301097274E-1,-1.262213886E-1,9.887741089E0
4.383063093E0,-1.348953694E-1,-1.333998591E-1,9.885348320E0
4.385507364E0,-1.612164229E-1,-1.405783296E-1,9.880562782E0
4.387950801E0,-1.325025558E-1,-1.333998591E-1,9.868598938E0
4.390395176E0,-1.420738399E-1,-1.238285750E-1,9.909276962E0
4.392840281E0,-1.372881979E-1,-1.480558962E-1,9.873384476E0
4.395284551E0,-1.468594968E-1,-1.286142170E-1,9.875777245E0
4.397728041E0,-1.301097274E-1,-1.576271951E-1,9.866206169E0
4.400172416E0,-1.229312643E-1,-1.286142170E-1,9.868598938E0
4.402617468E0,-1.205384433E-1,-1.357926875E-1,9.875777245E0
4.405061791E0,-1.253240854E-1,-1.552343667E-1,9.878170013E0
4.407505229E0,-1.229312643E-1,-1.381855011E-1,9.887741089E0
4.409949604E0,-1.229312643E-1,-1.262213886E-1,9.894919395E0
4.412394708E0,-1.325025558E-1,-1.333998591E-1,9.885348320E0
4.414839031E0,-1.396810263E-1,-1.357926875E-1,9.875777245E0
4.417282468E0,-1.301097274E-1,-1.453639716E-1,9.847063065E0
4.419726791E0,-1.396810263E-1,-1.480558962E-1,9.899705887E0
4.422171895E0,-1.444666684E-1,-1.310070455E-1,9.894919395E0
4.424616218E0,-1.085743308E-1,-1.405783296E-1,9.870991707E0
4.427059708E0,-1.301097274E-1,-1.190429255E-1,9.863813400E0
4.429504031E0,-1.277169138E-1,-1.310070455E-1,9.899705887E0
4.431949135E0,-1.277169138E-1,-1.405783296E-1,9.890133858E0
4.434393458E0,-1.372881979E-1,-1.429711580E-1,9.880562782E0
4.436836895E0,-1.277169138E-1,-1.214357466E-1,9.875777245E0
4.439281270E0,-1.372881979E-1,-1.286142170E-1,9.868598938E0
4.441726322E0,-1.301097274E-1,-1.405783296E-1,9.890133858E0
4.444170645E0,-1.253240854E-1,-1.286142170E-1,9.882955551E0
4.446614083E0,-1.325025558E-1,-1.333998591E-1,9.902098656E0
4.449058458E0,-1.444666684E-1,-1.405783296E-1,9.899705887E0
4.451503562E0,-1.325025558E-1,-1.429711580E-1,9.885348320E0
4.453947885E0,-1.109671518E-1,-1.552343667E-1,9.854242325E0
4.456391322E0,-1.468594968E-1,-1.381855011E-1,9.861420631E0
4.458835697E0,-1.133599728E-1,-1.381855011E-1,9.894919395E0
4.461280801E0,-1.133599728E-1,-1.094716340E-1,9.892526627E0
4.463725072E0,-1.325025558E-1,-1.286142170E-1,9.885348320E0
4.466168562E0,-1.253240854E-1,-1.552343667E-1,9.859027863E0
4.468612885E0,-1.157527938E-1,-1.286142170E-1,9.866206169E0
4.471057989E0,-1.157527938E-1,-1.453639716E-1,9.899705887E0
4.473502312E0,-1.277169138E-1,-1.238285750E-1,9.885348320E0
4.475945749E0,-1.396810263E-1,-1.381855011E-1,9.887741089E0
4.478390124E0,-1.396810263E-1,-1.405783296E-1,9.880562782E0
4.480835176E0,-1.277169138E-1,-1.453639716E-1,9.887741089E0
4.483279499E0,-1.277169138E-1,-1.405783296E-1,9.909276962E0
4.485722989E0,-1.229312643E-1,-1.429711580E-1,9.887741089E0
4.488167312E0,-1.253240854E-1,-1.357926875E-1,9.866206169E0
4.490612416E0,-1.277169138E-1,-1.429711580E-1,9.911669731E0
4.493056739E0,-1.253240854E-1,-1.238285750E-1,9.894919395E0
4.495500176E0,-1.253240854E-1,-1.262213886E-1,9.890133858E0
4.497944551E0,-1.229312643E-1,-1.190429255E-1,9.868598938E0
4.500389656E0,-1.133599728E-1,-1.504487246E-1,9.894919395E0
4.502833926E0,-1.181456149E-1,-1.286142170E-1,9.885348320E0
4.505277416E0,-1.444666684E-1,-1.429711580E-1,9.878170013E0
4.507721739E0,-1.301097274E-1,-1.429711580E-1,9.890133858E0
4.510166843E0,-1.372881979E-1,-1.333998591E-1,9.894919395E0
4.512611166E0,-1.348953694E-1,-1.405783296E-1,9.885348320E0
4.515054604E0,-1.181456149E-1,-1.333998591E-1,9.878170013E0
4.517498979E0,-1.396810263E-1,-1.286142170E-1,9.880562782E0
4.519944083E0,-1.229312643E-1,-1.504487246E-1,9.894919395E0
4.522388354E0,-1.205384433E-1,-1.381855011E-1,9.875777245E0
4.524831843E0,-1.301097274E-1,-1.552343667E-1,9.863813400E0
4.527276166E0,-1.301097274E-1,-1.333998591E-1,9.875777245E0
4.529721270E0,-1.301097274E-1,-1.310070455E-1,9.885348320E0
4.532165593E0,-1.420738399E-1,-1.357926875E-1,9.902098656E0
4.534609031E0,-1.229312643E-1,-1.480558962E-1,9.890133858E0
4.537053406E0,-1.253240854E-1,-1.238285750E-1,9.870991707E0
4.539498510E0,-1.325025558E-1,-1.214357466E-1,9.885348320E0
4.541942781E0,-1.325025558E-1,-1.310070455E-1,9.875777245E0
4.544386270E0,-1.468594968E-1,-1.286142170E-1,9.859027863E0
4.546830593E0,-1.516451389E-1,-1.262213886E-1,9.854242325E0
4.549275697E0,-1.348953694E-1,-1.262213886E-1,9.875777245E0
4.551720020E0,-1.181456149E-1,-1.286142170E-1,9.878170013E0
4.554163458E0,-1.396810263E-1,-1.142572835E-1,9.847063065E0
4.556607833E0,-1.157527938E-1,-1.286142170E-1,9.859027863E0
4.559052937E0,-1.205384433E-1,-1.357926875E-1,9.882955551E0
4.561497208E0,-1.157527938E-1,-1.333998591E-1,9.875777245E0
4.563940697E0,-1.372881979E-1,-1.166501045E-1,9.873384476E0
4.566385020E0,-1.372881979E-1,-1.214357466E-1,9.856635094E0
4.568830124E0,-1.277169138E-1,-1.504487246E-1,9.873384476E0
4.571274447E0,-1.516451389E-1,-1.528415531E-1,9.897313118E0
4.573717885E0,-1.396810263E-1,-1.357926875E-1,9.863813400E0
4.576162260E0,-1.396810263E-1,-1.453639716E-1,9.868598938E0
4.578607364E0,-1.301097274E-1,-1.094716340E-1,9.887741089E0
4.581051635E0,-1.181456149E-1,-1.214357466E-1,9.885348320E0
4.583495124E0,-1.181456149E-1,-1.429711580E-1,9.892526627E0
4.585939447E0,-1.229312643E-1,-1.190429255E-1,9.878170013E0
4.588384551E0,-1.205384433E-1,-1.357926875E-1,9.851848602E0
4.590828874E0,-1.229312643E-1,-1.381855011E-1,9.878170013E0
4.593272312E0,-1.277169138E-1,-1.381855011E-1,9.873384476E0
4.595716687E0,-1.372881979E-1,-1.310070455E-1,9.854242325E0
4.598161791E0,-1.325025558E-1,-1.429711580E-1,9.880562782E0
4.600606062E0,-1.157527938E-1,-1.333998591E-1,9.902098656E0
4.603049551E0,-1.181456149E-1,-1.262213886E-1,9.875777245E0
4.605493874E0,-1.468594968E-1,-1.333998591E-1,9.870991707E0
4.607938979E0,-1.301097274E-1,-1.552343667E-1,9.890133858E0
4.610383301E0,-1.181456149E-1,-1.262213886E-1,9.870991707E0
4.612826739E0,-1.372881979E-1,-1.357926875E-1,9.880562782E0
4.615271114E0,-1.492523104E-1,-1.429711580E-1,9.875777245E0
4.617716218E0,-1.301097274E-1,-1.190429255E-1,9.870991707E0
4.620160489E0,-1.348953694E-1,-1.238285750E-1,9.885348320E0
4.622603979E0,-1.277169138E-1,-1.333998591E-1,9.873384476E0
4.625048301E0,-1.396810263E-1,-1.429711580E-1,9.863813400E0
4.627493406E0,-1.420738399E-1,-1.405783296E-1,9.875777245E0
4.629937729E0,-1.205384433E-1,-1.238285750E-1,9.892526627E0
4.632381166E0,-1.325025558E-1,-1.552343667E-1,9.870991707E0
4.634825541E0,-1.253240854E-1,-1.238285750E-1,9.863813400E0
4.637270645E0,-1.133599728E-1,-1.214357466E-1,9.873384476E0
4.639714916E0,-1.229312643E-1,-1.453639716E-1,9.899705887E0
4.642158406E0,-1.301097274E-1,-1.381855011E-1,9.890133858E0
4.644602729E0,-1.348953694E-1,-1.262213886E-1,9.866206169E0
4.647047833E0,-1.085743308E-1,-1.238285750E-1,9.873384476E0
4.649492156E0,-1.444666684E-1,-1.357926875E-1,9.899705887E0
4.651935593E0,-1.372881979E-1,-1.214357466E-1,9.870991707E0
4.654379968E0,-1.277169138E-1,-1.405783296E-1,9.868598938E0
4.656825072E0,-1.301097274E-1,-1.453639716E-1,9.856635094E0
4.659269343E0,-1.157527938E-1,-1.381855011E-1,9.882955551E0
4.661712833E0,-1.181456149E-1,-1.333998591E-1,9.890133858E0
4.664157156E0,-1.277169138E-1,-1.214357466E-1,9.863813400E0
4.666602260E0,-1.372881979E-1,-1.333998591E-1,9.868598938E0
4.669046583E0,-1.277169138E-1,-1.286142170E-1,9.892526627E0
4.671490020E0,-1.181456149E-1,-1.214357466E-1,9.875777245E0
4.673934395E0,-1.516451389E-1,-1.453639716E-1,9.844670296E0
4.676379499E0,-1.205384433E-1,-1.310070455E-1,9.861420631E0
4.678823822E0,-1.205384433E-1,-1.528415531E-1,9.875777245E0
4.681267260E0,-1.157527938E-1,-1.453639716E-1,9.885348320E0
4.683711583E0,-1.205384433E-1,-1.310070455E-1,9.873384476E0
4.686156687E0,-1.348953694E-1,-1.190429255E-1,9.854242325E0
4.688601010E0,-1.229312643E-1,-1.381855011E-1,9.870991707E0
4.691044447E0,-1.109671518E-1,-1.405783296E-1,9.878170013E0
4.693488822E0,-1.277169138E-1,-1.381855011E-1,9.887741089E0
4.695933926E0,-1.229312643E-1,-1.357926875E-1,9.868598938E0
4.698378249E0,-1.348953694E-1,-1.310070455E-1,9.875777245E0
4.700821687E0,-1.325025558E-1,-1.381855011E-1,9.890133858E0
4.703266062E0,-1.277169138E-1,-1.429711580E-1,9.868598938E0
4.705711114E0,-1.348953694E-1,-1.310070455E-1,9.870991707E0
4.708155437E0,-1.301097274E-1,-1.453639716E-1,9.878170013E0
4.710598874E0,-1.325025558E-1,-1.310070455E-1,9.885348320E0
4.713043249E0,-1.301097274E-1,-1.238285750E-1,9.863813400E0
4.715488354E0,-1.420738399E-1,-1.238285750E-1,9.851848602E0
4.717932676E0,-1.277169138E-1,-1.142572835E-1,9.851848602E0
4.720376114E0,-1.301097274E-1,-1.190429255E-1,9.878170013E0
4.722820489E0,-1.396810263E-1,-1.190429255E-1,9.873384476E0
4.725265541E0,-1.420738399E-1,-1.310070455E-1,9.875777245E0
4.727709864E0,-1.325025558E-1,-1.333998591E-1,9.856635094E0
4.730153301E0,-1.492523104E-1,-1.528415531E-1,9.870991707E0
4.732597676E0,-1.253240854E-1,-1.528415531E-1,9.859027863E0
4.735042781E0,-1.277169138E-1,-1.381855011E-1,9.844670296E0
4.737487104E0,-1.205384433E-1,-1.333998591E-1,9.859027863E0
4.739930541E0,-1.205384433E-1,-1.429711580E-1,9.880562782E0
4.742374916E0,-1.420738399E-1,-1.333998591E-1,9.837491989E0
4.744820020E0,-1.420738399E-1,-1.310070455E-1,9.849455833E0
4.747264291E0,-1.157527938E-1,-1.405783296E-1,9.859027863E0
4.749707781E0,-1.157527938E-1,-1.576271951E-1,9.873384476E0
4.752152104E0,-1.348953694E-1,-1.333998591E-1,9.875777245E0
4.754597208E0,-1.205384433E-1,-1.310070455E-1,9.880562782E0
4.757041531E0,-1.372881979E-1,-1.480558962E-1,9.887741089E0
4.759484968E0,-1.253240854E-1,-1.357926875E-1,9.873384476E0
4.761929343E0,-1.229312643E-1,-1.381855011E-1,9.854242325E0
4.764374447E0,-1.444666684E-1,-1.286142170E-1,9.835099220E0
4.766818718E0,-1.348953694E-1,-1.310070455E-1,9.861420631E0
4.769262208E0,-1.420738399E-1,-1.214357466E-1,9.873384476E0
4.771706531E0,-1.061815023E-1,-1.357926875E-1,9.870991707E0
4.774151635E0,-1.396810263E-1,-1.310070455E-1,9.861420631E0
4.776595958E0,-1.325025558E-1,-1.333998591E-1,9.866206169E0
4.779039395E0,-1.229312643E-1,-1.286142170E-1,9.894919395E0
4.781483770E0,-1.229312643E-1,-1.429711580E-1,9.880562782E0
4.783928874E0,-1.205384433E-1,-1.429711580E-1,9.882955551E0
4.786373145E0,-1.301097274E-1,-1.600200087E-1,9.875777245E0
4.788816635E0,-1.229312643E-1,-1.357926875E-1,9.892526627E0
4.791260958E0,-1.181456149E-1,-1.333998591E-1,9.875777245E0
4.793706062E0,-1.372881979E-1,-1.504487246E-1,9.882955551E0
4.796150385E0,-1.301097274E-1,-1.286142170E-1,9.866206169E0
4.798593822E0,-9.900303930E-2,-1.429711580E-1,9.878170013E0
4.801038197E0,-1.372881979E-1,-1.453639716E-1,9.880562782E0
4.803483301E0,-1.348953694E-1,-1.238285750E-1,9.854242325E0
4.805927572E0,-1.444666684E-1,-1.405783296E-1,9.863813400E0
4.808371062E0,-1.325025558E-1,-1.310070455E-1,9.866206169E0
4.810815385E0,-1.109671518E-1,-1.405783296E-1,9.870991707E0
4.813260489E0,-1.277169138E-1,-1.576271951E-1,9.868598938E0
4.815704812E0,-1.396810263E-1,-1.429711580E-1,9.866206169E0
4.818148249E0,-1.205384433E-1,-1.262213886E-1,9.854242325E0
4.820592624E0,-1.181456149E-1,-1.286142170E-1,9.870991707E0
4.823037729E0,-1.468594968E-1,-1.648056656E-1,9.861420631E0
4.825481999E0,-1.348953694E-1,-1.286142170E-1,9.849455833E0
4.827925489E0,-1.348953694E-1,-1.453639716E-1,9.887741089E0
4.830369812E0,-1.348953694E-1,-1.357926875E-1,9.878170013E0
4.832814916E0,-1.301097274E-1,-1.310070455E-1,9.873384476E0
4.835259239E0,-1.085743308E-1,-1.453639716E-1,9.873384476E0
4.837702676E0,-1.253240854E-1,-1.238285750E-1,9.878170013E0
4.840147051E0,-1.396810263E-1,-1.333998591E-1,9.882955551E0
4.842592156E0,-1.301097274E-1,-1.262213886E-1,9.870991707E0
4.845036479E0,-1.301097274E-1,-1.118644550E-1,9.854242325E0
4.847479916E0,-1.301097274E-1,-1.238285750E-1,9.854242325E0
4.849924239E0,-1.205384433E-1,-1.381855011E-1,9.909276962E0
4.852369343E0,-1.372881979E-1,-1.262213886E-1,9.870991707E0
4.854813666E0,-1.492523104E-1,-1.528415531E-1,9.878170013E0
4.857257104E0,-1.420738399E-1,-1.333998591E-1,9.873384476E0
4.859701479E0,-1.492523104E-1,-1.381855011E-1,9.873384476E0
4.862146583E0,-1.109671518E-1,-1.405783296E-1,9.873384476E0
4.864590906E0,-1.444666684E-1,-1.381855011E-1,9.849455833E0
4.867034343E0,-1.396810263E-1,-1.333998591E-1,9.890133858E0
4.869478718E0,-1.420738399E-1,-1.238285750E-1,9.887741089E0
4.871923822E0,-1.348953694E-1,-1.214357466E-1,9.866206169E0
4.874368093E0,-1.396810263E-1,-1.624128371E-1,9.854242325E0
4.876811531E0,-1.085743308E-1,-1.429711580E-1,9.856635094E0
4.879255906E0,-1.085743308E-1,-1.552343667E-1,9.890133858E0
4.881701010E0,-1.325025558E-1,-1.166501045E-1,9.887741089E0
4.884145333E0,-1.277169138E-1,-1.333998591E-1,9.849455833E0
4.886588770E0,-1.253240854E-1,-1.429711580E-1,9.868598938E0
4.889033145E0,-1.372881979E-1,-1.214357466E-1,9.866206169E0
4.891478249E0,-1.109671518E-1,-1.286142170E-1,9.847063065E0
4.893922520E0,-1.492523104E-1,-1.429711580E-1,9.863813400E0
