"Time (s)","Gyroscope x (rad/s)","Gyroscope y (rad/s)","Gyroscope z (rad/s)"
1.188964260E-1,1.527118147E-4,1.832541777E-3,-2.290677279E-3
1.213407490E-1,1.527118147E-4,-6.108472589E-4,1.527118147E-4
1.237841870E-1,1.374406274E-3,-6.108472589E-4,1.527118147E-4
1.262285620E-1,1.527118147E-4,6.108472589E-4,-2.290677279E-3
1.286736660E-1,1.527118147E-4,6.108472589E-4,-1.068982761E-3
1.311179890E-1,1.527118147E-4,6.108472589E-4,1.527118147E-4
1.335614260E-1,1.527118147E-4,6.108472589E-4,1.527118147E-4
1.360058010E-1,1.527118147E-4,6.108472589E-4,1.374406274E-3
1.384508540E-1,1.527118147E-4,1.832541777E-3,1.527118147E-4
1.408951760E-1,-1.068982761E-3,6.108472589E-4,-1.068982761E-3
1.433386660E-1,1.374406274E-3,-6.108472589E-4,1.527118147E-4
1.457829890E-1,1.527118147E-4,6.108472589E-4,2.596100792E-3
1.482280930E-1,1.527118147E-4,-1.832541777E-3,-1.068982761E-3
1.506724160E-1,1.527118147E-4,6.108472589E-4,1.527118147E-4
1.531158540E-1,1.527118147E-4,6.108472589E-4,1.527118147E-4
1.555602290E-1,-2.290677279E-3,-6.108472589E-4,-2.290677279E-3
1.580053330E-1,1.374406274E-3,-1.832541777E-3,5.039489828E-3
1.604496040E-1,1.527118147E-4,-1.832541777E-3,-2.290677279E-3
1.628930930E-1,-2.290677279E-3,-6.108472589E-4,-2.290677279E-3
1.653374160E-1,-1.068982761E-3,3.054236295E-3,-3.512371797E-3
1.677825200E-1,1.374406274E-3,6.108472589E-4,1.527118147E-4
1.702268430E-1,-1.068982761E-3,6.108472589E-4,-2.290677279E-3
1.726702810E-1,1.527118147E-4,1.832541777E-3,1.374406274E-3
1.751146560E-1,-1.068982761E-3,-6.108472589E-4,1.374406274E-3
1.775597600E-1,-2.290677279E-3,6.108472589E-4,-3.512371797E-3
1.800040830E-1,-1.068982761E-3,6.108472589E-4,-1.068982761E-3
1.824475200E-1,-1.068982761E-3,1.832541777E-3,-2.290677279E-3
1.848918950E-1,1.527118147E-4,-6.108472589E-4,1.527118147E-4
1.873369990E-1,2.596100792E-3,-6.108472589E-4,1.374406274E-3
1.897812700E-1,-1.068982761E-3,6.108472589E-4,-4.734066315E-3
1.922247600E-1,1.527118147E-4,-1.832541777E-3,1.374406274E-3
1.946690830E-1,-1.068982761E-3,-6.108472589E-4,-3.512371797E-3
1.971141870E-1,-1.068982761E-3,1.832541777E-3,-2.290677279E-3
1.995585100E-1,1.527118147E-4,-6.108472589E-4,-3.512371797E-3
2.020019470E-1,1.527118147E-4,-1.832541777E-3,1.374406274E-3
2.044463220E-1,1.527118147E-4,-1.832541777E-3,1.527118147E-4
2.068914260E-1,-1.068982761E-3,-6.108472589E-4,-2.290677279E-3
2.093356970E-1,-1.068982761E-3,1.832541777E-3,-2.290677279E-3
2.117791870E-1,-2.290677279E-3,6.108472589E-4,-4.734066315E-3
2.142235620E-1,1.374406274E-3,-6.108472589E-4,-2.290677279E-3
2.166686140E-1,-1.068982761E-3,6.108472589E-4,-1.068982761E-3
2.191129370E-1,1.527118147E-4,-6.108472589E-4,1.374406274E-3
2.215564260E-1,-2.290677279E-3,6.108472589E-4,-5.955760833E-3
2.240007490E-1,-1.068982761E-3,-6.108472589E-4,1.527118147E-4
2.264458540E-1,1.527118147E-4,3.054236295E-3,-2.290677279E-3
2.288901760E-1,1.374406274E-3,3.054236295E-3,1.527118147E-4
2.313336140E-1,-2.290677279E-3,1.832541777E-3,-4.734066315E-3
2.337779890E-1,-2.290677279E-3,-6.108472589E-4,-3.512371797E-3
2.362230930E-1,1.527118147E-4,-1.832541777E-3,-1.068982761E-3
2.386673640E-1,1.374406274E-3,-3.054236295E-3,1.374406274E-3
2.411108540E-1,1.527118147E-4,-6.108472589E-4,1.527118147E-4
2.435551760E-1,1.527118147E-4,-6.108472589E-4,-3.512371797E-3
2.460002810E-1,1.527118147E-4,6.108472589E-4,-1.068982761E-3
2.484446040E-1,-1.068982761E-3,1.832541777E-3,-1.068982761E-3
2.508880410E-1,1.527118147E-4,-6.108472589E-4,1.374406274E-3
2.533324160E-1,1.527118147E-4,-6.108472589E-4,3.817795310E-3
2.557775200E-1,-1.068982761E-3,-6.108472589E-4,-1.068982761E-3
2.582218430E-1,1.527118147E-4,-1.832541777E-3,-1.068982761E-3
2.606652810E-1,1.527118147E-4,-6.108472589E-4,1.374406274E-3
2.631096560E-1,-1.068982761E-3,-6.108472589E-4,1.527118147E-4
2.655547600E-1,-2.290677279E-3,6.108472589E-4,-2.290677279E-3
2.679990310E-1,-2.290677279E-3,6.108472589E-4,-2.290677279E-3
2.704425200E-1,-1.068982761E-3,-6.108472589E-4,-1.068982761E-3
2.728868430E-1,2.596100792E-3,-1.832541777E-3,1.527118147E-4
2.753319470E-1,1.374406274E-3,-6.108472589E-4,-1.068982761E-3
2.777762700E-1,1.527118147E-4,6.108472589E-4,-2.290677279E-3
2.802197080E-1,-1.068982761E-3,1.832541777E-3,-2.290677279E-3
2.826640830E-1,1.374406274E-3,-6.108472589E-4,1.374406274E-3
2.851091870E-1,1.374406274E-3,-6.108472589E-4,1.374406274E-3
2.875534580E-1,1.527118147E-4,6.108472589E-4,-2.290677279E-3
2.899969470E-1,1.527118147E-4,6.108472589E-4,-1.068982761E-3
2.924413220E-1,-2.290677279E-3,6.108472589E-4,-1.068982761E-3
2.948863740E-1,1.527118147E-4,6.108472589E-4,-1.068982761E-3
2.973306970E-1,1.527118147E-4,6.108472589E-4,-1.068982761E-3
2.997741350E-1,-1.068982761E-3,1.832541777E-3,-2.290677279E-3
3.022185100E-1,-3.512371797E-3,-6.108472589E-4,-3.512371797E-3
3.046636140E-1,-1.068982761E-3,6.108472589E-4,-4.734066315E-3
3.071079370E-1,2.596100792E-3,6.108472589E-4,3.817795310E-3
3.095513740E-1,1.374406274E-3,6.108472589E-4,3.817795310E-3
3.119957490E-1,-2.290677279E-3,-6.108472589E-4,-1.068982761E-3
3.144408540E-1,1.527118147E-4,1.832541777E-3,-1.068982761E-3
3.168851240E-1,1.527118147E-4,6.108472589E-4,-1.068982761E-3
3.193286140E-1,1.527118147E-4,-6.108472589E-4,1.527118147E-4
3.217729370E-1,-1.068982761E-3,-1.832541777E-3,-1.068982761E-3
3.242180410E-1,1.527118147E-4,-6.108472589E-4,-3.512371797E-3
3.266623640E-1,1.527118147E-4,1.832541777E-3,-3.512371797E-3
3.291058010E-1,1.374406274E-3,6.108472589E-4,2.596100792E-3
3.315501760E-1,2.596100792E-3,-1.832541777E-3,2.596100792E-3
3.339952810E-1,-1.068982761E-3,-6.108472589E-4,-4.734066315E-3
3.364396040E-1,1.374406274E-3,6.108472589E-4,1.527118147E-4
3.388830410E-1,2.596100792E-3,-1.832541777E-3,2.596100792E-3
3.413274160E-1,-1.068982761E-3,-6.108472589E-4,-1.068982761E-3
3.437724680E-1,1.527118147E-4,-6.108472589E-4,-2.290677279E-3
3.462167910E-1,1.527118147E-4,-1.832541777E-3,1.374406274E-3
3.486602810E-1,1.527118147E-4,-6.108472589E-4,1.374406274E-3
3.511046040E-1,-1.068982761E-3,-6.108472589E-4,1.527118147E-4
3.535497080E-1,1.527118147E-4,-6.108472589E-4,-2.290677279E-3
3.559940310E-1,1.527118147E-4,6.108472589E-4,-1.068982761E-3
3.584374680E-1,-1.068982761E-3,-6.108472589E-4,1.527118147E-4
3.608818430E-1,1.527118147E-4,-6.108472589E-4,-3.512371797E-3
3.633269470E-1,-1.068982761E-3,6.108472589E-4,-4.734066315E-3
3.657712180E-1,1.527118147E-4,6.108472589E-4,1.527118147E-4
3.682147080E-1,1.527118147E-4,-6.108472589E-4,1.527118147E-4
3.706590310E-1,1.527118147E-4,6.108472589E-4,1.527118147E-4
3.731041350E-1,-1.068982761E-3,-6.108472589E-4,-1.068982761E-3
3.755484580E-1,-1.068982761E-3,6.108472589E-4,-2.290677279E-3
3.779918950E-1,1.374406274E-3,-6.108472589E-4,1.527118147E-4
3.804362700E-1,1.527118147E-4,-6.108472589E-4,1.527118147E-4
3.828813740E-1,1.527118147E-4,-6.108472589E-4,1.374406274E-3
3.853256970E-1,1.374406274E-3,1.832541777E-3,1.374406274E-3
3.877691350E-1,1.374406274E-3,-6.108472589E-4,-1.068982761E-3
3.902135100E-1,2.596100792E-3,-1.832541777E-3,1.527118147E-4
3.926586140E-1,2.596100792E-3,-1.832541777E-3,-1.068982761E-3
3.951028850E-1,-1.068982761E-3,-6.108472589E-4,-3.512371797E-3
3.975463740E-1,1.527118147E-4,6.108472589E-4,1.527118147E-4
3.999906970E-1,-1.068982761E-3,6.108472589E-4,-1.068982761E-3
4.024358010E-1,1.527118147E-4,-6.108472589E-4,-2.290677279E-3
4.048801240E-1,-1.068982761E-3,-6.108472589E-4,-2.290677279E-3
4.073235620E-1,2.596100792E-3,-3.054236295E-3,-1.068982761E-3
4.097679370E-1,1.527118147E-4,6.108472589E-4,-1.068982761E-3
4.122130410E-1,1.527118147E-4,-6.108472589E-4,2.596100792E-3
4.146573640E-1,1.374406274E-3,-1.832541777E-3,2.596100792E-3
4.171008010E-1,1.374406274E-3,6.108472589E-4,1.374406274E-3
4.195451760E-1,1.527118147E-4,6.108472589E-4,-1.068982761E-3
4.219902290E-1,-1.068982761E-3,-6.108472589E-4,-1.068982761E-3
4.244345510E-1,1.527118147E-4,-6.108472589E-4,1.374406274E-3
4.268780410E-1,-1.068982761E-3,-6.108472589E-4,-3.512371797E-3
4.293223640E-1,1.527118147E-4,-1.832541777E-3,1.527118147E-4
4.317674680E-1,1.527118147E-4,1.832541777E-3,1.374406274E-3
4.342117910E-1,1.374406274E-3,-6.108472589E-4,-1.068982761E-3
4.366552290E-1,1.374406274E-3,-6.108472589E-4,-1.068982761E-3
4.390996040E-1,1.374406274E-3,-1.832541777E-3,1.374406274E-3
4.415447080E-1,1.527118147E-4,-1.832541777E-3,2.596100792E-3
4.439889790E-1,1.527118147E-4,-6.108472589E-4,-1.068982761E-3
4.464324680E-1,1.527118147E-4,-6.108472589E-4,-1.068982761E-3
4.488767910E-1,-1.068982761E-3,6.108472589E-4,-1.068982761E-3
4.513218950E-1,-1.068982761E-3,6.108472589E-4,1.527118147E-4
4.537662180E-1,1.527118147E-4,6.108472589E-4,-1.068982761E-3
4.562096560E-1,-2.290677279E-3,-6.108472589E-4,-3.512371797E-3
4.586540310E-1,1.527118147E-4,-4.275931045E-3,-1.068982761E-3
4.610991350E-1,-1.068982761E-3,-3.054236295E-3,1.527118147E-4
4.635434580E-1,-1.068982761E-3,-6.108472589E-4,1.374406274E-3
4.659868950E-1,-1.068982761E-3,6.108472589E-4,-2.290677279E-3
4.684312700E-1,1.527118147E-4,6.108472589E-4,-1.068982761E-3
4.708763740E-1,1.527118147E-4,-6.108472589E-4,-2.290677279E-3
4.733206450E-1,-1.068982761E-3,1.832541777E-3,-2.290677279E-3
4.757640830E-1,1.527118147E-4,-1.832541777E-3,1.527118147E-4
4.782084580E-1,1.527118147E-4,6.108472589E-4,1.374406274E-3
4.806535620E-1,-1.068982761E-3,-6.108472589E-4,-1.068982761E-3
4.830978850E-1,-1.068982761E-3,3.054236295E-3,1.527118147E-4
4.855413220E-1,1.527118147E-4,-6.108472589E-4,2.596100792E-3
4.879856970E-1,-1.068982761E-3,-1.832541777E-3,-4.734066315E-3
4.904308010E-1,-1.068982761E-3,-6.108472589E-4,-3.512371797E-3
4.928750720E-1,1.527118147E-4,-6.108472589E-4,1.527118147E-4
4.953185620E-1,1.374406274E-3,-6.108472589E-4,1.374406274E-3
4.977628850E-1,1.374406274E-3,-6.108472589E-4,1.374406274E-3
5.002079890E-1,1.527118147E-4,-1.832541777E-3,-1.068982761E-3
5.026523120E-1,-1.068982761E-3,-3.054236295E-3,-2.290677279E-3
5.050957490E-1,-1.068982761E-3,-6.108472589E-4,-2.290677279E-3
5.075401240E-1,-1.068982761E-3,-6.108472589E-4,1.527118147E-4
5.099852290E-1,1.527118147E-4,-6.108472589E-4,-2.290677279E-3
5.124295510E-1,-1.068982761E-3,1.832541777E-3,-1.068982761E-3
5.148729890E-1,-1.068982761E-3,-6.108472589E-4,-2.290677279E-3
5.173173640E-1,1.527118147E-4,6.108472589E-4,1.527118147E-4
5.197624680E-1,1.374406274E-3,6.108472589E-4,1.527118147E-4
5.222067390E-1,-1.068982761E-3,6.108472589E-4,-4.734066315E-3
5.246502290E-1,-1.068982761E-3,6.108472589E-4,-3.512371797E-3
5.270945510E-1,1.527118147E-4,-6.108472589E-4,1.527118147E-4
5.295396560E-1,1.527118147E-4,-1.832541777E-3,1.374406274E-3
5.319839790E-1,-1.068982761E-3,6.108472589E-4,1.374406274E-3
5.344274160E-1,1.527118147E-4,-6.108472589E-4,-1.068982761E-3
5.368717910E-1,-1.068982761E-3,3.054236295E-3,-3.512371797E-3
5.393168950E-1,-2.290677279E-3,6.108472589E-4,-5.955760833E-3
5.417611660E-1,1.527118147E-4,1.832541777E-3,-3.512371797E-3
5.442046560E-1,-1.068982761E-3,1.832541777E-3,-2.290677279E-3
5.466490310E-1,-2.290677279E-3,6.108472589E-4,-2.290677279E-3
5.490940830E-1,-1.068982761E-3,-1.832541777E-3,1.374406274E-3
5.515384060E-1,1.527118147E-4,-6.108472589E-4,1.527118147E-4
5.539818950E-1,1.527118147E-4,-6.108472589E-4,1.527118147E-4
5.564262180E-1,2.596100792E-3,6.108472589E-4,2.596100792E-3
5.588713220E-1,1.374406274E-3,-6.108472589E-4,1.527118147E-4
5.613156450E-1,1.527118147E-4,-6.108472589E-4,-1.068982761E-3
5.637590830E-1,1.374406274E-3,-6.108472589E-4,-1.068982761E-3
5.662034580E-1,1.527118147E-4,6.108472589E-4,1.527118147E-4
5.686485620E-1,1.374406274E-3,-6.108472589E-4,1.374406274E-3
5.710928330E-1,1.527118147E-4,1.832541777E-3,2.596100792E-3
5.735363220E-1,1.527118147E-4,6.108472589E-4,1.527118147E-4
5.759806450E-1,1.527118147E-4,-1.832541777E-3,-1.068982761E-3
5.784257490E-1,1.527118147E-4,6.108472589E-4,-1.068982761E-3
5.808700720E-1,-1.068982761E-3,6.108472589E-4,-1.068982761E-3
5.833135100E-1,1.527118147E-4,-1.832541777E-3,1.527118147E-4
5.857578850E-1,1.527118147E-4,6.108472589E-4,-2.290677279E-3
5.882029890E-1,1.527118147E-4,-1.832541777E-3,2.596100792E-3
5.906472600E-1,1.374406274E-3,6.108472589E-4,1.374406274E-3
5.930907490E-1,1.374406274E-3,1.832541777E-3,1.527118147E-4
5.955351240E-1,1.527118147E-4,6.108472589E-4,-1.068982761E-3
5.979801760E-1,1.374406274E-3,-1.832541777E-3,1.374406274E-3
6.004244990E-1,-1.068982761E-3,-6.108472589E-4,-1.068982761E-3
6.028679370E-1,-1.068982761E-3,1.832541777E-3,1.527118147E-4
6.053123120E-1,1.374406274E-3,-1.832541777E-3,-1.068982761E-3
6.077574160E-1,1.527118147E-4,-1.832541777E-3,-1.068982761E-3
6.102017390E-1,1.527118147E-4,6.108472589E-4,2.596100792E-3
6.126451760E-1,1.527118147E-4,6.108472589E-4,1.374406274E-3
6.150895510E-1,-1.068982761E-3,-6.108472589E-4,-1.068982761E-3
6.175346560E-1,1.527118147E-4,6.108472589E-4,-2.290677279E-3
6.199789260E-1,-1.068982761E-3,6.108472589E-4,1.527118147E-4
6.224224160E-1,1.527118147E-4,6.108472589E-4,-2.290677279E-3
6.248667390E-1,1.527118147E-4,-6.108472589E-4,-1.068982761E-3
6.273118430E-1,-1.068982761E-3,-6.108472589E-4,-1.068982761E-3
6.297561660E-1,-1.068982761E-3,1.832541777E-3,1.374406274E-3
6.321996040E-1,1.527118147E-4,6.108472589E-4,-1.068982761E-3
6.346439790E-1,1.527118147E-4,1.832541777E-3,-3.512371797E-3
6.370890830E-1,-1.068982761E-3,6.108472589E-4,-1.068982761E-3
6.395334060E-1,1.374406274E-3,-1.832541777E-3,1.527118147E-4
6.419768430E-1,1.527118147E-4,6.108472589E-4,1.527118147E-4
6.444212180E-1,1.527118147E-4,1.832541777E-3,1.527118147E-4
6.468663220E-1,1.527118147E-4,6.108472589E-4,1.527118147E-4
6.493105930E-1,1.374406274E-3,6.108472589E-4,2.596100792E-3
6.517540830E-1,-1.068982761E-3,6.108472589E-4,1.374406274E-3
6.541984060E-1,1.527118147E-4,-6.108472589E-4,1.527118147E-4
6.566435100E-1,-1.068982761E-3,6.108472589E-4,-2.290677279E-3
6.590878330E-1,1.374406274E-3,-1.832541777E-3,-1.068982761E-3
6.615312700E-1,1.374406274E-3,-6.108472589E-4,-1.068982761E-3
6.639756450E-1,1.527118147E-4,-6.108472589E-4,1.527118147E-4
6.664207490E-1,-1.068982761E-3,1.832541777E-3,-2.290677279E-3
6.688650200E-1,-1.068982761E-3,-6.108472589E-4,-2.290677279E-3
6.713085100E-1,1.374406274E-3,6.108472589E-4,1.527118147E-4
6.737528330E-1,-1.068982761E-3,-6.108472589E-4,1.527118147E-4
6.761979370E-1,-1.068982761E-3,-1.832541777E-3,-1.068982761E-3
6.786422600E-1,1.527118147E-4,-6.108472589E-4,1.527118147E-4
6.810856970E-1,1.527118147E-4,-6.108472589E-4,-1.068982761E-3
6.835300720E-1,-1.068982761E-3,6.108472589E-4,-2.290677279E-3
6.859751760E-1,1.527118147E-4,-6.108472589E-4,1.527118147E-4
6.884194990E-1,-1.068982761E-3,1.832541777E-3,1.527118147E-4
6.908629370E-1,1.527118147E-4,6.108472589E-4,-1.068982761E-3
6.933073120E-1,1.527118147E-4,6.108472589E-4,-3.512371797E-3
6.957523640E-1,-2.290677279E-3,6.108472589E-4,-5.955760833E-3
6.981966870E-1,1.374406274E-3,-6.108472589E-4,1.527118147E-4
7.006401760E-1,1.527118147E-4,6.108472589E-4,1.374406274E-3
7.030844990E-1,1.374406274E-3,-1.832541777E-3,1.374406274E-3
7.055296040E-1,1.527118147E-4,-6.108472589E-4,1.527118147E-4
7.079739260E-1,1.527118147E-4,6.108472589E-4,-1.068982761E-3
7.104173640E-1,1.527118147E-4,6.108472589E-4,-2.290677279E-3
7.128617390E-1,-1.068982761E-3,6.108472589E-4,-1.068982761E-3
7.153068430E-1,-1.068982761E-3,6.108472589E-4,-1.068982761E-3
7.177511140E-1,1.527118147E-4,-6.108472589E-4,1.527118147E-4
7.201946040E-1,-1.068982761E-3,6.108472589E-4,1.527118147E-4
7.226389260E-1,1.527118147E-4,-1.832541777E-3,1.527118147E-4
7.250840310E-1,1.527118147E-4,6.108472589E-4,1.527118147E-4
7.275283540E-1,1.374406274E-3,-6.108472589E-4,-2.290677279E-3
7.299717910E-1,1.374406274E-3,-6.108472589E-4,-1.068982761E-3
7.324161660E-1,-2.290677279E-3,6.108472589E-4,-4.734066315E-3
7.348612700E-1,1.527118147E-4,6.108472589E-4,1.527118147E-4
7.373055930E-1,-1.068982761E-3,-6.108472589E-4,1.527118147E-4
7.397490310E-1,1.527118147E-4,6.108472589E-4,-1.068982761E-3
7.421933540E-1,1.374406274E-3,6.108472589E-4,-1.068982761E-3
7.446385100E-1,1.527118147E-4,6.108472589E-4,1.527118147E-4
7.470827810E-1,1.527118147E-4,1.832541777E-3,1.374406274E-3
7.495262180E-1,-1.068982761E-3,-6.108472589E-4,-1.068982761E-3
7.519705930E-1,1.527118147E-4,-6.108472589E-4,-1.068982761E-3
7.544156970E-1,-2.290677279E-3,1.832541777E-3,-5.955760833E-3
7.568600200E-1,1.374406274E-3,6.108472589E-4,1.374406274E-3
7.593034580E-1,1.374406274E-3,6.108472589E-4,2.596100792E-3
7.617478330E-1,1.527118147E-4,-6.108472589E-4,-1.068982761E-3
7.641929370E-1,1.527118147E-4,-6.108472589E-4,2.596100792E-3
7.666372080E-1,1.374406274E-3,6.108472589E-4,1.374406274E-3
7.690806970E-1,1.527118147E-4,-6.108472589E-4,-2.290677279E-3
7.715250200E-1,-1.068982761E-3,6.108472589E-4,-5.955760833E-3
7.739701240E-1,1.527118147E-4,6.108472589E-4,2.596100792E-3
7.764144470E-1,1.374406274E-3,-6.108472589E-4,2.596100792E-3
7.788578850E-1,1.527118147E-4,-3.054236295E-3,-2.290677279E-3
7.813022600E-1,-1.068982761E-3,6.108472589E-4,-1.068982761E-3
7.837473640E-1,-1.068982761E-3,-6.108472589E-4,-1.068982761E-3
7.861916870E-1,1.527118147E-4,1.832541777E-3,1.527118147E-4
7.886351240E-1,-1.068982761E-3,-6.108472589E-4,-3.512371797E-3
7.910794990E-1,-1.068982761E-3,6.108472589E-4,-3.512371797E-3
7.935246040E-1,1.527118147E-4,-6.108472589E-4,1.374406274E-3
7.959688740E-1,1.527118147E-4,-1.832541777E-3,1.374406274E-3
7.984123640E-1,1.527118147E-4,6.108472589E-4,1.527118147E-4
8.008566870E-1,1.527118147E-4,6.108472589E-4,1.527118147E-4
8.033017910E-1,1.374406274E-3,-6.108472589E-4,1.527118147E-4
8.057461140E-1,1.374406274E-3,6.108472589E-4,1.527118147E-4
8.081895510E-1,-1.068982761E-3,-6.108472589E-4,-2.290677279E-3
8.106339260E-1,1.527118147E-4,1.832541777E-3,-3.512371797E-3
8.130790310E-1,1.374406274E-3,6.108472589E-4,-1.068982761E-3
8.155233010E-1,1.374406274E-3,6.108472589E-4,-1.068982761E-3
8.179667910E-1,-1.068982761E-3,6.108472589E-4,-2.290677279E-3
8.204111140E-1,1.527118147E-4,-1.832541777E-3,-1.068982761E-3
8.228562180E-1,1.374406274E-3,6.108472589E-4,1.527118147E-4
8.253005410E-1,-1.068982761E-3,-6.108472589E-4,1.527118147E-4
8.277439790E-1,1.527118147E-4,6.108472589E-4,-1.068982761E-3
8.301883540E-1,1.527118147E-4,6.108472589E-4,-1.068982761E-3
8.326334580E-1,-1.068982761E-3,6.108472589E-4,-1.068982761E-3
8.350777810E-1,1.527118147E-4,-6.108472589E-4,1.527118147E-4
8.375212180E-1,1.527118147E-4,6.108472589E-4,1.527118147E-4
8.399655930E-1,1.527118147E-4,6.108472589E-4,-1.068982761E-3
8.424106970E-1,-1.068982761E-3,-6.108472589E-4,1.527118147E-4
8.448549680E-1,-2.290677279E-3,-1.832541777E-3,-2.290677279E-3
8.472984580E-1,1.374406274E-3,6.108472589E-4,-1.068982761E-3
8.497427810E-1,1.527118147E-4,-1.832541777E-3,1.527118147E-4
8.521878850E-1,-1.068982761E-3,-6.108472589E-4,-1.068982761E-3
8.546322080E-1,1.374406274E-3,-6.108472589E-4,5.039489828E-3
8.570756450E-1,1.374406274E-3,-6.108472589E-4,1.527118147E-4
8.595200200E-1,1.527118147E-4,6.108472589E-4,-1.068982761E-3
8.619651240E-1,1.527118147E-4,6.108472589E-4,1.374406274E-3
8.644093950E-1,-1.068982761E-3,6.108472589E-4,-1.068982761E-3
8.668528850E-1,-1.068982761E-3,-1.832541777E-3,-1.068982761E-3
8.692972080E-1,1.374406274E-3,-1.832541777E-3,2.596100792E-3
8.717423120E-1,1.527118147E-4,6.108472589E-4,1.527118147E-4
8.741866350E-1,1.527118147E-4,-6.108472589E-4,1.374406274E-3
8.766300720E-1,3.817795310E-3,6.108472589E-4,5.039489828E-3
8.790744470E-1,1.527118147E-4,-6.108472589E-4,1.374406274E-3
8.815195510E-1,-1.068982761E-3,6.108472589E-4,1.527118147E-4
8.839638740E-1,1.527118147E-4,-6.108472589E-4,-1.068982761E-3
8.864073120E-1,1.527118147E-4,6.108472589E-4,-1.068982761E-3
8.888516870E-1,1.527118147E-4,6.108472589E-4,-1.068982761E-3
8.912967910E-1,1.374406274E-3,-1.832541777E-3,1.527118147E-4
8.937410620E-1,1.527118147E-4,-6.108472589E-4,-1.068982761E-3
8.961844990E-1,1.527118147E-4,-6.108472589E-4,-4.734066315E-3
8.986288740E-1,1.374406274E-3,-6.108472589E-4,5.039489828E-3
9.010739790E-1,1.527118147E-4,6.108472589E-4,1.374406274E-3
9.035183010E-1,1.374406274E-3,-1.832541777E-3,-1.068982761E-3
9.059617390E-1,1.527118147E-4,-3.054236295E-3,1.527118147E-4
9.084061140E-1,1.374406274E-3,-6.108472589E-4,1.527118147E-4
9.108512180E-1,1.527118147E-4,1.832541777E-3,1.374406274E-3
9.132954890E-1,-1.068982761E-3,-6.108472589E-4,-3.512371797E-3
9.157389790E-1,-1.068982761E-3,6.108472589E-4,-2.290677279E-3
9.181833010E-1,-1.068982761E-3,6.108472589E-4,-2.290677279E-3
9.206284060E-1,2.596100792E-3,6.108472589E-4,-1.068982761E-3
9.230727290E-1,-1.068982761E-3,6.108472589E-4,-1.068982761E-3
9.255161660E-1,1.527118147E-4,6.108472589E-4,1.527118147E-4
9.279605410E-1,1.374406274E-3,-1.832541777E-3,2.596100792E-3
9.304056450E-1,1.374406274E-3,-3.054236295E-3,1.527118147E-4
9.328499160E-1,-1.068982761E-3,6.108472589E-4,1.527118147E-4
9.352934060E-1,-1.068982761E-3,1.832541777E-3,-8.399149403E-3
9.377377810E-1,1.527118147E-4,6.108472589E-4,-2.290677279E-3
9.401828850E-1,-2.290677279E-3,6.108472589E-4,-3.512371797E-3
9.426271560E-1,1.374406274E-3,-6.108472589E-4,1.527118147E-4
9.450706450E-1,1.374406274E-3,6.108472589E-4,-3.512371797E-3
9.475149680E-1,-2.290677279E-3,-6.108472589E-4,-4.734066315E-3
9.499600720E-1,-2.290677279E-3,3.054236295E-3,-2.290677279E-3
9.524043950E-1,-1.068982761E-3,1.832541777E-3,-3.512371797E-3
9.548478330E-1,1.527118147E-4,-6.108472589E-4,-2.290677279E-3
9.572922080E-1,1.527118147E-4,-6.108472589E-4,-1.068982761E-3
9.597373120E-1,1.374406274E-3,6.108472589E-4,1.527118147E-4
9.621815830E-1,1.374406274E-3,-1.832541777E-3,-2.290677279E-3
9.646250720E-1,-1.068982761E-3,-6.108472589E-4,-4.734066315E-3
9.670693950E-1,1.374406274E-3,-6.108472589E-4,1.527118147E-4
9.695144990E-1,1.527118147E-4,-6.108472589E-4,2.596100792E-3
9.719588220E-1,-1.068982761E-3,6.108472589E-4,-2.290677279E-3
9.744022600E-1,1.527118147E-4,-6.108472589E-4,1.374406274E-3
9.768466350E-1,1.527118147E-4,-1.832541777E-3,-1.068982761E-3
9.792917390E-1,1.374406274E-3,-6.108472589E-4,-1.068982761E-3
9.817360100E-1,1.527118147E-4,6.108472589E-4,1.527118147E-4
9.841794990E-1,1.527118147E-4,6.108472589E-4,-1.068982761E-3
9.866238740E-1,-1.068982761E-3,6.108472589E-4,-1.068982761E-3
9.890689260E-1,1.374406274E-3,6.108472589E-4,-2.290677279E-3
9.915132490E-1,-2.290677279E-3,3.054236295E-3,-3.512371797E-3
9.939567390E-1,1.527118147E-4,-6.108472589E-4,-2.290677279E-3
9.964010620E-1,-1.068982761E-3,6.108472589E-4,-3.512371797E-3
9.988461660E-1,-1.068982761E-3,-6.108472589E-4,-1.068982761E-3
1.001290489E0,1.374406274E-3,-6.108472589E-4,-1.068982761E-3
1.003733926E0,1.527118147E-4,-6.108472589E-4,-1.068982761E-3
1.006178301E0,1.374406274E-3,-6.108472589E-4,1.374406274E-3
1.008623406E0,2.596100792E-3,1.832541777E-3,6.261184346E-3
1.011067676E0,1.374406274E-3,1.832541777E-3,2.596100792E-3
1.013511166E0,2.596100792E-3,6.108472589E-4,1.527118147E-4
1.015955489E0,1.527118147E-4,6.108472589E-4,-3.512371797E-3
1.018400593E0,1.527118147E-4,6.108472589E-4,1.527118147E-4
1.020844916E0,-1.068982761E-3,-6.108472589E-4,2.596100792E-3
1.023288354E0,1.527118147E-4,1.832541777E-3,2.596100792E-3
1.025732729E0,-1.068982761E-3,-6.108472589E-4,-2.290677279E-3
1.028177833E0,1.527118147E-4,-6.108472589E-4,3.817795310E-3
1.030622104E0,1.374406274E-3,-1.832541777E-3,1.527118147E-4
1.033065593E0,1.374406274E-3,-1.832541777E-3,1.374406274E-3
1.035509968E0,1.527118147E-4,-6.108472589E-4,1.527118147E-4
1.037955072E0,1.374406274E-3,-6.108472589E-4,1.527118147E-4
1.040399343E0,1.374406274E-3,-6.108472589E-4,1.527118147E-4
1.042842781E0,1.374406274E-3,-1.832541777E-3,1.527118147E-4
1.045287156E0,1.374406274E-3,6.108472589E-4,1.527118147E-4
1.047732260E0,1.374406274E-3,-6.108472589E-4,1.374406274E-3
1.050176583E0,1.374406274E-3,-1.832541777E-3,-1.068982761E-3
1.052620020E0,-1.068982761E-3,1.832541777E-3,1.527118147E-4
1.055064395E0,1.527118147E-4,-6.108472589E-4,1.527118147E-4
1.057509499E0,1.527118147E-4,6.108472589E-4,-3.512371797E-3
1.059953770E0,-1.068982761E-3,-6.108472589E-4,-1.068982761E-3
1.062397260E0,1.374406274E-3,6.108472589E-4,1.374406274E-3
1.064841583E0,2.596100792E-3,-6.108472589E-4,1.374406274E-3
1.067286687E0,1.527118147E-4,6.108472589E-4,-2.290677279E-3
1.069731010E0,1.527118147E-4,-6.108472589E-4,-2.290677279E-3
1.072174447E0,1.527118147E-4,-6.108472589E-4,-1.068982761E-3
1.074618822E0,1.374406274E-3,-6.108472589E-4,1.374406274E-3
1.077063926E0,1.527118147E-4,6.108472589E-4,-2.290677279E-3
1.079508249E0,1.374406274E-3,-6.108472589E-4,-2.290677279E-3
1.081951687E0,1.374406274E-3,-6.108472589E-4,1.374406274E-3
1.084396062E0,1.374406274E-3,6.108472589E-4,1.527118147E-4
1.086841114E0,1.527118147E-4,-6.108472589E-4,2.596100792E-3
1.089285437E0,1.527118147E-4,-6.108472589E-4,1.527118147E-4
1.091728874E0,1.374406274E-3,-1.832541777E-3,1.527118147E-4
1.094173249E0,2.596100792E-3,-6.108472589E-4,5.039489828E-3
1.096618354E0,1.527118147E-4,6.108472589E-4,-2.290677279E-3
1.099062676E0,1.527118147E-4,6.108472589E-4,1.374406274E-3
1.101506114E0,1.527118147E-4,6.108472589E-4,-2.290677279E-3
1.103950489E0,1.374406274E-3,-6.108472589E-4,-2.290677279E-3
1.106395593E0,2.596100792E-3,-1.832541777E-3,1.527118147E-4
1.108839864E0,1.527118147E-4,6.108472589E-4,-2.290677279E-3
1.111283354E0,1.374406274E-3,-6.108472589E-4,1.374406274E-3
1.113727676E0,1.374406274E-3,-1.832541777E-3,1.374406274E-3
1.116172781E0,3.817795310E-3,-1.832541777E-3,-1.068982761E-3
1.118617104E0,1.374406274E-3,6.108472589E-4,1.527118147E-4
1.121060541E0,-1.068982761E-3,-6.108472589E-4,1.527118147E-4
1.123504916E0,-1.068982761E-3,-1.832541777E-3,-1.068982761E-3
1.125950020E0,-1.068982761E-3,-1.832541777E-3,-1.068982761E-3
1.128394291E0,-2.290677279E-3,-6.108472589E-4,-1.068982761E-3
1.130837781E0,1.527118147E-4,1.832541777E-3,1.374406274E-3
1.133282156E0,-2.290677279E-3,1.832541777E-3,-1.068982761E-3
1.135727208E0,1.527118147E-4,-1.832541777E-3,-1.068982761E-3
1.138171531E0,1.527118147E-4,-1.832541777E-3,-2.290677279E-3
1.140614968E0,-1.068982761E-3,6.108472589E-4,-1.068982761E-3
1.143059343E0,1.527118147E-4,6.108472589E-4,-2.290677279E-3
1.145504447E0,2.596100792E-3,-3.054236295E-3,-1.068982761E-3
1.147948770E0,1.374406274E-3,-1.832541777E-3,-1.068982761E-3
1.150392208E0,1.527118147E-4,1.832541777E-3,1.374406274E-3
1.152836583E0,1.374406274E-3,1.832541777E-3,2.596100792E-3
1.155281687E0,1.527118147E-4,-6.108472589E-4,-4.734066315E-3
1.157725958E0,1.527118147E-4,-6.108472589E-4,-1.068982761E-3
1.160169447E0,2.596100792E-3,-1.832541777E-3,1.374406274E-3
1.162613770E0,3.817795310E-3,-3.054236295E-3,6.261184346E-3
1.165058874E0,1.527118147E-4,-6.108472589E-4,-2.290677279E-3
1.167503197E0,-1.068982761E-3,6.108472589E-4,-2.290677279E-3
1.169946635E0,1.374406274E-3,-1.832541777E-3,1.527118147E-4
1.172391010E0,1.374406274E-3,-1.832541777E-3,-1.068982761E-3
1.174836114E0,1.527118147E-4,-6.108472589E-4,-1.068982761E-3
1.177280385E0,1.527118147E-4,-3.054236295E-3,-1.068982761E-3
1.179723874E0,1.527118147E-4,6.108472589E-4,1.374406274E-3
1.182168197E0,1.527118147E-4,-1.832541777E-3,1.527118147E-4
1.184613301E0,1.527118147E-4,6.108472589E-4,1.527118147E-4
1.187057624E0,1.527118147E-4,-6.108472589E-4,-1.068982761E-3
1.189501062E0,1.374406274E-3,-6.108472589E-4,1.527118147E-4
1.191945437E0,1.527118147E-4,1.832541777E-3,1.527118147E-4
1.194390541E0,1.527118147E-4,-6.108472589E-4,-2.290677279E-3
1.196834864E0,1.527118147E-4,-6.108472589E-4,1.527118147E-4
1.199278301E0,-1.068982761E-3,1.832541777E-3,-2.290677279E-3
1.201722676E0,1.374406274E-3,-6.108472589E-4,-2.290677279E-3
1.204167781E0,1.374406274E-3,-6.108472589E-4,1.527118147E-4
1.206612051E0,1.374406274E-3,6.108472589E-4,1.527118147E-4
1.209055541E0,-1.068982761E-3,-6.108472589E-4,1.527118147E-4
1.211499864E0,-1.068982761E-3,1.832541777E-3,-2.290677279E-3
1.213944968E0,-1.068982761E-3,1.832541777E-3,-1.068982761E-3
1.216389291E0,-2.290677279E-3,1.832541777E-3,-3.512371797E-3
1.218832729E0,-1.068982761E-3,-6.108472589E-4,-1.068982761E-3
1.221277104E0,1.527118147E-4,6.108472589E-4,-1.068982761E-3
1.223722208E0,-1.068982761E-3,-6.108472589E-4,-2.290677279E-3
1.226166479E0,-1.068982761E-3,6.108472589E-4,-3.512371797E-3
1.228609968E0,-2.290677279E-3,-6.108472589E-4,-1.068982761E-3
1.231054291E0,1.374406274E-3,-1.832541777E-3,6.261184346E-3
1.233499395E0,1.374406274E-3,-6.108472589E-4,-1.068982761E-3
1.235943718E0,1.527118147E-4,-6.108472589E-4,-2.290677279E-3
1.238387156E0,1.527118147E-4,6.108472589E-4,1.374406274E-3
1.240831531E0,-2.290677279E-3,6.108472589E-4,-3.512371797E-3
1.243276635E0,1.527118147E-4,-6.108472589E-4,-2.290677279E-3
1.245720958E0,-1.068982761E-3,1.832541777E-3,-3.512371797E-3
1.248164395E0,1.374406274E-3,-6.108472589E-4,1.374406274E-3
1.250608770E0,1.374406274E-3,-6.108472589E-4,1.527118147E-4
1.253053822E0,1.374406274E-3,6.108472589E-4,-1.068982761E-3
1.255498145E0,1.527118147E-4,6.108472589E-4,-1.068982761E-3
1.257941635E0,1.527118147E-4,-6.108472589E-4,1.374406274E-3
1.260385958E0,-1.068982761E-3,-1.832541777E-3,-1.068982761E-3
1.262831062E0,1.527118147E-4,-1.832541777E-3,-2.290677279E-3
1.265275385E0,1.527118147E-4,6.108472589E-4,-1.068982761E-3
1.267718822E0,1.527118147E-4,-6.108472589E-4,2.596100792E-3
1.270163197E0,-1.068982761E-3,6.108472589E-4,-1.068982761E-3
1.272608301E0,-1.068982761E-3,-6.108472589E-4,-1.068982761E-3
1.275052572E0,-1.068982761E-3,-1.832541777E-3,-3.512371797E-3
1.277496062E0,1.527118147E-4,-1.832541777E-3,-1.068982761E-3
1.279940385E0,1.527118147E-4,-6.108472589E-4,-1.068982761E-3
1.282385489E0,-1.068982761E-3,6.108472589E-4,-5.955760833E-3
1.284829812E0,1.374406274E-3,-6.108472589E-4,-1.068982761E-3
1.287273249E0,1.527118147E-4,-6.108472589E-4,1.527118147E-4
1.289717624E0,1.527118147E-4,6.108472589E-4,3.817795310E-3
1.292162729E0,1.527118147E-4,-6.108472589E-4,1.527118147E-4
1.294606999E0,1.527118147E-4,-1.832541777E-3,-1.068982761E-3
1.297050489E0,-1.068982761E-3,1.832541777E-3,-1.068982761E-3
1.299494864E0,1.527118147E-4,6.108472589E-4,-1.068982761E-3
1.301939916E0,1.527118147E-4,6.108472589E-4,2.596100792E-3
1.304384239E0,1.374406274E-3,-1.832541777E-3,1.374406274E-3
1.306827676E0,1.527118147E-4,-6.108472589E-4,1.374406274E-3
1.309272051E0,1.527118147E-4,6.108472589E-4,1.527118147E-4
1.311717156E0,-2.290677279E-3,6.108472589E-4,-2.290677279E-3
1.314161479E0,1.527118147E-4,-6.108472589E-4,1.374406274E-3
1.316604916E0,1.527118147E-4,6.108472589E-4,1.527118147E-4
1.319049291E0,1.374406274E-3,-6.108472589E-4,2.596100792E-3
1.321494395E0,1.374406274E-3,-6.108472589E-4,1.374406274E-3
1.323938666E0,1.527118147E-4,-1.832541777E-3,1.527118147E-4
1.326382156E0,1.527118147E-4,-6.108472589E-4,1.527118147E-4
1.328826479E0,-2.290677279E-3,6.108472589E-4,-1.068982761E-3
1.331271583E0,1.527118147E-4,6.108472589E-4,-1.068982761E-3
1.333715906E0,-1.068982761E-3,-6.108472589E-4,-1.068982761E-3
1.336159343E0,1.527118147E-4,-1.832541777E-3,-1.068982761E-3
1.338603718E0,-1.068982761E-3,-6.108472589E-4,-2.290677279E-3
1.341048822E0,1.527118147E-4,-6.108472589E-4,-3.512371797E-3
1.343493093E0,-1.068982761E-3,-6.108472589E-4,-3.512371797E-3
1.345936583E0,1.374406274E-3,6.108472589E-4,-2.290677279E-3
1.348380906E0,-1.068982761E-3,6.108472589E-4,-2.290677279E-3
1.350826010E0,1.527118147E-4,6.108472589E-4,1.527118147E-4
1.353270333E0,1.527118147E-4,6.108472589E-4,1.374406274E-3
1.355713770E0,2.596100792E-3,6.108472589E-4,-1.068982761E-3
1.358158145E0,-1.068982761E-3,-1.832541777E-3,-7.177455351E-3
1.360603249E0,-1.068982761E-3,6.108472589E-4,-3.512371797E-3
1.363047572E0,1.527118147E-4,6.108472589E-4,-2.290677279E-3
1.365491010E0,1.527118147E-4,1.832541777E-3,-1.068982761E-3
1.367935385E0,-1.068982761E-3,6.108472589E-4,-1.068982761E-3
1.370380437E0,1.527118147E-4,6.108472589E-4,1.374406274E-3
1.372824760E0,1.374406274E-3,-1.832541777E-3,-1.068982761E-3
1.375268249E0,2.596100792E-3,-1.832541777E-3,2.596100792E-3
1.377712572E0,1.374406274E-3,-1.832541777E-3,2.596100792E-3
1.380157676E0,1.527118147E-4,6.108472589E-4,1.374406274E-3
1.382601999E0,-1.068982761E-3,1.832541777E-3,-2.290677279E-3
1.385045437E0,-1.068982761E-3,6.108472589E-4,1.527118147E-4
1.387489812E0,2.596100792E-3,-1.832541777E-3,2.596100792E-3
1.389934916E0,3.817795310E-3,-1.832541777E-3,3.817795310E-3
1.392379187E0,1.374406274E-3,6.108472589E-4,-2.290677279E-3
1.394822676E0,1.374406274E-3,-6.108472589E-4,1.527118147E-4
1.397266999E0,1.374406274E-3,-1.832541777E-3,1.527118147E-4
1.399712104E0,1.527118147E-4,6.108472589E-4,2.596100792E-3
1.402156426E0,-1.068982761E-3,6.108472589E-4,-3.512371797E-3
1.404599864E0,1.374406274E-3,3.054236295E-3,-1.068982761E-3
1.407044239E0,1.527118147E-4,-6.108472589E-4,1.527118147E-4
1.409489343E0,1.527118147E-4,-6.108472589E-4,1.374406274E-3
1.411933666E0,-2.290677279E-3,-6.108472589E-4,-2.290677279E-3
1.414377104E0,1.527118147E-4,6.108472589E-4,-2.290677279E-3
1.416821479E0,1.374406274E-3,6.108472589E-4,1.374406274E-3
1.419266531E0,1.374406274E-3,-1.832541777E-3,1.374406274E-3
1.421710854E0,1.527118147E-4,-6.108472589E-4,1.527118147E-4
1.424154343E0,-1.068982761E-3,-6.108472589E-4,-2.290677279E-3
1.426598666E0,1.527118147E-4,6.108472589E-4,1.527118147E-4
1.429043770E0,-1.068982761E-3,6.108472589E-4,1.527118147E-4
1.431488093E0,-1.068982761E-3,6.108472589E-4,-1.068982761E-3
1.433931531E0,1.527118147E-4,-6.108472589E-4,-1.068982761E-3
1.436375906E0,2.596100792E-3,-3.054236295E-3,3.817795310E-3
1.438821010E0,1.527118147E-4,-6.108472589E-4,1.374406274E-3
1.441265281E0,-2.290677279E-3,6.108472589E-4,-3.512371797E-3
1.443708770E0,1.527118147E-4,-1.832541777E-3,1.527118147E-4
1.446153093E0,2.596100792E-3,-6.108472589E-4,1.374406274E-3
1.448598197E0,2.596100792E-3,-3.054236295E-3,1.374406274E-3
1.451042520E0,1.527118147E-4,6.108472589E-4,-1.068982761E-3
1.453485958E0,1.527118147E-4,6.108472589E-4,1.374406274E-3
1.455930333E0,1.527118147E-4,-6.108472589E-4,1.374406274E-3
1.458375437E0,-1.068982761E-3,6.108472589E-4,-1.068982761E-3
1.460819708E0,1.527118147E-4,-6.108472589E-4,-4.734066315E-3
1.463263197E0,1.527118147E-4,1.832541777E-3,1.527118147E-4
1.465707520E0,-2.290677279E-3,-1.832541777E-3,1.374406274E-3
1.468152624E0,1.527118147E-4,6.108472589E-4,1.527118147E-4
1.470596947E0,1.527118147E-4,-6.108472589E-4,-1.068982761E-3
1.473040385E0,1.374406274E-3,-6.108472589E-4,-1.068982761E-3
1.475484760E0,1.527118147E-4,3.054236295E-3,1.527118147E-4
1.477929864E0,1.374406274E-3,6.108472589E-4,2.596100792E-3
1.480374187E0,1.527118147E-4,-6.108472589E-4,-4.734066315E-3
1.482817624E0,1.527118147E-4,-6.108472589E-4,1.527118147E-4
1.485261999E0,-1.068982761E-3,-3.054236295E-3,1.527118147E-4
1.487707104E0,1.374406274E-3,-1.832541777E-3,-1.068982761E-3
1.490151374E0,-1.068982761E-3,-6.108472589E-4,-4.734066315E-3
1.492594864E0,-1.068982761E-3,1.832541777E-3,-3.512371797E-3
1.495039187E0,1.374406274E-3,6.108472589E-4,1.527118147E-4
1.497484291E0,1.527118147E-4,3.054236295E-3,1.527118147E-4
1.499928614E0,-1.068982761E-3,1.832541777E-3,-3.512371797E-3
1.502372051E0,-1.068982761E-3,-6.108472589E-4,-4.734066315E-3
1.504816426E0,1.527118147E-4,6.108472589E-4,1.527118147E-4
1.507261531E0,1.527118147E-4,-1.832541777E-3,-2.290677279E-3
1.509705801E0,-1.068982761E-3,6.108472589E-4,-4.734066315E-3
1.512149291E0,1.527118147E-4,-6.108472589E-4,-1.068982761E-3
1.514593614E0,1.527118147E-4,6.108472589E-4,-2.290677279E-3
1.517038718E0,1.374406274E-3,-6.108472589E-4,3.817795310E-3
1.519483041E0,1.527118147E-4,-6.108472589E-4,-3.512371797E-3
1.521926479E0,1.527118147E-4,-1.832541777E-3,-3.512371797E-3
1.524370854E0,-1.068982761E-3,6.108472589E-4,-2.290677279E-3
1.526815958E0,1.374406274E-3,-6.108472589E-4,1.374406274E-3
1.529260281E0,1.527118147E-4,-6.108472589E-4,1.527118147E-4
1.531703718E0,-2.290677279E-3,6.108472589E-4,1.527118147E-4
1.534148093E0,-1.068982761E-3,-6.108472589E-4,-1.068982761E-3
1.536593145E0,1.374406274E-3,6.108472589E-4,-1.068982761E-3
1.539037468E0,1.527118147E-4,-6.108472589E-4,1.527118147E-4
1.541480906E0,-2.290677279E-3,1.832541777E-3,-2.290677279E-3
1.543925281E0,1.527118147E-4,-6.108472589E-4,1.527118147E-4
1.546370385E0,1.374406274E-3,-6.108472589E-4,-2.290677279E-3
1.548814708E0,-1.068982761E-3,6.108472589E-4,-3.512371797E-3
1.551258145E0,1.527118147E-4,6.108472589E-4,1.527118147E-4
1.553702520E0,1.374406274E-3,-6.108472589E-4,1.374406274E-3
1.556147624E0,1.527118147E-4,-1.832541777E-3,-1.068982761E-3
1.558591895E0,1.374406274E-3,-6.108472589E-4,1.374406274E-3
1.561035385E0,1.374406274E-3,-6.108472589E-4,1.527118147E-4
1.563479708E0,1.527118147E-4,6.108472589E-4,1.374406274E-3
1.565924812E0,1.374406274E-3,6.108472589E-4,1.527118147E-4
1.568369135E0,1.527118147E-4,6.108472589E-4,-2.290677279E-3
1.570812572E0,-2.290677279E-3,-6.108472589E-4,-1.068982761E-3
1.573256947E0,-1.068982761E-3,1.832541777E-3,-1.068982761E-3
1.575702051E0,-2.290677279E-3,-6.108472589E-4,-1.068982761E-3
1.578146322E0,1.527118147E-4,-6.108472589E-4,1.374406274E-3
1.580589812E0,1.374406274E-3,-1.832541777E-3,2.596100792E-3
1.583034135E0,1.374406274E-3,-6.108472589E-4,3.817795310E-3
1.585479239E0,1.527118147E-4,6.108472589E-4,1.527118147E-4
1.587923562E0,1.374406274E-3,6.108472589E-4,-1.068982761E-3
1.590366999E0,-1.068982761E-3,-6.108472589E-4,-3.512371797E-3
1.592811374E0,-1.068982761E-3,-1.832541777E-3,-1.068982761E-3
1.595256479E0,-2.290677279E-3,-6.108472589E-4,1.527118147E-4
1.597700801E0,-1.068982761E-3,-6.108472589E-4,1.527118147E-4
1.600144239E0,-1.068982761E-3,1.832541777E-3,-1.068982761E-3
1.602588614E0,1.527118147E-4,6.108472589E-4,1.527118147E-4
1.605033666E0,1.374406274E-3,6.108472589E-4,1.374406274E-3
1.607477989E0,1.527118147E-4,-6.108472589E-4,-2.290677279E-3
1.609921479E0,1.527118147E-4,6.108472589E-4,-2.290677279E-3
1.612365801E0,-1.068982761E-3,6.108472589E-4,-2.290677279E-3
1.614810906E0,1.527118147E-4,-6.108472589E-4,1.374406274E-3
1.617255229E0,1.374406274E-3,-6.108472589E-4,1.527118147E-4
1.619698666E0,-1.068982761E-3,-6.108472589E-4,1.527118147E-4
1.622143041E0,-2.290677279E-3,1.832541777E-3,1.374406274E-3
1.624588145E0,1.527118147E-4,6.108472589E-4,1.527118147E-4
1.627032416E0,2.596100792E-3,-6.108472589E-4,2.596100792E-3
1.629475906E0,1.374406274E-3,6.108472589E-4,-2.290677279E-3
1.631920229E0,1.527118147E-4,6.108472589E-4,1.527118147E-4
1.634365333E0,-2.290677279E-3,-6.108472589E-4,1.527118147E-4
1.636809656E0,-1.068982761E-3,-6.108472589E-4,-2.290677279E-3
1.639253093E0,1.374406274E-3,-1.832541777E-3,-3.512371797E-3
1.641697468E0,1.527118147E-4,-6.108472589E-4,-1.068982761E-3
1.644142572E0,1.527118147E-4,-6.108472589E-4,-1.068982761E-3
1.646586843E0,1.374406274E-3,6.108472589E-4,1.374406274E-3
1.649030333E0,1.527118147E-4,-6.108472589E-4,-2.290677279E-3
1.651474656E0,-1.068982761E-3,6.108472589E-4,-2.290677279E-3
1.653919760E0,1.527118147E-4,-6.108472589E-4,3.817795310E-3
1.656364083E0,1.527118147E-4,1.832541777E-3,1.374406274E-3
1.658807520E0,1.527118147E-4,-6.108472589E-4,-2.290677279E-3
1.661251895E0,1.527118147E-4,-6.108472589E-4,1.527118147E-4
1.663696999E0,1.527118147E-4,-6.108472589E-4,2.596100792E-3
1.666141322E0,2.596100792E-3,-3.054236295E-3,1.527118147E-4
1.668584760E0,1.527118147E-4,-6.108472589E-4,-1.068982761E-3
1.671029135E0,-1.068982761E-3,-6.108472589E-4,-1.068982761E-3
1.673474239E0,-1.068982761E-3,-6.108472589E-4,1.374406274E-3
1.675918510E0,1.527118147E-4,-6.108472589E-4,1.527118147E-4
1.678361999E0,-1.068982761E-3,6.108472589E-4,-2.290677279E-3
1.680806322E0,1.527118147E-4,-6.108472589E-4,-3.512371797E-3
1.683251426E0,1.527118147E-4,-6.108472589E-4,1.374406274E-3
1.685695749E0,1.527118147E-4,1.832541777E-3,-1.068982761E-3
1.688139187E0,1.527118147E-4,1.832541777E-3,-2.290677279E-3
1.690583562E0,1.527118147E-4,6.108472589E-4,-2.290677279E-3
1.693028666E0,-2.290677279E-3,6.108472589E-4,1.527118147E-4
1.695472937E0,1.527118147E-4,1.832541777E-3,1.527118147E-4
1.697916426E0,1.527118147E-4,6.108472589E-4,-1.068982761E-3
1.700360749E0,1.527118147E-4,6.108472589E-4,1.527118147E-4
1.702805854E0,1.527118147E-4,6.108472589E-4,-4.734066315E-3
1.705250176E0,1.527118147E-4,6.108472589E-4,2.596100792E-3
1.707693614E0,1.527118147E-4,6.108472589E-4,1.527118147E-4
1.710137989E0,1.527118147E-4,-6.108472589E-4,1.527118147E-4
1.712583093E0,1.527118147E-4,6.108472589E-4,-2.290677279E-3
1.715027364E0,-1.068982761E-3,1.832541777E-3,-2.290677279E-3
1.717470854E0,1.374406274E-3,6.108472589E-4,1.527118147E-4
1.719915229E0,1.527118147E-4,6.108472589E-4,-1.068982761E-3
1.722360281E0,-1.068982761E-3,6.108472589E-4,1.527118147E-4
1.724804604E0,1.527118147E-4,-6.108472589E-4,1.527118147E-4
1.727248041E0,1.527118147E-4,6.108472589E-4,-4.734066315E-3
1.729692416E0,1.374406274E-3,-6.108472589E-4,1.527118147E-4
1.732137520E0,1.527118147E-4,-6.108472589E-4,1.374406274E-3
1.734581843E0,1.374406274E-3,-6.108472589E-4,1.527118147E-4
1.737025281E0,1.527118147E-4,-6.108472589E-4,1.527118147E-4
1.739469656E0,-1.068982761E-3,6.108472589E-4,-1.068982761E-3
1.741914760E0,1.527118147E-4,-6.108472589E-4,1.527118147E-4
1.744359031E0,-2.290677279E-3,1.832541777E-3,1.527118147E-4
1.746802520E0,1.527118147E-4,6.108472589E-4,-1.068982761E-3
1.749246843E0,-2.290677279E-3,1.832541777E-3,-1.068982761E-3
1.751691947E0,1.527118147E-4,-6.108472589E-4,1.374406274E-3
1.754136270E0,1.374406274E-3,6.108472589E-4,2.596100792E-3
1.756579708E0,1.527118147E-4,-6.108472589E-4,1.374406274E-3
1.759024083E0,1.527118147E-4,6.108472589E-4,1.374406274E-3
1.761469187E0,1.374406274E-3,-6.108472589E-4,1.527118147E-4
1.763913458E0,1.527118147E-4,6.108472589E-4,1.527118147E-4
1.766356947E0,1.527118147E-4,-6.108472589E-4,1.527118147E-4
1.768801270E0,1.527118147E-4,-6.108472589E-4,1.374406274E-3
1.771246374E0,1.527118147E-4,-1.832541777E-3,-2.290677279E-3
1.773690697E0,1.527118147E-4,-1.832541777E-3,1.374406274E-3
1.776134135E0,1.527118147E-4,6.108472589E-4,3.817795310E-3
1.778578510E0,1.374406274E-3,-3.054236295E-3,2.596100792E-3
1.781023614E0,1.374406274E-3,6.108472589E-4,-1.068982761E-3
1.783467885E0,1.374406274E-3,6.108472589E-4,2.596100792E-3
1.785911374E0,1.374406274E-3,-6.108472589E-4,7.482878864E-3
1.788355697E0,-1.068982761E-3,-6.108472589E-4,-1.068982761E-3
1.790800801E0,1.527118147E-4,-6.108472589E-4,-1.068982761E-3
1.793245124E0,-1.068982761E-3,6.108472589E-4,-1.068982761E-3
1.795688562E0,1.527118147E-4,-6.108472589E-4,1.527118147E-4
1.798132937E0,1.374406274E-3,-3.054236295E-3,1.527118147E-4
1.800578041E0,1.527118147E-4,-6.108472589E-4,-3.512371797E-3
1.803022364E0,-1.068982761E-3,6.108472589E-4,1.374406274E-3
1.805465801E0,1.527118147E-4,6.108472589E-4,1.374406274E-3
1.807910176E0,1.527118147E-4,-6.108472589E-4,-1.068982761E-3
1.810355281E0,1.527118147E-4,6.108472589E-4,-3.512371797E-3
1.812799551E0,-1.068982761E-3,-6.108472589E-4,1.527118147E-4
1.815243041E0,-1.068982761E-3,-6.108472589E-4,1.527118147E-4
1.817687364E0,1.527118147E-4,6.108472589E-4,1.527118147E-4
1.820132468E0,-1.068982761E-3,6.108472589E-4,-4.734066315E-3
1.822576791E0,-1.068982761E-3,-6.108472589E-4,-4.734066315E-3
1.825020229E0,1.374406274E-3,-6.108472589E-4,1.527118147E-4
1.827464604E0,1.527118147E-4,-6.108472589E-4,1.374406274E-3
1.829909708E0,1.527118147E-4,6.108472589E-4,-3.512371797E-3
1.832353979E0,1.527118147E-4,-6.108472589E-4,-1.068982761E-3
1.834797468E0,1.527118147E-4,1.832541777E-3,-1.068982761E-3
1.837241791E0,-1.068982761E-3,6.108472589E-4,-1.068982761E-3
1.839686895E0,1.374406274E-3,6.108472589E-4,1.527118147E-4
1.842131218E0,1.527118147E-4,-6.108472589E-4,-2.290677279E-3
1.844574656E0,1.527118147E-4,-1.832541777E-3,1.374406274E-3
1.847019031E0,-2.290677279E-3,1.832541777E-3,2.596100792E-3
1.849464135E0,-1.068982761E-3,6.108472589E-4,-3.512371797E-3
1.851908458E0,1.527118147E-4,1.832541777E-3,-2.290677279E-3
1.854351895E0,1.527118147E-4,6.108472589E-4,-1.068982761E-3
1.856796270E0,1.527118147E-4,6.108472589E-4,-4.734066315E-3
1.859241322E0,-1.068982761E-3,6.108472589E-4,-5.955760833E-3
1.861685645E0,-1.068982761E-3,6.108472589E-4,-3.512371797E-3
1.864129135E0,-1.068982761E-3,6.108472589E-4,-3.512371797E-3
1.866573458E0,1.374406274E-3,-6.108472589E-4,-1.068982761E-3
1.869018562E0,-2.290677279E-3,6.108472589E-4,-2.290677279E-3
1.871462885E0,-1.068982761E-3,-6.108472589E-4,-1.068982761E-3
1.873906322E0,1.374406274E-3,-6.108472589E-4,2.596100792E-3
1.876350697E0,1.374406274E-3,-6.108472589E-4,-2.290677279E-3
1.878795801E0,-1.068982761E-3,-6.108472589E-4,-3.512371797E-3
1.881240072E0,1.527118147E-4,-6.108472589E-4,1.527118147E-4
1.883683562E0,1.374406274E-3,-6.108472589E-4,1.527118147E-4
1.886127885E0,1.374406274E-3,-6.108472589E-4,1.527118147E-4
1.888572989E0,1.527118147E-4,-6.108472589E-4,1.527118147E-4
1.891017312E0,-1.068982761E-3,-6.108472589E-4,-2.290677279E-3
1.893460749E0,-1.068982761E-3,1.832541777E-3,-4.734066315E-3
1.895905124E0,1.527118147E-4,-6.108472589E-4,-2.290677279E-3
1.898350229E0,1.527118147E-4,6.108472589E-4,1.374406274E-3
1.900794499E0,1.374406274E-3,6.108472589E-4,1.527118147E-4
1.903237989E0,1.527118147E-4,-6.108472589E-4,1.527118147E-4
1.905682312E0,1.527118147E-4,-6.108472589E-4,-1.068982761E-3
1.908127416E0,1.527118147E-4,6.108472589E-4,-1.068982761E-3
1.910571739E0,-1.068982761E-3,-6.108472589E-4,-2.290677279E-3
1.913015176E0,1.527118147E-4,-6.108472589E-4,-1.068982761E-3
1.915459551E0,-1.068982761E-3,6.108472589E-4,-3.512371797E-3
1.917904656E0,1.374406274E-3,-6.108472589E-4,1.374406274E-3
1.920348979E0,1.527118147E-4,-6.108472589E-4,-2.290677279E-3
1.922792416E0,1.527118147E-4,-6.108472589E-4,1.374406274E-3
1.925236791E0,-1.068982761E-3,-6.108472589E-4,-3.512371797E-3
1.927681843E0,2.596100792E-3,-1.832541777E-3,2.596100792E-3
1.930126166E0,1.527118147E-4,1.832541777E-3,6.261184346E-3
1.932569604E0,2.596100792E-3,-6.108472589E-4,5.039489828E-3
1.935013979E0,1.374406274E-3,-6.108472589E-4,-1.068982761E-3
1.937459083E0,1.374406274E-3,-1.832541777E-3,-2.290677279E-3
1.939903406E0,1.527118147E-4,-6.108472589E-4,-1.068982761E-3
1.942346843E0,1.374406274E-3,6.108472589E-4,2.596100792E-3
1.944791218E0,1.374406274E-3,6.108472589E-4,1.527118147E-4
1.947236322E0,1.527118147E-4,6.108472589E-4,1.527118147E-4
1.949680593E0,-1.068982761E-3,6.108472589E-4,-1.068982761E-3
1.952124083E0,-1.068982761E-3,1.832541777E-3,1.527118147E-4
1.954568406E0,-1.068982761E-3,1.832541777E-3,-1.068982761E-3
1.957013510E0,-1.068982761E-3,1.832541777E-3,-2.290677279E-3
1.959457833E0,-1.068982761E-3,6.108472589E-4,-2.290677279E-3
1.961901270E0,-2.290677279E-3,6.108472589E-4,-2.290677279E-3
1.964345645E0,-1.068982761E-3,-6.108472589E-4,-3.512371797E-3
1.966790749E0,1.527118147E-4,-1.832541777E-3,-2.290677279E-3
1.969235020E0,-1.068982761E-3,-3.054236295E-3,-1.068982761E-3
1.971678510E0,1.374406274E-3,-6.108472589E-4,-1.068982761E-3
1.974122833E0,1.374406274E-3,-1.832541777E-3,1.374406274E-3
1.976567937E0,1.527118147E-4,-3.054236295E-3,1.374406274E-3
1.979012260E0,1.527118147E-4,-1.832541777E-3,-1.068982761E-3
1.981455697E0,-1.068982761E-3,-6.108472589E-4,1.527118147E-4
1.983900072E0,-1.068982761E-3,6.108472589E-4,-1.068982761E-3
1.986345176E0,-1.068982761E-3,6.108472589E-4,-2.290677279E-3
1.988789499E0,1.374406274E-3,6.108472589E-4,2.596100792E-3
1.991232937E0,1.527118147E-4,6.108472589E-4,1.374406274E-3
1.993677312E0,1.527118147E-4,-6.108472589E-4,-2.290677279E-3
1.996122364E0,1.527118147E-4,6.108472589E-4,-2.290677279E-3
1.998566687E0,-1.068982761E-3,-1.832541777E-3,1.527118147E-4
2.001010124E0,1.374406274E-3,-1.832541777E-3,-1.068982761E-3
2.003454499E0,1.374406274E-3,6.108472589E-4,-2.290677279E-3
2.005899604E0,1.527118147E-4,6.108472589E-4,-2.290677279E-3
2.008343926E0,-1.068982761E-3,6.108472589E-4,1.374406274E-3
2.010787364E0,1.527118147E-4,-6.108472589E-4,1.374406274E-3
2.013231739E0,-1.068982761E-3,-6.108472589E-4,-4.734066315E-3
2.015676843E0,-1.068982761E-3,-6.108472589E-4,-4.734066315E-3
2.018121114E0,1.527118147E-4,-6.108472589E-4,-1.068982761E-3
2.020564604E0,1.527118147E-4,-6.108472589E-4,1.374406274E-3
2.023008926E0,1.527118147E-4,6.108472589E-4,1.527118147E-4
2.025454031E0,1.527118147E-4,6.108472589E-4,-2.290677279E-3
2.027898354E0,1.374406274E-3,6.108472589E-4,1.374406274E-3
2.030341791E0,1.527118147E-4,1.832541777E-3,1.374406274E-3
2.032786166E0,1.374406274E-3,6.108472589E-4,1.374406274E-3
2.035231270E0,1.527118147E-4,6.108472589E-4,-2.290677279E-3
2.037675541E0,-1.068982761E-3,1.832541777E-3,1.527118147E-4
2.040119031E0,-2.290677279E-3,-6.108472589E-4,-3.512371797E-3
2.042563354E0,1.527118147E-4,-6.108472589E-4,1.527118147E-4
2.045008458E0,1.527118147E-4,1.832541777E-3,1.527118147E-4
2.047452781E0,1.527118147E-4,6.108472589E-4,-3.512371797E-3
2.049896218E0,1.527118147E-4,-1.832541777E-3,1.527118147E-4
2.052340593E0,-1.068982761E-3,6.108472589E-4,-1.068982761E-3
2.054785697E0,1.527118147E-4,-1.832541777E-3,-2.290677279E-3
2.057230020E0,1.527118147E-4,6.108472589E-4,-3.512371797E-3
2.059673458E0,1.374406274E-3,-1.832541777E-3,-1.068982761E-3
2.062117833E0,1.527118147E-4,-6.108472589E-4,1.527118147E-4
2.064562885E0,1.374406274E-3,-1.832541777E-3,-1.068982761E-3
2.067007208E0,1.527118147E-4,-6.108472589E-4,-3.512371797E-3
2.069450645E0,-1.068982761E-3,-6.108472589E-4,-4.734066315E-3
2.071895020E0,-1.068982761E-3,-1.832541777E-3,-1.068982761E-3
2.074340124E0,-1.068982761E-3,1.832541777E-3,-1.068982761E-3
2.076784447E0,-1.068982761E-3,-1.832541777E-3,-1.068982761E-3
2.079227885E0,-1.068982761E-3,-3.054236295E-3,-1.068982761E-3
2.081672260E0,-1.068982761E-3,-6.108472589E-4,-2.290677279E-3
2.084117364E0,-1.068982761E-3,-6.108472589E-4,-1.068982761E-3
2.086561635E0,1.527118147E-4,6.108472589E-4,-2.290677279E-3
2.089005124E0,1.527118147E-4,-6.108472589E-4,-2.290677279E-3
2.091449447E0,1.374406274E-3,6.108472589E-4,1.527118147E-4
2.093894551E0,-1.068982761E-3,-6.108472589E-4,1.527118147E-4
2.096338874E0,-1.068982761E-3,-6.108472589E-4,-1.068982761E-3
2.098782312E0,1.374406274E-3,-6.108472589E-4,-1.068982761E-3
2.101226687E0,1.527118147E-4,-6.108472589E-4,1.527118147E-4
2.103671791E0,1.374406274E-3,-1.832541777E-3,1.527118147E-4
2.106116062E0,-1.068982761E-3,-1.832541777E-3,1.374406274E-3
2.108559551E0,1.527118147E-4,6.108472589E-4,-1.068982761E-3
2.111003874E0,1.527118147E-4,-1.832541777E-3,-1.068982761E-3
2.113448979E0,1.527118147E-4,-1.832541777E-3,1.374406274E-3
2.115893301E0,-1.068982761E-3,-1.832541777E-3,-1.068982761E-3
2.118336739E0,1.527118147E-4,-1.832541777E-3,-1.068982761E-3
2.120781114E0,1.374406274E-3,-3.054236295E-3,-1.068982761E-3
2.123226218E0,-1.068982761E-3,6.108472589E-4,1.527118147E-4
2.125670489E0,1.527118147E-4,6.108472589E-4,-1.068982761E-3
2.128113979E0,1.527118147E-4,-6.108472589E-4,-1.068982761E-3
2.130558354E0,1.527118147E-4,-1.832541777E-3,-1.068982761E-3
2.133003406E0,1.527118147E-4,6.108472589E-4,-1.068982761E-3
2.135447729E0,1.527118147E-4,6.108472589E-4,-1.068982761E-3
2.137891166E0,1.527118147E-4,6.108472589E-4,-2.290677279E-3
2.140335541E0,-1.068982761E-3,-6.108472589E-4,1.527118147E-4
2.142780645E0,1.527118147E-4,6.108472589E-4,1.374406274E-3
2.145224968E0,1.527118147E-4,-6.108472589E-4,-1.068982761E-3
2.147668406E0,1.527118147E-4,-1.832541777E-3,-1.068982761E-3
2.150112781E0,1.527118147E-4,-1.832541777E-3,-1.068982761E-3
2.152557833E0,-2.290677279E-3,6.108472589E-4,-2.290677279E-3
2.155002156E0,2.596100792E-3,-1.832541777E-3,2.596100792E-3
2.157445645E0,1.527118147E-4,-6.108472589E-4,-2.290677279E-3
2.159889968E0,1.527118147E-4,6.108472589E-4,-2.290677279E-3
2.162335072E0,2.596100792E-3,6.108472589E-4,-1.068982761E-3
2.164779395E0,1.374406274E-3,-6.108472589E-4,1.527118147E-4
2.167222833E0,1.527118147E-4,6.108472589E-4,1.527118147E-4
2.169667208E0,1.374406274E-3,6.108472589E-4,-4.734066315E-3
2.172112312E0,-1.068982761E-3,-1.832541777E-3,-1.068982761E-3
2.174556583E0,-1.068982761E-3,1.832541777E-3,-1.068982761E-3
2.177000072E0,1.527118147E-4,-3.054236295E-3,-1.068982761E-3
2.179444395E0,-1.068982761E-3,-1.832541777E-3,-3.512371797E-3
2.181889499E0,1.527118147E-4,1.832541777E-3,1.374406274E-3
2.184333822E0,-1.068982761E-3,-6.108472589E-4,1.374406274E-3
2.186777260E0,-1.068982761E-3,6.108472589E-4,1.374406274E-3
2.189221635E0,-1.068982761E-3,6.108472589E-4,-1.068982761E-3
2.191666739E0,1.527118147E-4,-6.108472589E-4,-2.290677279E-3
2.194111010E0,1.527118147E-4,-6.108472589E-4,1.527118147E-4
2.196554499E0,-1.068982761E-3,-6.108472589E-4,1.374406274E-3
2.198998822E0,-1.068982761E-3,-3.054236295E-3,-2.290677279E-3
2.201443926E0,-1.068982761E-3,-6.108472589E-4,-1.068982761E-3
2.203888249E0,1.527118147E-4,6.108472589E-4,1.527118147E-4
2.206331687E0,1.374406274E-3,-6.108472589E-4,1.374406274E-3
2.208776062E0,1.374406274E-3,-1.832541777E-3,2.596100792E-3
2.211221166E0,1.527118147E-4,-6.108472589E-4,1.527118147E-4
2.213665489E0,1.527118147E-4,6.108472589E-4,1.527118147E-4
2.216108926E0,1.527118147E-4,6.108472589E-4,1.527118147E-4
2.218553301E0,-1.068982761E-3,-6.108472589E-4,-2.290677279E-3
2.220998354E0,1.527118147E-4,-6.108472589E-4,1.527118147E-4
2.223442676E0,1.527118147E-4,6.108472589E-4,-1.068982761E-3
2.225886114E0,1.527118147E-4,6.108472589E-4,1.374406274E-3
2.228330489E0,1.527118147E-4,-6.108472589E-4,1.374406274E-3
2.230775593E0,1.374406274E-3,-6.108472589E-4,-1.068982761E-3
2.233219916E0,1.527118147E-4,-6.108472589E-4,-3.512371797E-3
2.235663354E0,1.527118147E-4,-6.108472589E-4,1.527118147E-4
2.238107729E0,1.374406274E-3,-6.108472589E-4,1.374406274E-3
2.240552833E0,1.527118147E-4,-3.054236295E-3,1.527118147E-4
2.242997104E0,-1.068982761E-3,-6.108472589E-4,-4.734066315E-3
2.245440593E0,1.527118147E-4,-1.832541777E-3,1.527118147E-4
2.247884916E0,-1.068982761E-3,6.108472589E-4,-1.068982761E-3
2.250330020E0,1.527118147E-4,-6.108472589E-4,-1.068982761E-3
2.252774343E0,1.374406274E-3,-6.108472589E-4,-1.068982761E-3
2.255217781E0,1.374406274E-3,-1.832541777E-3,1.374406274E-3
2.257662156E0,1.527118147E-4,6.108472589E-4,1.374406274E-3
2.260107260E0,1.527118147E-4,6.108472589E-4,-2.290677279E-3
2.262551531E0,-1.068982761E-3,-6.108472589E-4,-2.290677279E-3
2.264995020E0,1.527118147E-4,6.108472589E-4,-2.290677279E-3
2.267439395E0,-1.068982761E-3,-6.108472589E-4,-2.290677279E-3
2.269884447E0,1.527118147E-4,-6.108472589E-4,-1.068982761E-3
2.272328770E0,1.374406274E-3,6.108472589E-4,2.596100792E-3
2.274772208E0,-1.068982761E-3,-1.832541777E-3,1.527118147E-4
2.277216583E0,1.527118147E-4,-6.108472589E-4,1.527118147E-4
2.279661687E0,1.374406274E-3,6.108472589E-4,1.527118147E-4
2.282106010E0,-1.068982761E-3,6.108472589E-4,-1.068982761E-3
2.284549447E0,1.374406274E-3,-6.108472589E-4,1.374406274E-3
2.286993822E0,2.596100792E-3,-1.832541777E-3,5.039489828E-3
2.289438874E0,1.527118147E-4,6.108472589E-4,1.374406274E-3
2.291883197E0,1.527118147E-4,6.108472589E-4,1.527118147E-4
2.294326635E0,-1.068982761E-3,6.108472589E-4,1.374406274E-3
2.296771010E0,-1.068982761E-3,6.108472589E-4,1.527118147E-4
2.299216114E0,1.527118147E-4,-6.108472589E-4,1.527118147E-4
2.301660437E0,1.527118147E-4,6.108472589E-4,3.817795310E-3
2.304103874E0,-1.068982761E-3,1.832541777E-3,1.527118147E-4
2.306548249E0,1.527118147E-4,-6.108472589E-4,1.527118147E-4
2.308993354E0,1.527118147E-4,-1.832541777E-3,1.527118147E-4
2.311437624E0,1.527118147E-4,6.108472589E-4,-1.068982761E-3
2.313881114E0,-1.068982761E-3,1.832541777E-3,1.527118147E-4
2.316325437E0,-1.068982761E-3,6.108472589E-4,1.527118147E-4
2.318770541E0,-1.068982761E-3,-1.832541777E-3,-2.290677279E-3
2.321214864E0,-1.068982761E-3,6.108472589E-4,-3.512371797E-3
2.323658301E0,1.374406274E-3,6.108472589E-4,-2.290677279E-3
2.326102676E0,1.374406274E-3,6.108472589E-4,-1.068982761E-3
2.328547781E0,1.527118147E-4,-1.832541777E-3,-3.512371797E-3
2.330992051E0,1.527118147E-4,-6.108472589E-4,-2.290677279E-3
2.333435541E0,1.527118147E-4,-6.108472589E-4,-1.068982761E-3
2.335879864E0,1.527118147E-4,-6.108472589E-4,1.527118147E-4
2.338324968E0,1.374406274E-3,-6.108472589E-4,-1.068982761E-3
2.340769291E0,2.596100792E-3,-1.832541777E-3,2.596100792E-3
2.343212729E0,1.527118147E-4,-1.832541777E-3,-2.290677279E-3
2.345657104E0,1.527118147E-4,-6.108472589E-4,-1.068982761E-3
2.348102208E0,1.374406274E-3,-6.108472589E-4,-3.512371797E-3
2.350546479E0,1.527118147E-4,-6.108472589E-4,-2.290677279E-3
2.352989968E0,-1.068982761E-3,-6.108472589E-4,-1.068982761E-3
2.355434291E0,1.527118147E-4,-6.108472589E-4,-1.068982761E-3
2.357879395E0,-2.290677279E-3,-1.832541777E-3,-5.955760833E-3
2.360323718E0,-1.068982761E-3,6.108472589E-4,-1.068982761E-3
2.362767156E0,-1.068982761E-3,6.108472589E-4,1.374406274E-3
2.365211531E0,1.374406274E-3,6.108472589E-4,-1.068982761E-3
2.367656635E0,-1.068982761E-3,6.108472589E-4,-5.955760833E-3
2.370100958E0,-1.068982761E-3,1.832541777E-3,-1.068982761E-3
2.372544395E0,1.527118147E-4,-6.108472589E-4,2.596100792E-3
2.374988770E0,-2.290677279E-3,-6.108472589E-4,-4.734066315E-3
2.377433822E0,1.527118147E-4,-6.108472589E-4,-3.512371797E-3
2.379878145E0,1.374406274E-3,-1.832541777E-3,1.527118147E-4
2.382321583E0,1.527118147E-4,-1.832541777E-3,1.527118147E-4
2.384765958E0,1.374406274E-3,6.108472589E-4,1.527118147E-4
2.387211062E0,1.374406274E-3,-6.108472589E-4,1.374406274E-3
2.389655385E0,-1.068982761E-3,6.108472589E-4,1.527118147E-4
2.392098822E0,1.527118147E-4,-6.108472589E-4,1.527118147E-4
2.394543197E0,1.527118147E-4,-6.108472589E-4,1.374406274E-3
2.396988301E0,1.527118147E-4,3.054236295E-3,-1.068982761E-3
2.399432572E0,-1.068982761E-3,6.108472589E-4,-4.734066315E-3
2.401876062E0,-1.068982761E-3,6.108472589E-4,-2.290677279E-3
2.404320385E0,1.527118147E-4,6.108472589E-4,2.596100792E-3
2.406765489E0,1.374406274E-3,-6.108472589E-4,1.374406274E-3
2.409209812E0,1.527118147E-4,-6.108472589E-4,1.527118147E-4
2.411653249E0,1.527118147E-4,-6.108472589E-4,-1.068982761E-3
2.414097624E0,-1.068982761E-3,6.108472589E-4,2.596100792E-3
2.416542729E0,-1.068982761E-3,6.108472589E-4,1.527118147E-4
2.418986999E0,-1.068982761E-3,6.108472589E-4,-3.512371797E-3
2.421430489E0,-1.068982761E-3,6.108472589E-4,-3.512371797E-3
2.423874812E0,1.527118147E-4,6.108472589E-4,-1.068982761E-3
2.426319916E0,-1.068982761E-3,1.832541777E-3,2.596100792E-3
2.428764239E0,-1.068982761E-3,-6.108472589E-4,1.527118147E-4
2.431207676E0,1.374406274E-3,-6.108472589E-4,-1.068982761E-3
2.433652051E0,1.527118147E-4,6.108472589E-4,1.374406274E-3
2.436097156E0,-1.068982761E-3,6.108472589E-4,1.527118147E-4
2.438541479E0,1.527118147E-4,-6.108472589E-4,1.374406274E-3
2.440984916E0,1.527118147E-4,-1.832541777E-3,1.527118147E-4
2.443429291E0,1.374406274E-3,-6.108472589E-4,1.527118147E-4
2.445874343E0,1.527118147E-4,6.108472589E-4,-1.068982761E-3
2.448318666E0,1.527118147E-4,6.108472589E-4,1.527118147E-4
2.450762104E0,1.527118147E-4,6.108472589E-4,1.527118147E-4
2.453206479E0,1.527118147E-4,-6.108472589E-4,-1.068982761E-3
2.455651583E0,1.527118147E-4,-1.832541777E-3,2.596100792E-3
2.458095906E0,1.374406274E-3,-6.108472589E-4,1.527118147E-4
2.460539343E0,-1.068982761E-3,-6.108472589E-4,2.596100792E-3
2.462983718E0,1.374406274E-3,-6.108472589E-4,1.527118147E-4
2.465428822E0,1.374406274E-3,-6.108472589E-4,1.374406274E-3
2.467873093E0,1.527118147E-4,6.108472589E-4,1.527118147E-4
2.470316583E0,-1.068982761E-3,3.054236295E-3,-1.068982761E-3
2.472760906E0,1.374406274E-3,6.108472589E-4,1.374406274E-3
2.475206010E0,1.527118147E-4,-6.108472589E-4,1.527118147E-4
2.477650333E0,1.527118147E-4,-6.108472589E-4,-2.290677279E-3
2.480093770E0,1.527118147E-4,-6.108472589E-4,-2.290677279E-3
2.482538145E0,-2.290677279E-3,-1.832541777E-3,-3.512371797E-3
2.484983249E0,1.527118147E-4,-3.054236295E-3,-1.068982761E-3
2.487427520E0,1.374406274E-3,6.108472589E-4,3.817795310E-3
2.489871010E0,1.374406274E-3,-6.108472589E-4,1.527118147E-4
2.492315333E0,2.596100792E-3,-6.108472589E-4,-1.068982761E-3
2.494760437E0,-1.068982761E-3,-6.108472589E-4,-3.512371797E-3
2.497204760E0,1.374406274E-3,-6.108472589E-4,1.374406274E-3
2.499648197E0,1.374406274E-3,-6.108472589E-4,-1.068982761E-3
2.502092572E0,1.527118147E-4,6.108472589E-4,-2.290677279E-3
2.504537676E0,-1.068982761E-3,-6.108472589E-4,1.527118147E-4
2.506981947E0,1.527118147E-4,-6.108472589E-4,2.596100792E-3
2.509425437E0,-1.068982761E-3,6.108472589E-4,-1.068982761E-3
2.511869760E0,1.374406274E-3,-6.108472589E-4,1.374406274E-3
2.514314864E0,-2.290677279E-3,6.108472589E-4,-3.512371797E-3
2.516759187E0,1.374406274E-3,6.108472589E-4,1.374406274E-3
2.519202624E0,1.527118147E-4,6.108472589E-4,1.374406274E-3
2.521646999E0,-1.068982761E-3,-1.832541777E-3,-1.068982761E-3
2.524092104E0,1.527118147E-4,-6.108472589E-4,-1.068982761E-3
2.526536426E0,1.527118147E-4,-6.108472589E-4,2.596100792E-3
2.528979864E0,1.527118147E-4,-6.108472589E-4,-1.068982761E-3
2.531424239E0,1.527118147E-4,-6.108472589E-4,-1.068982761E-3
2.533869291E0,1.374406274E-3,-6.108472589E-4,-1.068982761E-3
2.536313614E0,-1.068982761E-3,-6.108472589E-4,-1.068982761E-3
2.538757051E0,1.527118147E-4,-1.832541777E-3,-2.290677279E-3
2.541201426E0,1.527118147E-4,6.108472589E-4,-3.512371797E-3
2.543646531E0,1.527118147E-4,6.108472589E-4,-3.512371797E-3
2.546090854E0,-1.068982761E-3,6.108472589E-4,-2.290677279E-3
2.548534291E0,1.527118147E-4,-1.832541777E-3,-3.512371797E-3
2.550978666E0,1.527118147E-4,-6.108472589E-4,-1.068982761E-3
2.553423770E0,1.374406274E-3,6.108472589E-4,5.039489828E-3
2.555868041E0,2.596100792E-3,6.108472589E-4,3.817795310E-3
2.558311531E0,-1.068982761E-3,-6.108472589E-4,-1.068982761E-3
2.560755854E0,-1.068982761E-3,-6.108472589E-4,-2.290677279E-3
2.563200958E0,-1.068982761E-3,6.108472589E-4,1.527118147E-4
2.565645281E0,1.527118147E-4,6.108472589E-4,-4.734066315E-3
2.568088718E0,-1.068982761E-3,-6.108472589E-4,-3.512371797E-3
2.570533093E0,1.527118147E-4,-1.832541777E-3,-2.290677279E-3
2.572978197E0,1.527118147E-4,-6.108472589E-4,-1.068982761E-3
2.575422468E0,1.527118147E-4,6.108472589E-4,-1.068982761E-3
2.577865958E0,1.374406274E-3,1.832541777E-3,1.527118147E-4
2.580310281E0,1.527118147E-4,-6.108472589E-4,-3.512371797E-3
2.582755385E0,1.374406274E-3,-3.054236295E-3,1.527118147E-4
2.585199708E0,1.527118147E-4,-1.832541777E-3,1.374406274E-3
2.587643145E0,1.374406274E-3,-1.832541777E-3,2.596100792E-3
2.590087520E0,-1.068982761E-3,-6.108472589E-4,-1.068982761E-3
2.592532624E0,-1.068982761E-3,6.108472589E-4,-2.290677279E-3
2.594976895E0,-1.068982761E-3,-6.108472589E-4,-2.290677279E-3
2.597420385E0,1.527118147E-4,-6.108472589E-4,1.527118147E-4
2.599864708E0,-1.068982761E-3,6.108472589E-4,-2.290677279E-3
2.602309812E0,-1.068982761E-3,-6.108472589E-4,-3.512371797E-3
2.604754135E0,-1.068982761E-3,6.108472589E-4,-1.068982761E-3
2.607197572E0,-1.068982761E-3,-6.108472589E-4,1.527118147E-4
2.609641947E0,1.527118147E-4,-1.832541777E-3,-1.068982761E-3
2.612087051E0,1.374406274E-3,-6.108472589E-4,-1.068982761E-3
2.614531322E0,1.374406274E-3,6.108472589E-4,-2.290677279E-3
2.616974812E0,1.527118147E-4,-6.108472589E-4,-1.068982761E-3
2.619419187E0,1.527118147E-4,6.108472589E-4,1.527118147E-4
2.621864239E0,1.527118147E-4,6.108472589E-4,-3.512371797E-3
2.624308562E0,1.527118147E-4,6.108472589E-4,1.527118147E-4
2.626751999E0,1.527118147E-4,-1.832541777E-3,1.374406274E-3
2.629196374E0,-1.068982761E-3,-1.832541777E-3,1.374406274E-3
2.631641479E0,1.527118147E-4,-1.832541777E-3,1.527118147E-4
2.634085801E0,1.527118147E-4,-6.108472589E-4,-1.068982761E-3
2.636529239E0,-1.068982761E-3,6.108472589E-4,-2.290677279E-3
2.638973614E0,1.527118147E-4,-6.108472589E-4,-1.068982761E-3
2.641418718E0,1.374406274E-3,-1.832541777E-3,3.817795310E-3
2.643862989E0,1.374406274E-3,-6.108472589E-4,1.374406274E-3
2.646306479E0,1.374406274E-3,-1.832541777E-3,1.374406274E-3
2.648750801E0,-1.068982761E-3,6.108472589E-4,-4.734066315E-3
2.651195906E0,-1.068982761E-3,6.108472589E-4,-2.290677279E-3
2.653640229E0,1.374406274E-3,6.108472589E-4,-2.290677279E-3
2.656083666E0,1.527118147E-4,-6.108472589E-4,-3.512371797E-3
2.658528041E0,1.527118147E-4,-6.108472589E-4,-2.290677279E-3
2.660973145E0,1.527118147E-4,-6.108472589E-4,-3.512371797E-3
2.663417416E0,1.527118147E-4,6.108472589E-4,-3.512371797E-3
2.665860906E0,-1.068982761E-3,-6.108472589E-4,1.374406274E-3
2.668305229E0,1.527118147E-4,-6.108472589E-4,1.374406274E-3
2.670750333E0,1.527118147E-4,-6.108472589E-4,-2.290677279E-3
2.673194656E0,-1.068982761E-3,6.108472589E-4,-7.177455351E-3
2.675638093E0,-1.068982761E-3,1.832541777E-3,-1.068982761E-3
2.678082468E0,-2.290677279E-3,-6.108472589E-4,-3.512371797E-3
2.680527572E0,1.374406274E-3,-1.832541777E-3,1.527118147E-4
2.682971843E0,1.374406274E-3,-1.832541777E-3,-1.068982761E-3
2.685415333E0,1.527118147E-4,6.108472589E-4,1.527118147E-4
2.687859656E0,2.596100792E-3,-6.108472589E-4,2.596100792E-3
2.690304760E0,3.817795310E-3,-6.108472589E-4,3.817795310E-3
2.692749083E0,1.527118147E-4,-6.108472589E-4,-1.068982761E-3
2.695192520E0,-2.290677279E-3,-6.108472589E-4,-4.734066315E-3
2.697636895E0,-2.290677279E-3,-6.108472589E-4,-2.290677279E-3
2.700081999E0,1.374406274E-3,-6.108472589E-4,1.374406274E-3
2.702526322E0,-1.068982761E-3,6.108472589E-4,1.527118147E-4
2.704969760E0,1.374406274E-3,6.108472589E-4,3.817795310E-3
2.707414083E0,1.374406274E-3,6.108472589E-4,2.596100792E-3
2.709859187E0,1.527118147E-4,-6.108472589E-4,1.527118147E-4
2.712303510E0,1.374406274E-3,-6.108472589E-4,2.596100792E-3
2.714746947E0,1.374406274E-3,-6.108472589E-4,1.527118147E-4
2.717191322E0,1.374406274E-3,6.108472589E-4,1.374406274E-3
2.719636426E0,-1.068982761E-3,-6.108472589E-4,-1.068982761E-3
2.722080749E0,-1.068982761E-3,-6.108472589E-4,-1.068982761E-3
2.724524187E0,1.527118147E-4,-6.108472589E-4,-2.290677279E-3
2.726968562E0,1.527118147E-4,-1.832541777E-3,1.527118147E-4
2.729413666E0,1.527118147E-4,6.108472589E-4,1.527118147E-4
2.731857937E0,1.527118147E-4,-6.108472589E-4,1.527118147E-4
2.734301426E0,1.527118147E-4,6.108472589E-4,1.527118147E-4
2.736745749E0,1.527118147E-4,6.108472589E-4,-2.290677279E-3
2.739190854E0,-1.068982761E-3,6.108472589E-4,-3.512371797E-3
2.741635176E0,-2.290677279E-3,6.108472589E-4,-2.290677279E-3
2.744078614E0,-2.290677279E-3,6.108472589E-4,-1.068982761E-3
2.746522989E0,-1.068982761E-3,6.108472589E-4,-1.068982761E-3
2.748968093E0,-1.068982761E-3,3.054236295E-3,-1.068982761E-3
2.751412364E0,1.374406274E-3,6.108472589E-4,1.374406274E-3
2.753855854E0,1.527118147E-4,6.108472589E-4,1.527118147E-4
2.756300176E0,-1.068982761E-3,6.108472589E-4,1.527118147E-4
2.758745281E0,1.527118147E-4,-6.108472589E-4,-1.068982761E-3
2.761189604E0,-1.068982761E-3,-6.108472589E-4,1.527118147E-4
2.763633041E0,1.527118147E-4,1.832541777E-3,-1.068982761E-3
2.766077416E0,-2.290677279E-3,6.108472589E-4,-1.068982761E-3
2.768522520E0,-1.068982761E-3,-6.108472589E-4,-1.068982761E-3
2.770966791E0,1.527118147E-4,-6.108472589E-4,-1.068982761E-3
2.773410281E0,1.527118147E-4,-6.108472589E-4,-2.290677279E-3
2.775854604E0,-1.068982761E-3,-6.108472589E-4,-1.068982761E-3
2.778299708E0,1.374406274E-3,6.108472589E-4,1.527118147E-4
2.780744031E0,1.374406274E-3,6.108472589E-4,-1.068982761E-3
2.783187468E0,1.374406274E-3,6.108472589E-4,1.527118147E-4
2.785631843E0,1.374406274E-3,-6.108472589E-4,1.374406274E-3
2.788076947E0,1.374406274E-3,-1.832541777E-3,-1.068982761E-3
2.790521218E0,1.374406274E-3,-1.832541777E-3,-1.068982761E-3
2.792964708E0,1.527118147E-4,-1.832541777E-3,1.527118147E-4
2.795409031E0,1.527118147E-4,-1.832541777E-3,1.527118147E-4
2.797854135E0,-1.068982761E-3,-6.108472589E-4,-5.955760833E-3
2.800298458E0,1.374406274E-3,1.832541777E-3,-2.290677279E-3
2.802741895E0,1.527118147E-4,-6.108472589E-4,1.527118147E-4
2.805186270E0,1.527118147E-4,6.108472589E-4,1.527118147E-4
2.807631374E0,1.374406274E-3,-6.108472589E-4,2.596100792E-3
2.810075697E0,-1.068982761E-3,6.108472589E-4,-3.512371797E-3
2.812519135E0,1.374406274E-3,-6.108472589E-4,2.596100792E-3
2.814963510E0,1.374406274E-3,-1.832541777E-3,5.039489828E-3
2.817408562E0,2.596100792E-3,-1.832541777E-3,3.817795310E-3
2.819852885E0,1.527118147E-4,6.108472589E-4,-2.290677279E-3
2.822296374E0,1.527118147E-4,-6.108472589E-4,2.596100792E-3
2.824740697E0,1.527118147E-4,-6.108472589E-4,2.596100792E-3
2.827185801E0,1.374406274E-3,-6.108472589E-4,1.374406274E-3
2.829630124E0,1.374406274E-3,6.108472589E-4,1.374406274E-3
2.832073562E0,1.374406274E-3,6.108472589E-4,2.596100792E-3
2.834517937E0,1.527118147E-4,6.108472589E-4,3.817795310E-3
2.836963041E0,-1.068982761E-3,1.832541777E-3,-1.068982761E-3
2.839407312E0,1.527118147E-4,6.108472589E-4,-1.068982761E-3
2.841850801E0,1.374406274E-3,6.108472589E-4,2.596100792E-3
2.844295124E0,1.527118147E-4,-6.108472589E-4,1.374406274E-3
2.846740229E0,-1.068982761E-3,6.108472589E-4,-2.290677279E-3
2.849184551E0,1.527118147E-4,6.108472589E-4,1.527118147E-4
2.851627989E0,2.596100792E-3,-1.832541777E-3,3.817795310E-3
2.854072364E0,2.596100792E-3,-6.108472589E-4,3.817795310E-3
2.856517468E0,1.374406274E-3,6.108472589E-4,1.374406274E-3
2.858961739E0,1.527118147E-4,6.108472589E-4,-2.290677279E-3
2.861405229E0,1.527118147E-4,6.108472589E-4,-1.068982761E-3
2.863849551E0,-2.290677279E-3,6.108472589E-4,-3.512371797E-3
2.866294656E0,-1.068982761E-3,-6.108472589E-4,-3.512371797E-3
2.868738979E0,1.527118147E-4,-6.108472589E-4,1.374406274E-3
2.871182416E0,-1.068982761E-3,-6.108472589E-4,-4.734066315E-3
2.873626791E0,1.527118147E-4,-1.832541777E-3,-1.068982761E-3
2.876071895E0,-1.068982761E-3,6.108472589E-4,1.527118147E-4
2.878516218E0,1.527118147E-4,1.832541777E-3,-1.068982761E-3
2.880959656E0,1.374406274E-3,-1.832541777E-3,1.374406274E-3
2.883404031E0,-2.290677279E-3,1.832541777E-3,-2.290677279E-3
2.885849083E0,-1.068982761E-3,6.108472589E-4,-2.290677279E-3
2.888293406E0,1.527118147E-4,6.108472589E-4,1.374406274E-3
2.890736843E0,-1.068982761E-3,6.108472589E-4,-1.068982761E-3
2.893181218E0,-2.290677279E-3,6.108472589E-4,-7.177455351E-3
2.895626322E0,-1.068982761E-3,6.108472589E-4,-3.512371797E-3
2.898070645E0,1.527118147E-4,-6.108472589E-4,3.817795310E-3
2.900514083E0,1.527118147E-4,-6.108472589E-4,2.596100792E-3
2.902958458E0,1.527118147E-4,-6.108472589E-4,1.374406274E-3
2.905403562E0,-1.068982761E-3,-6.108472589E-4,1.527118147E-4
2.907847833E0,1.527118147E-4,6.108472589E-4,-2.290677279E-3
2.910291270E0,1.527118147E-4,6.108472589E-4,1.527118147E-4
2.912735645E0,1.374406274E-3,6.108472589E-4,2.596100792E-3
2.915180749E0,2.596100792E-3,6.108472589E-4,1.374406274E-3
2.917625072E0,1.527118147E-4,-6.108472589E-4,1.374406274E-3
2.920068510E0,1.527118147E-4,6.108472589E-4,-3.512371797E-3
2.922512885E0,2.596100792E-3,-1.832541777E-3,1.527118147E-4
2.924957989E0,1.527118147E-4,1.832541777E-3,1.527118147E-4
2.927402260E0,1.527118147E-4,1.832541777E-3,1.527118147E-4
2.929845749E0,1.527118147E-4,-6.108472589E-4,-1.068982761E-3
2.932290072E0,1.527118147E-4,6.108472589E-4,-2.290677279E-3
2.934735176E0,-2.290677279E-3,6.108472589E-4,-5.955760833E-3
2.937179499E0,-1.068982761E-3,6.108472589E-4,1.374406274E-3
2.939622937E0,1.527118147E-4,-1.832541777E-3,-2.290677279E-3
2.942067312E0,-1.068982761E-3,6.108472589E-4,-3.512371797E-3
2.944512416E0,1.527118147E-4,1.832541777E-3,1.527118147E-4
2.946956687E0,1.527118147E-4,1.832541777E-3,1.374406274E-3
2.949400176E0,1.527118147E-4,-6.108472589E-4,1.374406274E-3
2.951844499E0,1.527118147E-4,6.108472589E-4,-3.512371797E-3
2.954289604E0,-1.068982761E-3,-6.108472589E-4,-4.734066315E-3
2.956733926E0,-1.068982761E-3,-6.108472589E-4,-3.512371797E-3
2.959177364E0,-1.068982761E-3,-6.108472589E-4,-3.512371797E-3
2.961621739E0,1.527118147E-4,-1.832541777E-3,-1.068982761E-3
2.964066843E0,5.039489828E-3,-3.054236295E-3,2.596100792E-3
2.966511114E0,1.527118147E-4,-1.832541777E-3,1.527118147E-4
2.968954604E0,-2.290677279E-3,-1.832541777E-3,-4.734066315E-3
2.971398926E0,-1.068982761E-3,-6.108472589E-4,-3.512371797E-3
2.973844031E0,1.527118147E-4,6.108472589E-4,-2.290677279E-3
2.976288354E0,-1.068982761E-3,1.832541777E-3,-4.734066315E-3
2.978731791E0,1.527118147E-4,-1.832541777E-3,1.374406274E-3
2.981176166E0,1.527118147E-4,-6.108472589E-4,1.527118147E-4
2.983621270E0,-1.068982761E-3,6.108472589E-4,-4.734066315E-3
2.986065593E0,-1.068982761E-3,3.054236295E-3,-1.068982761E-3
2.988509031E0,-1.068982761E-3,6.108472589E-4,-1.068982761E-3
2.990953354E0,-1.068982761E-3,1.832541777E-3,-2.290677279E-3
2.993398458E0,1.374406274E-3,-1.832541777E-3,-1.068982761E-3
2.995842781E0,-1.068982761E-3,6.108472589E-4,1.527118147E-4
2.998286218E0,1.374406274E-3,-6.108472589E-4,-1.068982761E-3
3.000730593E0,1.527118147E-4,-1.832541777E-3,-1.068982761E-3
3.003175697E0,1.527118147E-4,6.108472589E-4,1.527118147E-4
3.005620020E0,1.527118147E-4,-6.108472589E-4,-2.290677279E-3
3.008063458E0,-1.068982761E-3,-6.108472589E-4,-4.734066315E-3
3.010507833E0,-1.068982761E-3,-6.108472589E-4,-4.734066315E-3
3.012952885E0,1.527118147E-4,-6.108472589E-4,-2.290677279E-3
3.015397208E0,1.527118147E-4,-6.108472589E-4,-1.068982761E-3
3.017840697E0,-1.068982761E-3,1.832541777E-3,-4.734066315E-3
3.020285020E0,-1.068982761E-3,1.832541777E-3,-2.290677279E-3
3.022730124E0,1.527118147E-4,-6.108472589E-4,-1.068982761E-3
3.025174447E0,-1.068982761E-3,6.108472589E-4,-2.290677279E-3
3.027617885E0,-2.290677279E-3,1.832541777E-3,-4.734066315E-3
3.030062260E0,1.374406274E-3,6.108472589E-4,1.374406274E-3
3.032507364E0,1.374406274E-3,6.108472589E-4,2.596100792E-3
3.034951635E0,1.527118147E-4,-6.108472589E-4,-1.068982761E-3
3.037395124E0,1.527118147E-4,6.108472589E-4,-2.290677279E-3
3.039839447E0,-1.068982761E-3,-1.832541777E-3,1.527118147E-4
3.042284551E0,-1.068982761E-3,-6.108472589E-4,1.374406274E-3
3.044728874E0,-1.068982761E-3,-1.832541777E-3,-3.512371797E-3
3.047172312E0,1.527118147E-4,6.108472589E-4,-2.290677279E-3
3.049616687E0,1.527118147E-4,-6.108472589E-4,1.374406274E-3
3.052061791E0,1.374406274E-3,6.108472589E-4,3.817795310E-3
3.054506062E0,2.596100792E-3,-1.832541777E-3,1.527118147E-4
3.056949551E0,-1.068982761E-3,1.832541777E-3,-4.734066315E-3
3.059393874E0,-1.068982761E-3,-6.108472589E-4,1.527118147E-4
3.061838979E0,-1.068982761E-3,-1.832541777E-3,-1.068982761E-3
3.064283301E0,-2.290677279E-3,1.832541777E-3,-4.734066315E-3
3.066726739E0,1.527118147E-4,-6.108472589E-4,-3.512371797E-3
3.069171114E0,1.527118147E-4,-6.108472589E-4,-2.290677279E-3
3.071616218E0,-1.068982761E-3,6.108472589E-4,-1.068982761E-3
3.074060489E0,1.527118147E-4,-1.832541777E-3,-2.290677279E-3
3.076503979E0,1.527118147E-4,6.108472589E-4,1.527118147E-4
3.078948301E0,1.527118147E-4,1.832541777E-3,1.527118147E-4
3.081393406E0,1.527118147E-4,1.832541777E-3,-1.068982761E-3
3.083837729E0,1.527118147E-4,-6.108472589E-4,1.527118147E-4
3.086281166E0,1.374406274E-3,-6.108472589E-4,2.596100792E-3
3.088725541E0,1.527118147E-4,-6.108472589E-4,-2.290677279E-3
3.091170645E0,1.527118147E-4,6.108472589E-4,-2.290677279E-3
3.093614968E0,1.527118147E-4,6.108472589E-4,-1.068982761E-3
3.096058406E0,-1.068982761E-3,-6.108472589E-4,-2.290677279E-3
3.098502729E0,1.527118147E-4,-6.108472589E-4,-1.068982761E-3
3.100947833E0,-1.068982761E-3,-6.108472589E-4,-1.068982761E-3
3.103392156E0,-1.068982761E-3,6.108472589E-4,1.374406274E-3
3.105835593E0,1.374406274E-3,-6.108472589E-4,-2.290677279E-3
3.108279968E0,1.527118147E-4,-6.108472589E-4,-1.068982761E-3
3.110725072E0,1.527118147E-4,6.108472589E-4,-1.068982761E-3
3.113169395E0,-1.068982761E-3,-1.832541777E-3,-1.068982761E-3
3.115612833E0,-1.068982761E-3,-6.108472589E-4,1.527118147E-4
3.118057208E0,-2.290677279E-3,1.832541777E-3,-2.290677279E-3
3.120502312E0,1.527118147E-4,1.832541777E-3,-1.068982761E-3
3.122946583E0,1.527118147E-4,-1.832541777E-3,2.596100792E-3
3.125390072E0,1.527118147E-4,-1.832541777E-3,1.527118147E-4
3.127834395E0,1.374406274E-3,-1.832541777E-3,1.527118147E-4
3.130279499E0,-1.068982761E-3,6.108472589E-4,-1.068982761E-3
3.132723822E0,1.527118147E-4,-6.108472589E-4,-1.068982761E-3
3.135167260E0,2.596100792E-3,-6.108472589E-4,5.039489828E-3
3.137611635E0,1.527118147E-4,-6.108472589E-4,1.527118147E-4
3.140056739E0,1.374406274E-3,6.108472589E-4,1.374406274E-3
3.142501010E0,1.374406274E-3,-6.108472589E-4,1.527118147E-4
3.144944499E0,1.527118147E-4,-6.108472589E-4,-1.068982761E-3
3.147388822E0,1.374406274E-3,-6.108472589E-4,-1.068982761E-3
3.149833926E0,1.374406274E-3,-1.832541777E-3,1.374406274E-3
3.152278249E0,1.374406274E-3,-6.108472589E-4,1.374406274E-3
3.154721687E0,1.527118147E-4,-6.108472589E-4,1.527118147E-4
3.157166062E0,1.527118147E-4,6.108472589E-4,-2.290677279E-3
3.159611166E0,1.527118147E-4,6.108472589E-4,1.527118147E-4
3.162055437E0,1.374406274E-3,-6.108472589E-4,1.527118147E-4
3.164498926E0,1.527118147E-4,-6.108472589E-4,-2.290677279E-3
3.166943249E0,1.527118147E-4,6.108472589E-4,1.527118147E-4
3.169388354E0,1.374406274E-3,-1.832541777E-3,1.527118147E-4
3.171832676E0,1.374406274E-3,-1.832541777E-3,1.374406274E-3
3.174276114E0,-1.068982761E-3,6.108472589E-4,-1.068982761E-3
3.176720489E0,-1.068982761E-3,-6.108472589E-4,-3.512371797E-3
3.179165593E0,-1.068982761E-3,-6.108472589E-4,-2.290677279E-3
3.181609864E0,-1.068982761E-3,6.108472589E-4,-3.512371797E-3
3.184053354E0,1.527118147E-4,6.108472589E-4,1.527118147E-4
3.186497676E0,-1.068982761E-3,-6.108472589E-4,-1.068982761E-3
3.188942781E0,1.527118147E-4,6.108472589E-4,-1.068982761E-3
3.191387104E0,-1.068982761E-3,6.108472589E-4,-1.068982761E-3
3.193830541E0,-1.068982761E-3,6.108472589E-4,-1.068982761E-3
3.196274916E0,-1.068982761E-3,-1.832541777E-3,-2.290677279E-3
3.198720020E0,-1.068982761E-3,-6.108472589E-4,-2.290677279E-3
3.201164343E0,1.527118147E-4,6.108472589E-4,1.374406274E-3
3.203607781E0,-1.068982761E-3,-6.108472589E-4,-2.290677279E-3
3.206052156E0,1.527118147E-4,6.108472589E-4,1.527118147E-4
3.208497208E0,1.527118147E-4,6.108472589E-4,1.527118147E-4
3.210941531E0,1.374406274E-3,-6.108472589E-4,1.374406274E-3
3.213384968E0,1.527118147E-4,-6.108472589E-4,1.374406274E-3
3.215829343E0,-1.068982761E-3,-6.108472589E-4,-3.512371797E-3
3.218274447E0,1.527118147E-4,6.108472589E-4,-2.290677279E-3
3.220718770E0,-1.068982761E-3,6.108472589E-4,-1.068982761E-3
3.223162208E0,1.527118147E-4,-6.108472589E-4,1.527118147E-4
3.225606583E0,-1.068982761E-3,-6.108472589E-4,-3.512371797E-3
3.228051687E0,-1.068982761E-3,-6.108472589E-4,-2.290677279E-3
3.230495958E0,-2.290677279E-3,-6.108472589E-4,-1.068982761E-3
3.232939447E0,1.527118147E-4,6.108472589E-4,1.527118147E-4
3.235383770E0,1.527118147E-4,-6.108472589E-4,1.374406274E-3
3.237828874E0,-1.068982761E-3,3.054236295E-3,-3.512371797E-3
3.240273197E0,-1.068982761E-3,6.108472589E-4,-4.734066315E-3
3.242716635E0,-1.068982761E-3,6.108472589E-4,-4.734066315E-3
3.245161010E0,1.527118147E-4,-6.108472589E-4,-3.512371797E-3
3.247606114E0,-2.290677279E-3,-6.108472589E-4,-3.512371797E-3
3.250050385E0,1.527118147E-4,1.832541777E-3,-1.068982761E-3
3.252493874E0,1.374406274E-3,6.108472589E-4,-1.068982761E-3
3.254938197E0,1.374406274E-3,-6.108472589E-4,1.374406274E-3
3.257383301E0,1.527118147E-4,-6.108472589E-4,2.596100792E-3
3.259827624E0,-1.068982761E-3,6.108472589E-4,1.527118147E-4
3.262271062E0,1.527118147E-4,6.108472589E-4,-1.068982761E-3
3.264715437E0,-2.290677279E-3,-6.108472589E-4,-4.734066315E-3
3.267160541E0,-2.290677279E-3,6.108472589E-4,-2.290677279E-3
3.269604812E0,1.527118147E-4,6.108472589E-4,1.374406274E-3
3.272048301E0,-1.068982761E-3,1.832541777E-3,-2.290677279E-3
3.274492624E0,-1.068982761E-3,-6.108472589E-4,1.527118147E-4
3.276937729E0,-1.068982761E-3,-6.108472589E-4,-3.512371797E-3
3.279382051E0,-2.290677279E-3,-6.108472589E-4,-4.734066315E-3
3.281825489E0,1.527118147E-4,6.108472589E-4,-1.068982761E-3
3.284269864E0,-1.068982761E-3,1.832541777E-3,-2.290677279E-3
3.286714968E0,-1.068982761E-3,6.108472589E-4,2.596100792E-3
3.289159239E0,1.527118147E-4,-6.108472589E-4,1.374406274E-3
3.291602729E0,1.527118147E-4,6.108472589E-4,-7.177455351E-3
3.294047051E0,1.527118147E-4,-6.108472589E-4,-2.290677279E-3
3.296492156E0,1.374406274E-3,-6.108472589E-4,3.817795310E-3
3.298936479E0,1.374406274E-3,-6.108472589E-4,1.374406274E-3
3.301379916E0,1.527118147E-4,6.108472589E-4,-2.290677279E-3
3.303824291E0,1.527118147E-4,-6.108472589E-4,-2.290677279E-3
3.306269395E0,1.527118147E-4,-1.832541777E-3,2.596100792E-3
3.308713666E0,-1.068982761E-3,-6.108472589E-4,-1.068982761E-3
3.311157156E0,1.527118147E-4,-1.832541777E-3,-1.068982761E-3
3.313601531E0,1.527118147E-4,-6.108472589E-4,-2.290677279E-3
3.316046583E0,1.527118147E-4,6.108472589E-4,1.374406274E-3
3.318490906E0,-1.068982761E-3,-6.108472589E-4,-1.068982761E-3
3.320934343E0,1.527118147E-4,-6.108472589E-4,-1.068982761E-3
3.323378718E0,-1.068982761E-3,-1.832541777E-3,-3.512371797E-3
3.325823822E0,-1.068982761E-3,-6.108472589E-4,-1.068982761E-3
3.328268145E0,-1.068982761E-3,6.108472589E-4,1.527118147E-4
3.330711583E0,-1.068982761E-3,1.832541777E-3,-2.290677279E-3
3.333155958E0,1.527118147E-4,-6.108472589E-4,-1.068982761E-3
3.335601010E0,1.527118147E-4,1.832541777E-3,-1.068982761E-3
3.338045333E0,1.527118147E-4,6.108472589E-4,1.374406274E-3
3.340488822E0,1.527118147E-4,6.108472589E-4,-2.290677279E-3
3.342933145E0,1.374406274E-3,6.108472589E-4,-1.068982761E-3
3.345378249E0,1.527118147E-4,-6.108472589E-4,-2.290677279E-3
3.347822572E0,1.527118147E-4,6.108472589E-4,1.527118147E-4
3.350266010E0,1.527118147E-4,-6.108472589E-4,-1.068982761E-3
3.352710385E0,1.527118147E-4,6.108472589E-4,-2.290677279E-3
3.355155489E0,1.527118147E-4,6.108472589E-4,-1.068982761E-3
3.357599760E0,1.527118147E-4,-6.108472589E-4,1.374406274E-3
3.360043249E0,1.527118147E-4,-6.108472589E-4,-1.068982761E-3
3.362487572E0,2.596100792E-3,-6.108472589E-4,-1.068982761E-3
3.364932676E0,-1.068982761E-3,-3.054236295E-3,-1.068982761E-3
3.367376999E0,-1.068982761E-3,6.108472589E-4,-2.290677279E-3
3.369820437E0,-1.068982761E-3,6.108472589E-4,-2.290677279E-3
3.372264812E0,1.527118147E-4,6.108472589E-4,-1.068982761E-3
3.374709916E0,1.527118147E-4,-6.108472589E-4,1.527118147E-4
3.377154187E0,1.374406274E-3,-1.832541777E-3,2.596100792E-3
3.379597676E0,1.374406274E-3,6.108472589E-4,1.374406274E-3
3.382041999E0,1.374406274E-3,-6.108472589E-4,2.596100792E-3
3.384487104E0,1.374406274E-3,-3.054236295E-3,1.527118147E-4
3.386931426E0,-1.068982761E-3,-6.108472589E-4,-1.068982761E-3
3.389374864E0,1.374406274E-3,-6.108472589E-4,2.596100792E-3
3.391819239E0,-1.068982761E-3,6.108472589E-4,1.374406274E-3
3.394264343E0,2.596100792E-3,-3.054236295E-3,2.596100792E-3
3.396708666E0,1.527118147E-4,1.832541777E-3,1.527118147E-4
3.399152104E0,1.374406274E-3,-6.108472589E-4,-1.068982761E-3
3.401596426E0,-1.068982761E-3,-6.108472589E-4,1.527118147E-4
3.404041531E0,-1.068982761E-3,1.832541777E-3,1.527118147E-4
3.406485854E0,1.527118147E-4,6.108472589E-4,1.374406274E-3
3.408929291E0,-1.068982761E-3,6.108472589E-4,1.527118147E-4
3.411373666E0,1.527118147E-4,-6.108472589E-4,2.596100792E-3
3.413818770E0,1.374406274E-3,6.108472589E-4,3.817795310E-3
3.416263041E0,-1.068982761E-3,6.108472589E-4,-3.512371797E-3
3.418706531E0,1.374406274E-3,-6.108472589E-4,1.527118147E-4
3.421150906E0,1.374406274E-3,-1.832541777E-3,1.374406274E-3
3.423595958E0,2.596100792E-3,-1.832541777E-3,1.374406274E-3
3.426040281E0,1.374406274E-3,-1.832541777E-3,1.374406274E-3
3.428483718E0,1.527118147E-4,6.108472589E-4,-2.290677279E-3
3.430928093E0,1.527118147E-4,-6.108472589E-4,1.374406274E-3
3.433373197E0,-1.068982761E-3,-6.108472589E-4,1.527118147E-4
3.435817520E0,1.527118147E-4,-6.108472589E-4,-1.068982761E-3
3.438260958E0,1.374406274E-3,6.108472589E-4,1.527118147E-4
3.440705333E0,1.527118147E-4,6.108472589E-4,2.596100792E-3
3.443150385E0,-1.068982761E-3,6.108472589E-4,-3.512371797E-3
3.445594708E0,1.527118147E-4,-6.108472589E-4,-7.177455351E-3
3.448038145E0,-1.068982761E-3,-6.108472589E-4,-1.068982761E-3
3.450482520E0,2.596100792E-3,-4.275931045E-3,2.596100792E-3
3.452927624E0,1.527118147E-4,-1.832541777E-3,-2.290677279E-3
3.455371895E0,1.527118147E-4,-6.108472589E-4,1.527118147E-4
3.457815385E0,-1.068982761E-3,-6.108472589E-4,1.527118147E-4
3.460259760E0,1.527118147E-4,6.108472589E-4,1.527118147E-4
3.462704864E0,1.527118147E-4,-6.108472589E-4,-2.290677279E-3
3.465149135E0,-1.068982761E-3,-6.108472589E-4,-2.290677279E-3
3.467592624E0,1.374406274E-3,-6.108472589E-4,1.374406274E-3
3.470036947E0,-1.068982761E-3,-6.108472589E-4,1.527118147E-4
3.472482051E0,-2.290677279E-3,1.832541777E-3,-1.068982761E-3
3.474926374E0,-2.290677279E-3,6.108472589E-4,-1.068982761E-3
3.477369812E0,-1.068982761E-3,1.832541777E-3,-2.290677279E-3
3.479814187E0,1.527118147E-4,1.832541777E-3,-1.068982761E-3
3.482259291E0,-2.290677279E-3,1.832541777E-3,-3.512371797E-3
3.484703562E0,1.527118147E-4,6.108472589E-4,-1.068982761E-3
3.487147051E0,1.527118147E-4,-6.108472589E-4,1.374406274E-3
3.489591374E0,1.527118147E-4,-6.108472589E-4,-1.068982761E-3
3.492036479E0,1.527118147E-4,-1.832541777E-3,-1.068982761E-3
3.494480801E0,1.527118147E-4,6.108472589E-4,1.374406274E-3
3.496924239E0,-1.068982761E-3,6.108472589E-4,-1.068982761E-3
3.499368614E0,2.596100792E-3,1.832541777E-3,2.596100792E-3
3.501813718E0,1.374406274E-3,-1.832541777E-3,1.527118147E-4
3.504257989E0,1.374406274E-3,-6.108472589E-4,1.527118147E-4
3.506701479E0,1.527118147E-4,6.108472589E-4,1.527118147E-4
3.509145801E0,1.527118147E-4,6.108472589E-4,-3.512371797E-3
3.511590906E0,1.527118147E-4,-6.108472589E-4,-1.068982761E-3
3.514035229E0,1.527118147E-4,-6.108472589E-4,-2.290677279E-3
3.516478666E0,-1.068982761E-3,-6.108472589E-4,-4.734066315E-3
3.518923041E0,-2.290677279E-3,6.108472589E-4,-7.177455351E-3
3.521368145E0,1.527118147E-4,-6.108472589E-4,-1.068982761E-3
3.523812416E0,1.374406274E-3,1.832541777E-3,1.374406274E-3
3.526255906E0,1.527118147E-4,6.108472589E-4,-2.290677279E-3
3.528700229E0,1.527118147E-4,-6.108472589E-4,-2.290677279E-3
3.531145333E0,1.527118147E-4,6.108472589E-4,-1.068982761E-3
3.533589656E0,1.527118147E-4,6.108472589E-4,1.374406274E-3
3.536033093E0,1.374406274E-3,-6.108472589E-4,2.596100792E-3
3.538477468E0,1.527118147E-4,6.108472589E-4,-2.290677279E-3
3.540922572E0,-1.068982761E-3,1.832541777E-3,-2.290677279E-3
3.543366843E0,1.527118147E-4,6.108472589E-4,-1.068982761E-3
3.545810333E0,-1.068982761E-3,-6.108472589E-4,-3.512371797E-3
3.548254656E0,1.374406274E-3,6.108472589E-4,1.527118147E-4
3.550699760E0,1.374406274E-3,-6.108472589E-4,-1.068982761E-3
3.553144083E0,-1.068982761E-3,-6.108472589E-4,-2.290677279E-3
3.555587520E0,1.527118147E-4,-1.832541777E-3,3.817795310E-3
3.558031895E0,1.527118147E-4,-1.832541777E-3,1.374406274E-3
3.560476999E0,-1.068982761E-3,-6.108472589E-4,1.527118147E-4
3.562921322E0,-2.290677279E-3,6.108472589E-4,-2.290677279E-3
3.565364760E0,1.527118147E-4,-6.108472589E-4,1.527118147E-4
3.567809135E0,1.374406274E-3,-6.108472589E-4,3.817795310E-3
3.570254187E0,1.527118147E-4,-6.108472589E-4,1.374406274E-3
3.572698510E0,1.374406274E-3,-6.108472589E-4,3.817795310E-3
3.575141947E0,1.374406274E-3,-6.108472589E-4,1.527118147E-4
3.577586322E0,-1.068982761E-3,-6.108472589E-4,-2.290677279E-3
3.580031426E0,1.374406274E-3,6.108472589E-4,2.596100792E-3
3.582475749E0,-1.068982761E-3,6.108472589E-4,1.527118147E-4
3.584919187E0,1.374406274E-3,-6.108472589E-4,3.817795310E-3
3.587363562E0,-1.068982761E-3,6.108472589E-4,1.374406274E-3
3.589808666E0,1.527118147E-4,6.108472589E-4,1.527118147E-4
3.592252937E0,1.527118147E-4,6.108472589E-4,-1.068982761E-3
3.594696426E0,1.374406274E-3,6.108472589E-4,1.527118147E-4
3.597140749E0,1.374406274E-3,-1.832541777E-3,-1.068982761E-3
3.599585854E0,1.527118147E-4,-6.108472589E-4,-3.512371797E-3
3.602030176E0,1.527118147E-4,6.108472589E-4,-2.290677279E-3
3.604473614E0,1.527118147E-4,1.832541777E-3,-3.512371797E-3
3.606917989E0,1.527118147E-4,-1.832541777E-3,1.527118147E-4
3.609363093E0,1.374406274E-3,-6.108472589E-4,1.527118147E-4
3.611807364E0,1.527118147E-4,6.108472589E-4,-3.512371797E-3
3.614250854E0,-1.068982761E-3,-6.108472589E-4,-3.512371797E-3
3.616695176E0,1.527118147E-4,-6.108472589E-4,-1.068982761E-3
3.619140281E0,1.527118147E-4,-1.832541777E-3,1.527118147E-4
3.621584604E0,-1.068982761E-3,-6.108472589E-4,1.374406274E-3
3.624028041E0,1.374406274E-3,-6.108472589E-4,1.527118147E-4
3.626472416E0,1.527118147E-4,-6.108472589E-4,1.374406274E-3
3.628917520E0,1.527118147E-4,6.108472589E-4,-2.290677279E-3
3.631361791E0,1.527118147E-4,6.108472589E-4,-2.290677279E-3
3.633805281E0,1.527118147E-4,-6.108472589E-4,2.596100792E-3
3.636249604E0,-2.290677279E-3,6.108472589E-4,-3.512371797E-3
3.638694708E0,-1.068982761E-3,6.108472589E-4,-1.068982761E-3
3.641139031E0,-1.068982761E-3,6.108472589E-4,-3.512371797E-3
3.643582468E0,1.527118147E-4,-1.832541777E-3,1.527118147E-4
3.646026843E0,-1.068982761E-3,6.108472589E-4,-3.512371797E-3
3.648471947E0,1.527118147E-4,6.108472589E-4,-2.290677279E-3
3.650916218E0,1.374406274E-3,-3.054236295E-3,-1.068982761E-3
3.653359708E0,1.527118147E-4,-6.108472589E-4,-3.512371797E-3
3.655804031E0,1.527118147E-4,-1.832541777E-3,1.527118147E-4
3.658249135E0,1.527118147E-4,-6.108472589E-4,2.596100792E-3
3.660693458E0,-2.290677279E-3,6.108472589E-4,1.527118147E-4
3.663136895E0,-1.068982761E-3,6.108472589E-4,1.527118147E-4
3.665581270E0,1.374406274E-3,-6.108472589E-4,1.374406274E-3
3.668026374E0,1.527118147E-4,-6.108472589E-4,1.374406274E-3
3.670470645E0,1.527118147E-4,6.108472589E-4,1.374406274E-3
3.672914135E0,-1.068982761E-3,1.832541777E-3,1.374406274E-3
3.675358510E0,-1.068982761E-3,6.108472589E-4,-2.290677279E-3
3.677803562E0,1.527118147E-4,-6.108472589E-4,-1.068982761E-3
3.680247885E0,1.527118147E-4,-6.108472589E-4,1.374406274E-3
3.682691322E0,-1.068982761E-3,-6.108472589E-4,-1.068982761E-3
3.685135697E0,1.527118147E-4,-3.054236295E-3,-3.512371797E-3
3.687580801E0,-1.068982761E-3,6.108472589E-4,-2.290677279E-3
3.690025124E0,1.374406274E-3,-6.108472589E-4,2.596100792E-3
3.692468562E0,1.527118147E-4,-6.108472589E-4,1.527118147E-4
3.694912885E0,1.527118147E-4,6.108472589E-4,-3.512371797E-3
3.697357989E0,1.374406274E-3,-3.054236295E-3,1.527118147E-4
3.699802312E0,1.527118147E-4,-1.832541777E-3,1.527118147E-4
3.702245749E0,-1.068982761E-3,-6.108472589E-4,-2.290677279E-3
3.704690124E0,-1.068982761E-3,-1.832541777E-3,-2.290677279E-3
3.707135229E0,-1.068982761E-3,6.108472589E-4,-2.290677279E-3
3.709579551E0,1.527118147E-4,4.275931045E-3,1.374406274E-3
3.712022989E0,1.527118147E-4,6.108472589E-4,1.527118147E-4
3.714467364E0,-2.290677279E-3,-6.108472589E-4,-4.734066315E-3
3.716912416E0,-2.290677279E-3,6.108472589E-4,-3.512371797E-3
3.719356739E0,1.527118147E-4,-1.832541777E-3,1.527118147E-4
3.721800176E0,-1.068982761E-3,6.108472589E-4,-1.068982761E-3
3.724244551E0,-1.068982761E-3,6.108472589E-4,-5.955760833E-3
3.726689656E0,1.527118147E-4,6.108472589E-4,-3.512371797E-3
3.729133979E0,-1.068982761E-3,6.108472589E-4,-2.290677279E-3
3.731577416E0,1.374406274E-3,6.108472589E-4,1.374406274E-3
3.734021791E0,1.374406274E-3,-1.832541777E-3,1.527118147E-4
3.736466895E0,-1.068982761E-3,6.108472589E-4,-3.512371797E-3
3.738911166E0,1.527118147E-4,6.108472589E-4,1.527118147E-4
3.741354656E0,1.527118147E-4,1.832541777E-3,-1.068982761E-3
3.743798979E0,1.527118147E-4,6.108472589E-4,1.527118147E-4
3.746244083E0,-1.068982761E-3,6.108472589E-4,-2.290677279E-3
3.748688406E0,-1.068982761E-3,1.832541777E-3,-2.290677279E-3
3.751131843E0,-1.068982761E-3,6.108472589E-4,1.527118147E-4
3.753576218E0,1.374406274E-3,6.108472589E-4,1.527118147E-4
3.756021322E0,1.527118147E-4,6.108472589E-4,-2.290677279E-3
3.758465593E0,1.527118147E-4,-6.108472589E-4,-1.068982761E-3
3.760909083E0,1.527118147E-4,-6.108472589E-4,2.596100792E-3
3.763353406E0,1.374406274E-3,6.108472589E-4,1.374406274E-3
3.765798510E0,1.527118147E-4,6.108472589E-4,-1.068982761E-3
3.768242833E0,1.527118147E-4,-6.108472589E-4,-1.068982761E-3
3.770686270E0,1.374406274E-3,-6.108472589E-4,1.374406274E-3
3.773130645E0,1.527118147E-4,6.108472589E-4,-2.290677279E-3
3.775575749E0,1.527118147E-4,-6.108472589E-4,-1.068982761E-3
3.778020020E0,-1.068982761E-3,6.108472589E-4,-1.068982761E-3
3.780463510E0,-1.068982761E-3,6.108472589E-4,-1.068982761E-3
3.782907833E0,1.527118147E-4,-6.108472589E-4,-1.068982761E-3
3.785352937E0,-1.068982761E-3,6.108472589E-4,-1.068982761E-3
3.787797260E0,1.527118147E-4,6.108472589E-4,1.527118147E-4
3.790240697E0,1.374406274E-3,6.108472589E-4,3.817795310E-3
3.792685072E0,1.527118147E-4,6.108472589E-4,1.527118147E-4
3.795130176E0,1.527118147E-4,-6.108472589E-4,-1.068982761E-3
3.797574447E0,1.527118147E-4,6.108472589E-4,1.527118147E-4
3.800017937E0,1.527118147E-4,-6.108472589E-4,1.527118147E-4
3.802462260E0,1.527118147E-4,-1.832541777E-3,-1.068982761E-3
3.804907364E0,1.527118147E-4,-1.832541777E-3,-3.512371797E-3
3.807351687E0,-1.068982761E-3,6.108472589E-4,-4.734066315E-3
3.809795124E0,1.527118147E-4,-6.108472589E-4,1.527118147E-4
3.812239499E0,1.527118147E-4,-1.832541777E-3,-2.290677279E-3
3.814684604E0,2.596100792E-3,-6.108472589E-4,-3.512371797E-3
3.817128874E0,1.374406274E-3,-1.832541777E-3,1.374406274E-3
3.819572364E0,1.374406274E-3,-3.054236295E-3,1.374406274E-3
3.822016687E0,-1.068982761E-3,1.832541777E-3,-1.068982761E-3
3.824461791E0,1.527118147E-4,-6.108472589E-4,-2.290677279E-3
3.826906114E0,1.527118147E-4,-1.832541777E-3,-1.068982761E-3
3.829349551E0,1.374406274E-3,6.108472589E-4,3.817795310E-3
3.831793926E0,1.374406274E-3,-6.108472589E-4,5.039489828E-3
3.834239031E0,-1.068982761E-3,-6.108472589E-4,-1.068982761E-3
3.836683354E0,1.527118147E-4,-6.108472589E-4,1.374406274E-3
3.839126791E0,-1.068982761E-3,6.108472589E-4,1.374406274E-3
3.841571114E0,1.527118147E-4,-6.108472589E-4,1.374406274E-3
3.844016218E0,-1.068982761E-3,-1.832541777E-3,-4.734066315E-3
3.846460541E0,-2.290677279E-3,6.108472589E-4,-4.734066315E-3
3.848903979E0,-1.068982761E-3,6.108472589E-4,1.527118147E-4
3.851348354E0,2.596100792E-3,-6.108472589E-4,1.374406274E-3
3.853793458E0,1.374406274E-3,6.108472589E-4,1.527118147E-4
3.856237781E0,1.527118147E-4,6.108472589E-4,-3.512371797E-3
3.858681218E0,1.527118147E-4,-1.832541777E-3,-1.068982761E-3
3.861125593E0,-1.068982761E-3,-6.108472589E-4,1.527118147E-4
3.863570645E0,-2.290677279E-3,6.108472589E-4,-2.290677279E-3
3.866014968E0,1.527118147E-4,1.832541777E-3,-3.512371797E-3
3.868458458E0,1.374406274E-3,-1.832541777E-3,1.527118147E-4
3.870902781E0,1.374406274E-3,6.108472589E-4,1.374406274E-3
3.873347885E0,-2.290677279E-3,-6.108472589E-4,-3.512371797E-3
3.875792208E0,-2.290677279E-3,-6.108472589E-4,-3.512371797E-3
3.878235645E0,-1.068982761E-3,6.108472589E-4,-2.290677279E-3
3.880680020E0,1.374406274E-3,6.108472589E-4,2.596100792E-3
3.883125124E0,-1.068982761E-3,-1.832541777E-3,1.527118147E-4
3.885569395E0,1.527118147E-4,-6.108472589E-4,1.527118147E-4
3.888012885E0,1.527118147E-4,6.108472589E-4,1.527118147E-4
3.890457208E0,1.374406274E-3,-6.108472589E-4,2.596100792E-3
3.892902312E0,1.374406274E-3,-6.108472589E-4,1.527118147E-4
3.895346635E0,1.374406274E-3,-6.108472589E-4,1.527118147E-4
3.897790072E0,2.596100792E-3,-6.108472589E-4,1.374406274E-3
3.900234447E0,1.527118147E-4,-6.108472589E-4,1.374406274E-3
3.902679551E0,1.527118147E-4,6.108472589E-4,-1.068982761E-3
3.905123822E0,1.527118147E-4,6.108472589E-4,-1.068982761E-3
3.907567312E0,-1.068982761E-3,-6.108472589E-4,-2.290677279E-3
3.910011635E0,1.374406274E-3,6.108472589E-4,1.374406274E-3
3.912456739E0,1.527118147E-4,-6.108472589E-4,1.374406274E-3
3.914901062E0,-1.068982761E-3,6.108472589E-4,-1.068982761E-3
3.917344499E0,1.374406274E-3,-6.108472589E-4,1.527118147E-4
3.919788874E0,-2.290677279E-3,3.054236295E-3,-1.068982761E-3
3.922233979E0,1.527118147E-4,1.832541777E-3,-1.068982761E-3
3.924678249E0,2.596100792E-3,-6.108472589E-4,-1.068982761E-3
3.927121739E0,1.374406274E-3,6.108472589E-4,1.527118147E-4
3.929566062E0,1.527118147E-4,6.108472589E-4,-1.068982761E-3
3.932011166E0,1.374406274E-3,-6.108472589E-4,-1.068982761E-3
3.934455489E0,1.374406274E-3,6.108472589E-4,6.261184346E-3
3.936898926E0,1.527118147E-4,6.108472589E-4,3.817795310E-3
3.939343301E0,1.527118147E-4,-6.108472589E-4,-1.068982761E-3
3.941788406E0,-1.068982761E-3,6.108472589E-4,-2.290677279E-3
3.944232676E0,1.374406274E-3,-6.108472589E-4,1.374406274E-3
3.946676166E0,1.527118147E-4,-1.832541777E-3,1.374406274E-3
3.949120489E0,1.527118147E-4,-1.832541777E-3,-2.290677279E-3
3.951565593E0,1.527118147E-4,-6.108472589E-4,-3.512371797E-3
3.954009916E0,1.527118147E-4,-6.108472589E-4,-1.068982761E-3
3.956453354E0,1.527118147E-4,-6.108472589E-4,2.596100792E-3
3.958897729E0,1.374406274E-3,-6.108472589E-4,2.596100792E-3
3.961342833E0,1.374406274E-3,-3.054236295E-3,-1.068982761E-3
3.963787104E0,1.527118147E-4,6.108472589E-4,-1.068982761E-3
3.966230593E0,1.527118147E-4,3.054236295E-3,1.374406274E-3
3.968674916E0,-1.068982761E-3,-1.832541777E-3,-2.290677279E-3
3.971120020E0,-1.068982761E-3,6.108472589E-4,-2.290677279E-3
3.973564343E0,2.596100792E-3,-6.108472589E-4,3.817795310E-3
3.976007781E0,1.374406274E-3,-6.108472589E-4,1.527118147E-4
3.978452156E0,-1.068982761E-3,-6.108472589E-4,-5.955760833E-3
3.980897260E0,-1.068982761E-3,-1.832541777E-3,-2.290677279E-3
3.983341531E0,-1.068982761E-3,6.108472589E-4,-2.290677279E-3
3.985785020E0,1.527118147E-4,-1.832541777E-3,-1.068982761E-3
3.988229343E0,-1.068982761E-3,6.108472589E-4,-1.068982761E-3
3.990674447E0,-1.068982761E-3,-1.832541777E-3,-4.734066315E-3
3.993118770E0,-2.290677279E-3,-6.108472589E-4,-3.512371797E-3
3.995562208E0,1.374406274E-3,-6.108472589E-4,-1.068982761E-3
3.998006583E0,1.527118147E-4,-6.108472589E-4,1.374406274E-3
4.000451687E0,-2.290677279E-3,6.108472589E-4,-3.512371797E-3
4.002895958E0,1.527118147E-4,1.832541777E-3,1.374406274E-3
4.005339447E0,-1.068982761E-3,6.108472589E-4,-1.068982761E-3
4.007783822E0,-1.068982761E-3,-6.108472589E-4,1.527118147E-4
4.010228874E0,1.527118147E-4,6.108472589E-4,-1.068982761E-3
4.012673197E0,1.527118147E-4,6.108472589E-4,-1.068982761E-3
4.015116635E0,-2.290677279E-3,-6.108472589E-4,1.527118147E-4
4.017561010E0,1.527118147E-4,1.832541777E-3,1.527118147E-4
4.020006114E0,-1.068982761E-3,6.108472589E-4,-2.290677279E-3
4.022450437E0,-1.068982761E-3,1.832541777E-3,-2.290677279E-3
4.024893874E0,1.527118147E-4,-6.108472589E-4,-2.290677279E-3
4.027338249E0,1.527118147E-4,6.108472589E-4,1.527118147E-4
4.029783301E0,1.527118147E-4,-1.832541777E-3,-1.068982761E-3
4.032227624E0,2.596100792E-3,-6.108472589E-4,2.596100792E-3
4.034671062E0,1.374406274E-3,6.108472589E-4,1.527118147E-4
4.037115437E0,-1.068982761E-3,6.108472589E-4,-2.290677279E-3
4.039560541E0,1.527118147E-4,-6.108472589E-4,1.527118147E-4
4.042004864E0,-1.068982761E-3,-6.108472589E-4,1.374406274E-3
4.044448301E0,-1.068982761E-3,6.108472589E-4,-2.290677279E-3
4.046892676E0,1.374406274E-3,-6.108472589E-4,1.374406274E-3
4.049337781E0,1.527118147E-4,6.108472589E-4,2.596100792E-3
4.051782051E0,1.374406274E-3,-6.108472589E-4,1.527118147E-4
4.054225541E0,1.527118147E-4,1.832541777E-3,1.374406274E-3
4.056669864E0,1.527118147E-4,1.832541777E-3,1.527118147E-4
4.059114968E0,1.374406274E-3,6.108472589E-4,-1.068982761E-3
4.061559291E0,1.374406274E-3,-6.108472589E-4,1.527118147E-4
4.064002729E0,1.527118147E-4,-6.108472589E-4,1.527118147E-4
4.066447104E0,1.527118147E-4,-6.108472589E-4,1.527118147E-4
4.068892208E0,1.527118147E-4,-6.108472589E-4,2.596100792E-3
4.071336479E0,1.527118147E-4,6.108472589E-4,2.596100792E-3
4.073779968E0,1.374406274E-3,6.108472589E-4,-2.290677279E-3
4.076224291E0,1.527118147E-4,-6.108472589E-4,-7.177455351E-3
4.078669395E0,-1.068982761E-3,6.108472589E-4,-3.512371797E-3
4.081113718E0,-1.068982761E-3,-6.108472589E-4,1.374406274E-3
4.083557156E0,1.527118147E-4,6.108472589E-4,1.374406274E-3
4.086001531E0,1.374406274E-3,-6.108472589E-4,-1.068982761E-3
4.088446635E0,1.527118147E-4,-1.832541777E-3,-3.512371797E-3
4.090890906E0,1.527118147E-4,1.832541777E-3,2.596100792E-3
4.093334395E0,-1.068982761E-3,-1.832541777E-3,1.527118147E-4
4.095778718E0,-1.068982761E-3,-6.108472589E-4,-1.068982761E-3
4.098223822E0,1.374406274E-3,6.108472589E-4,2.596100792E-3
4.100668145E0,1.527118147E-4,1.832541777E-3,1.527118147E-4
4.103111583E0,1.527118147E-4,-6.108472589E-4,1.527118147E-4
4.105555958E0,1.527118147E-4,-1.832541777E-3,1.374406274E-3
4.108001062E0,-2.290677279E-3,6.108472589E-4,1.527118147E-4
4.110445333E0,-1.068982761E-3,6.108472589E-4,-1.068982761E-3
4.112888822E0,2.596100792E-3,6.108472589E-4,1.527118147E-4
4.115333145E0,1.527118147E-4,6.108472589E-4,1.527118147E-4
4.117778249E0,-1.068982761E-3,-6.108472589E-4,1.374406274E-3
4.120222572E0,2.596100792E-3,-6.108472589E-4,1.374406274E-3
4.122666010E0,1.374406274E-3,3.054236295E-3,-1.068982761E-3
4.125110385E0,1.527118147E-4,6.108472589E-4,-1.068982761E-3
4.127555489E0,1.527118147E-4,6.108472589E-4,1.527118147E-4
4.129999760E0,-1.068982761E-3,1.832541777E-3,-2.290677279E-3
4.132443249E0,-1.068982761E-3,6.108472589E-4,-3.512371797E-3
4.134887572E0,2.596100792E-3,-6.108472589E-4,2.596100792E-3
4.137332676E0,1.527118147E-4,-6.108472589E-4,5.039489828E-3
4.139776999E0,1.374406274E-3,6.108472589E-4,1.527118147E-4
4.142220437E0,1.374406274E-3,1.832541777E-3,-2.290677279E-3
4.144664812E0,1.374406274E-3,-6.108472589E-4,1.374406274E-3
4.147109916E0,-1.068982761E-3,-6.108472589E-4,-2.290677279E-3
4.149554187E0,1.374406274E-3,6.108472589E-4,1.374406274E-3
4.151997676E0,-1.068982761E-3,6.108472589E-4,-3.512371797E-3
4.154441999E0,1.374406274E-3,-1.832541777E-3,2.596100792E-3
4.156887104E0,1.527118147E-4,6.108472589E-4,-1.068982761E-3
4.159331426E0,-2.290677279E-3,6.108472589E-4,-4.734066315E-3
4.161774864E0,1.527118147E-4,-1.832541777E-3,-3.512371797E-3
4.164219239E0,-1.068982761E-3,-1.832541777E-3,1.527118147E-4
4.166664343E0,-1.068982761E-3,6.108472589E-4,1.374406274E-3
4.169108614E0,-1.068982761E-3,-6.108472589E-4,-2.290677279E-3
4.171552104E0,1.374406274E-3,-1.832541777E-3,-3.512371797E-3
4.173996426E0,-1.068982761E-3,-6.108472589E-4,-1.068982761E-3
4.176441531E0,-1.068982761E-3,6.108472589E-4,-3.512371797E-3
4.178885854E0,1.527118147E-4,6.108472589E-4,-1.068982761E-3
4.181329291E0,1.527118147E-4,-6.108472589E-4,-3.512371797E-3
4.183773666E0,1.527118147E-4,6.108472589E-4,-4.734066315E-3
4.186218770E0,1.374406274E-3,-6.108472589E-4,1.374406274E-3
4.188663093E0,-1.068982761E-3,6.108472589E-4,-1.068982761E-3
4.191106531E0,1.527118147E-4,-6.108472589E-4,-2.290677279E-3
4.193550906E0,1.374406274E-3,-6.108472589E-4,-1.068982761E-3
4.195995958E0,-1.068982761E-3,6.108472589E-4,-3.512371797E-3
4.198440281E0,-1.068982761E-3,-6.108472589E-4,-3.512371797E-3
4.200883718E0,-1.068982761E-3,1.832541777E-3,-5.955760833E-3
4.203328093E0,1.374406274E-3,1.832541777E-3,-1.068982761E-3
4.205773197E0,1.374406274E-3,-1.832541777E-3,1.374406274E-3
4.208217520E0,-2.290677279E-3,6.108472589E-4,-4.734066315E-3
4.210660958E0,-3.512371797E-3,4.275931045E-3,-4.734066315E-3
4.213105333E0,-2.290677279E-3,6.108472589E-4,1.527118147E-4
4.215550385E0,1.527118147E-4,-6.108472589E-4,3.817795310E-3
4.217994708E0,1.374406274E-3,-1.832541777E-3,1.527118147E-4
4.220438145E0,1.374406274E-3,-1.832541777E-3,-3.512371797E-3
4.222882520E0,2.596100792E-3,-1.832541777E-3,1.527118147E-4
4.225327624E0,1.527118147E-4,-6.108472589E-4,-1.068982761E-3
4.227771947E0,2.596100792E-3,-1.832541777E-3,1.527118147E-4
4.230215385E0,1.527118147E-4,-6.108472589E-4,-1.068982761E-3
4.232659760E0,1.374406274E-3,6.108472589E-4,1.374406274E-3
4.235104812E0,1.527118147E-4,6.108472589E-4,1.374406274E-3
4.237549135E0,-2.290677279E-3,1.832541777E-3,-2.290677279E-3
4.239992572E0,1.374406274E-3,-6.108472589E-4,-1.068982761E-3
4.242436947E0,1.527118147E-4,-6.108472589E-4,1.527118147E-4
4.244882051E0,1.374406274E-3,-1.832541777E-3,1.527118147E-4
4.247326374E0,1.374406274E-3,-6.108472589E-4,-2.290677279E-3
4.249769812E0,1.527118147E-4,6.108472589E-4,1.527118147E-4
4.252214187E0,1.527118147E-4,6.108472589E-4,1.374406274E-3
4.254659291E0,-1.068982761E-3,6.108472589E-4,-1.068982761E-3
4.257103562E0,1.527118147E-4,-6.108472589E-4,-1.068982761E-3
4.259547051E0,1.527118147E-4,-6.108472589E-4,-1.068982761E-3
4.261991374E0,-1.068982761E-3,6.108472589E-4,1.527118147E-4
4.264436479E0,1.374406274E-3,-6.108472589E-4,1.527118147E-4
4.266880801E0,1.527118147E-4,6.108472589E-4,1.527118147E-4
4.269324239E0,1.527118147E-4,-6.108472589E-4,1.374406274E-3
4.271768614E0,1.527118147E-4,-6.108472589E-4,-1.068982761E-3
4.274213718E0,1.374406274E-3,6.108472589E-4,1.527118147E-4
4.276657989E0,-1.068982761E-3,-6.108472589E-4,-1.068982761E-3
4.279101479E0,1.527118147E-4,1.832541777E-3,-1.068982761E-3
4.281545801E0,1.527118147E-4,1.832541777E-3,1.374406274E-3
4.283990906E0,-1.068982761E-3,-6.108472589E-4,-1.068982761E-3
4.286435229E0,-1.068982761E-3,6.108472589E-4,-1.068982761E-3
4.288878666E0,1.527118147E-4,1.832541777E-3,1.374406274E-3
4.291323041E0,1.527118147E-4,-6.108472589E-4,-1.068982761E-3
4.293768145E0,1.374406274E-3,-1.832541777E-3,1.527118147E-4
4.296212416E0,1.374406274E-3,6.108472589E-4,1.374406274E-3
4.298655906E0,1.374406274E-3,-6.108472589E-4,1.527118147E-4
4.301100229E0,1.527118147E-4,-6.108472589E-4,-1.068982761E-3
4.303545333E0,-1.068982761E-3,-1.832541777E-3,-1.068982761E-3
4.305989656E0,1.374406274E-3,-6.108472589E-4,1.374406274E-3
4.308433093E0,1.527118147E-4,6.108472589E-4,-1.068982761E-3
4.310877468E0,-1.068982761E-3,-6.108472589E-4,1.527118147E-4
4.313322572E0,2.596100792E-3,1.832541777E-3,1.374406274E-3
4.315766843E0,3.817795310E-3,-3.054236295E-3,1.374406274E-3
4.318210333E0,1.527118147E-4,-3.054236295E-3,1.374406274E-3
4.320654656E0,1.527118147E-4,6.108472589E-4,-1.068982761E-3
4.323099760E0,1.374406274E-3,6.108472589E-4,-1.068982761E-3
4.325544083E0,1.527118147E-4,-6.108472589E-4,1.527118147E-4
4.327987520E0,-2.290677279E-3,1.832541777E-3,1.374406274E-3
4.330431895E0,-3.512371797E-3,6.719320081E-3,-2.290677279E-3
4.332876999E0,1.374406274E-3,1.832541777E-3,-1.068982761E-3
4.335321270E0,-1.068982761E-3,-6.719320081E-3,1.527118147E-4
4.337764760E0,1.527118147E-4,-6.108472589E-4,1.527118147E-4
4.340209083E0,1.527118147E-4,-1.832541777E-3,1.527118147E-4
4.342654187E0,1.527118147E-4,-6.108472589E-4,1.527118147E-4
4.345098510E0,-1.068982761E-3,-5.497625098E-3,1.374406274E-3
4.347541947E0,1.527118147E-4,6.108472589E-4,-2.290677279E-3
4.349986322E0,-1.068982761E-3,6.108472589E-4,1.527118147E-4
4.352431426E0,-1.068982761E-3,6.108472589E-4,1.527118147E-4
4.354875697E0,1.527118147E-4,-1.832541777E-3,-1.068982761E-3
4.357319187E0,1.527118147E-4,-1.832541777E-3,-1.068982761E-3
4.359763510E0,1.527118147E-4,-1.832541777E-3,1.527118147E-4
4.362208614E0,1.374406274E-3,1.832541777E-3,-1.068982761E-3
4.364652937E0,-2.290677279E-3,-3.054236295E-3,-1.068982761E-3
4.367096374E0,-2.290677279E-3,-6.108472589E-4,-3.512371797E-3
4.369540749E0,1.527118147E-4,6.108472589E-4,-1.068982761E-3
4.371985854E0,2.596100792E-3,1.832541777E-3,1.374406274E-3
4.374430124E0,1.374406274E-3,6.108472589E-4,1.527118147E-4
4.376873614E0,-2.290677279E-3,-6.108472589E-4,1.527118147E-4
4.379317937E0,-1.068982761E-3,4.275931045E-3,1.527118147E-4
4.381763093E0,2.596100792E-3,-1.832541777E-3,2.596100792E-3
4.384207364E0,-2.290677279E-3,-1.832541777E-3,2.596100792E-3
4.386650801E0,-3.512371797E-3,-6.108472589E-4,-2.290677279E-3
4.389095176E0,1.527118147E-4,-6.108472589E-4,-2.290677279E-3
4.391540281E0,-2.290677279E-3,6.108472589E-4,-1.068982761E-3
4.393984551E0,1.374406274E-3,6.108472589E-4,1.374406274E-3
4.396428041E0,1.527118147E-4,1.832541777E-3,1.527118147E-4
4.398872416E0,1.374406274E-3,-6.108472589E-4,2.596100792E-3
4.401317468E0,1.374406274E-3,-6.108472589E-4,1.374406274E-3
4.403761791E0,1.527118147E-4,-6.108472589E-4,-1.068982761E-3
4.406205229E0,-1.068982761E-3,6.108472589E-4,-1.068982761E-3
4.408649604E0,1.527118147E-4,6.108472589E-4,1.374406274E-3
4.411094708E0,2.596100792E-3,-1.832541777E-3,5.039489828E-3
4.413539031E0,1.374406274E-3,-1.832541777E-3,1.374406274E-3
4.415982468E0,1.527118147E-4,-4.275931045E-3,-1.068982761E-3
4.418426791E0,1.527118147E-4,-1.832541777E-3,-1.068982761E-3
4.420871895E0,2.596100792E-3,-1.832541777E-3,2.596100792E-3
4.423316218E0,-1.068982761E-3,-6.108472589E-4,-1.068982761E-3
4.425759708E0,1.527118147E-4,6.108472589E-4,1.527118147E-4
4.428204031E0,-1.068982761E-3,-4.275931045E-3,2.596100792E-3
4.430649135E0,-1.068982761E-3,6.108472589E-4,2.596100792E-3
4.433093458E0,-1.068982761E-3,1.832541777E-3,-1.068982761E-3
4.435536895E0,1.374406274E-3,-6.108472589E-4,1.527118147E-4
4.437981270E0,1.374406274E-3,-6.108472589E-4,2.596100792E-3
4.440426322E0,1.374406274E-3,-6.108472589E-4,1.527118147E-4
4.442870645E0,-1.068982761E-3,-6.108472589E-4,-3.512371797E-3
4.445314083E0,-1.068982761E-3,-4.275931045E-3,-2.290677279E-3
4.447758458E0,-3.512371797E-3,-1.832541777E-3,1.374406274E-3
4.450203562E0,5.039489828E-3,6.108472589E-4,2.596100792E-3
4.452647885E0,2.596100792E-3,-4.275931045E-3,-1.068982761E-3
4.455091322E0,1.527118147E-4,-1.832541777E-3,-1.068982761E-3
4.457535697E0,-2.290677279E-3,6.108472589E-4,1.527118147E-4
4.459980801E0,1.527118147E-4,-1.832541777E-3,-1.068982761E-3
4.462425072E0,1.374406274E-3,3.054236295E-3,-1.068982761E-3
4.464868562E0,1.527118147E-4,6.108472589E-4,1.374406274E-3
4.467312885E0,-1.068982761E-3,-6.108472589E-4,1.527118147E-4
4.469757989E0,1.527118147E-4,-6.108472589E-4,2.596100792E-3
4.472202312E0,1.374406274E-3,-6.108472589E-4,1.527118147E-4
4.474645749E0,1.374406274E-3,-1.832541777E-3,1.527118147E-4
4.477090124E0,-1.068982761E-3,6.108472589E-4,1.374406274E-3
4.479535176E0,1.374406274E-3,6.108472589E-4,1.527118147E-4
4.481979499E0,1.374406274E-3,6.108472589E-4,-2.290677279E-3
4.484422989E0,1.527118147E-4,-6.108472589E-4,-1.068982761E-3
4.486867312E0,-1.068982761E-3,-6.108472589E-4,1.374406274E-3
4.489312416E0,-1.068982761E-3,1.832541777E-3,-1.068982761E-3
4.491756739E0,-1.068982761E-3,6.108472589E-4,-2.290677279E-3
4.494200176E0,1.527118147E-4,6.108472589E-4,1.527118147E-4
4.496644551E0,1.527118147E-4,4.275931045E-3,1.527118147E-4
4.499089656E0,-2.290677279E-3,-6.108472589E-4,-1.068982761E-3
4.501533926E0,-1.068982761E-3,-6.108472589E-4,-1.068982761E-3
4.503977416E0,-5.955760833E-3,6.108472589E-4,1.374406274E-3
4.506421739E0,-1.068982761E-3,-6.108472589E-4,-1.068982761E-3
4.508866843E0,1.527118147E-4,-6.108472589E-4,-1.068982761E-3
4.511311166E0,1.527118147E-4,-1.832541777E-3,1.527118147E-4
4.513754604E0,-2.290677279E-3,1.832541777E-3,-2.290677279E-3
4.516198979E0,-2.290677279E-3,6.108472589E-4,-2.290677279E-3
4.518644083E0,1.527118147E-4,-6.108472589E-4,-1.068982761E-3
4.521088354E0,-1.068982761E-3,6.108472589E-4,-1.068982761E-3
4.523531843E0,1.527118147E-4,-6.108472589E-4,-1.068982761E-3
4.525976166E0,1.527118147E-4,-6.108472589E-4,-1.068982761E-3
4.528421270E0,1.374406274E-3,-1.832541777E-3,-2.290677279E-3
4.530865593E0,1.374406274E-3,-6.108472589E-4,1.527118147E-4
4.533309031E0,-1.068982761E-3,-1.832541777E-3,-1.068982761E-3
4.535753406E0,1.527118147E-4,6.108472589E-4,-3.512371797E-3
4.538198510E0,1.374406274E-3,1.832541777E-3,1.374406274E-3
4.540642781E0,1.374406274E-3,6.108472589E-4,1.527118147E-4
4.543086270E0,1.527118147E-4,-6.108472589E-4,-1.068982761E-3
4.545530593E0,-1.068982761E-3,-1.832541777E-3,1.527118147E-4
4.547975697E0,1.527118147E-4,6.108472589E-4,-1.068982761E-3
4.550420020E0,-1.068982761E-3,6.108472589E-4,-3.512371797E-3
4.552863458E0,-1.068982761E-3,1.832541777E-3,1.374406274E-3
4.555307833E0,1.527118147E-4,-6.108472589E-4,1.527118147E-4
4.557752937E0,1.527118147E-4,-1.832541777E-3,-2.290677279E-3
4.560197208E0,-2.290677279E-3,-6.108472589E-4,1.374406274E-3
4.562640697E0,1.527118147E-4,-4.275931045E-3,1.527118147E-4
4.565085020E0,1.374406274E-3,-6.108472589E-4,-2.290677279E-3
4.567530124E0,1.527118147E-4,-1.832541777E-3,-2.290677279E-3
4.569974447E0,-1.068982761E-3,6.108472589E-4,1.527118147E-4
4.572417885E0,1.527118147E-4,-1.832541777E-3,1.527118147E-4
4.574862260E0,1.527118147E-4,-6.108472589E-4,-2.290677279E-3
4.577307364E0,-1.068982761E-3,-6.108472589E-4,-1.068982761E-3
4.579751635E0,-1.068982761E-3,-1.832541777E-3,1.527118147E-4
4.582195124E0,-1.068982761E-3,1.832541777E-3,1.527118147E-4
4.584639447E0,-3.512371797E-3,6.108472589E-4,-1.068982761E-3
4.587084551E0,-2.290677279E-3,6.108472589E-4,-2.290677279E-3
4.589528874E0,1.527118147E-4,6.108472589E-4,-1.068982761E-3
4.591972312E0,-1.068982761E-3,1.832541777E-3,1.527118147E-4
4.594416687E0,1.374406274E-3,6.108472589E-4,-2.290677279E-3
4.596861791E0,-1.068982761E-3,-4.275931045E-3,-2.290677279E-3
4.599306062E0,1.374406274E-3,6.108472589E-4,-2.290677279E-3
4.601749551E0,1.374406274E-3,5.497625098E-3,1.527118147E-4
4.604193874E0,1.527118147E-4,-6.108472589E-4,-1.068982761E-3
4.606638979E0,2.596100792E-3,-6.108472589E-4,1.527118147E-4
4.609083301E0,1.374406274E-3,-6.108472589E-4,-1.068982761E-3
4.611526739E0,1.527118147E-4,5.497625098E-3,-1.068982761E-3
4.613971114E0,-1.068982761E-3,6.108472589E-4,-1.068982761E-3
4.616416218E0,-1.068982761E-3,1.832541777E-3,-1.068982761E-3
4.618860489E0,-1.068982761E-3,4.275931045E-3,-2.290677279E-3
4.621303979E0,1.527118147E-4,6.108472589E-4,-1.068982761E-3
4.623748301E0,1.527118147E-4,-1.832541777E-3,1.527118147E-4
4.626193406E0,1.527118147E-4,6.108472589E-4,-1.068982761E-3
4.628637729E0,-1.068982761E-3,6.108472589E-4,1.527118147E-4
4.631081166E0,-2.290677279E-3,-1.832541777E-3,-1.068982761E-3
4.633525541E0,1.527118147E-4,6.108472589E-4,1.527118147E-4
4.635970645E0,1.374406274E-3,-1.832541777E-3,1.527118147E-4
4.638414916E0,1.527118147E-4,6.108472589E-4,-1.068982761E-3
4.640858406E0,1.374406274E-3,6.108472589E-4,-1.068982761E-3
4.643302729E0,1.374406274E-3,-1.832541777E-3,-1.068982761E-3
4.645747833E0,1.527118147E-4,-6.108472589E-4,-2.290677279E-3
4.648192156E0,-1.068982761E-3,6.108472589E-4,-1.068982761E-3
4.650635593E0,1.527118147E-4,-6.108472589E-4,-1.068982761E-3
4.653079968E0,-2.290677279E-3,-1.832541777E-3,-4.734066315E-3
4.655525072E0,1.527118147E-4,6.108472589E-4,-1.068982761E-3
4.657969343E0,1.527118147E-4,-6.108472589E-4,-1.068982761E-3
4.660412833E0,1.374406274E-3,-1.832541777E-3,1.374406274E-3
4.662857156E0,2.596100792E-3,-6.108472589E-4,1.527118147E-4
4.665302260E0,2.596100792E-3,-6.108472589E-4,-1.068982761E-3
4.667746583E0,1.527118147E-4,6.108472589E-4,3.817795310E-3
4.670190020E0,-1.068982761E-3,6.108472589E-4,-1.068982761E-3
4.672634395E0,1.374406274E-3,6.108472589E-4,-1.068982761E-3
4.675079499E0,-1.068982761E-3,6.108472589E-4,-1.068982761E-3
4.677523822E0,1.527118147E-4,6.108472589E-4,1.527118147E-4
4.679967260E0,1.374406274E-3,-6.108472589E-4,1.374406274E-3
4.682411583E0,1.374406274E-3,-3.054236295E-3,-1.068982761E-3
4.684856687E0,1.527118147E-4,3.054236295E-3,1.527118147E-4
4.687301010E0,6.261184346E-3,5.497625098E-3,1.527118147E-4
4.689744447E0,1.374406274E-3,1.832541777E-3,-1.068982761E-3
4.692188822E0,-1.068982761E-3,6.108472589E-4,-2.290677279E-3
4.694633926E0,1.527118147E-4,6.108472589E-4,-1.068982761E-3
4.697078249E0,-3.512371797E-3,-1.832541777E-3,1.527118147E-4
4.699521687E0,-1.068982761E-3,1.832541777E-3,-1.068982761E-3
4.701966062E0,3.817795310E-3,4.275931045E-3,-2.290677279E-3
4.704411114E0,1.374406274E-3,-3.054236295E-3,1.527118147E-4
4.706855437E0,-1.068982761E-3,6.108472589E-4,1.374406274E-3
4.709298874E0,1.527118147E-4,-6.108472589E-4,-3.512371797E-3
4.711743249E0,1.527118147E-4,-6.108472589E-4,1.527118147E-4
4.714188354E0,-1.068982761E-3,-6.108472589E-4,1.374406274E-3
4.716632676E0,-1.068982761E-3,6.108472589E-4,1.527118147E-4
4.719076114E0,1.374406274E-3,-1.832541777E-3,1.527118147E-4
4.721520489E0,1.527118147E-4,-1.832541777E-3,1.374406274E-3
4.723965541E0,-1.068982761E-3,6.108472589E-4,1.527118147E-4
4.726409864E0,1.374406274E-3,-6.108472589E-4,1.527118147E-4
4.728853301E0,1.527118147E-4,-6.108472589E-4,-3.512371797E-3
4.731297676E0,1.527118147E-4,6.108472589E-4,-2.290677279E-3
4.733742781E0,1.527118147E-4,3.054236295E-3,1.527118147E-4
4.736187104E0,3.817795310E-3,-6.108472589E-4,1.527118147E-4
4.738630541E0,-2.290677279E-3,-4.275931045E-3,-1.068982761E-3
4.741074916E0,-1.068982761E-3,1.832541777E-3,1.374406274E-3
4.743520020E0,1.527118147E-4,1.832541777E-3,1.374406274E-3
4.745964291E0,1.527118147E-4,6.108472589E-4,-1.068982761E-3
4.748407781E0,1.527118147E-4,6.108472589E-4,1.527118147E-4
4.750852104E0,-1.068982761E-3,-6.108472589E-4,-1.068982761E-3
4.753297208E0,-1.068982761E-3,-1.832541777E-3,-2.290677279E-3
4.755741531E0,-1.068982761E-3,-1.832541777E-3,-2.290677279E-3
4.758184968E0,1.527118147E-4,6.108472589E-4,-3.512371797E-3
4.760629343E0,1.374406274E-3,-6.108472589E-4,-2.290677279E-3
4.763074447E0,1.527118147E-4,-1.832541777E-3,-2.290677279E-3
4.765518718E0,-2.290677279E-3,-6.108472589E-4,-1.068982761E-3
4.767962208E0,1.527118147E-4,-6.108472589E-4,1.374406274E-3
4.770406531E0,-1.068982761E-3,6.108472589E-4,-1.068982761E-3
4.772851635E0,1.527118147E-4,1.832541777E-3,1.527118147E-4
4.775295958E0,1.527118147E-4,-6.108472589E-4,1.527118147E-4
4.777739395E0,2.596100792E-3,-1.832541777E-3,-2.290677279E-3
4.780183770E0,2.596100792E-3,-3.054236295E-3,1.527118147E-4
4.782628874E0,1.374406274E-3,6.108472589E-4,2.596100792E-3
4.785073145E0,1.527118147E-4,-6.108472589E-4,1.374406274E-3
4.787516635E0,2.596100792E-3,1.832541777E-3,1.527118147E-4
4.789960958E0,1.374406274E-3,-6.108472589E-4,-1.068982761E-3
4.792406062E0,1.527118147E-4,-6.108472589E-4,1.374406274E-3
4.794850385E0,-1.068982761E-3,1.832541777E-3,-1.068982761E-3
4.797293822E0,2.596100792E-3,4.275931045E-3,-2.290677279E-3
4.799738197E0,-1.068982761E-3,-6.108472589E-4,-1.068982761E-3
4.802183301E0,-1.068982761E-3,6.108472589E-4,-1.068982761E-3
4.804627572E0,1.527118147E-4,-6.108472589E-4,1.374406274E-3
4.807071062E0,-1.068982761E-3,3.054236295E-3,-1.068982761E-3
4.809515385E0,-1.068982761E-3,1.832541777E-3,-1.068982761E-3
4.811960489E0,1.527118147E-4,-6.108472589E-4,1.527118147E-4
4.814404812E0,1.374406274E-3,6.719320081E-3,1.527118147E-4
4.816848249E0,3.817795310E-3,-6.108472589E-4,1.527118147E-4
4.819292624E0,-1.068982761E-3,1.832541777E-3,-2.290677279E-3
4.821737729E0,-2.290677279E-3,6.108472589E-4,-1.068982761E-3
4.824181999E0,-2.290677279E-3,6.108472589E-4,-3.512371797E-3
4.826625489E0,1.527118147E-4,6.108472589E-4,-1.068982761E-3
4.829069812E0,1.527118147E-4,6.108472589E-4,-2.290677279E-3
4.831514916E0,-1.068982761E-3,6.108472589E-4,-4.734066315E-3
4.833959239E0,-1.068982761E-3,-6.108472589E-4,1.527118147E-4
4.836402676E0,-2.290677279E-3,-6.108472589E-4,2.596100792E-3
4.838847051E0,1.527118147E-4,1.832541777E-3,-3.512371797E-3
4.841292156E0,1.374406274E-3,-6.108472589E-4,-1.068982761E-3
4.843736479E0,1.527118147E-4,-6.108472589E-4,-2.290677279E-3
4.846179916E0,1.374406274E-3,1.832541777E-3,1.527118147E-4
4.848624239E0,1.374406274E-3,1.832541777E-3,1.527118147E-4
4.851069343E0,1.374406274E-3,-6.108472589E-4,1.374406274E-3
4.853513666E0,1.527118147E-4,1.832541777E-3,-1.068982761E-3
4.855957104E0,1.374406274E-3,-1.832541777E-3,1.527118147E-4
4.858401479E0,-1.068982761E-3,-6.108472589E-4,-3.512371797E-3
4.860846583E0,1.527118147E-4,-1.832541777E-3,1.527118147E-4
4.863290906E0,1.374406274E-3,-6.108472589E-4,1.374406274E-3
4.865734343E0,1.374406274E-3,-6.108472589E-4,2.596100792E-3
4.868178718E0,-2.290677279E-3,1.832541777E-3,-1.068982761E-3
4.870623822E0,-2.290677279E-3,-6.108472589E-4,-2.290677279E-3
4.873068093E0,-1.068982761E-3,-6.108472589E-4,-3.512371797E-3
4.875511531E0,1.527118147E-4,6.108472589E-4,-2.290677279E-3
4.877955906E0,1.374406274E-3,-6.108472589E-4,2.596100792E-3
4.880401010E0,1.527118147E-4,-6.108472589E-4,1.527118147E-4
4.882845333E0,1.527118147E-4,6.108472589E-4,1.527118147E-4
4.885288770E0,1.374406274E-3,6.108472589E-4,3.817795310E-3
4.887733145E0,-1.068982761E-3,6.108472589E-4,-2.290677279E-3
4.890178249E0,1.374406274E-3,-1.832541777E-3,-3.512371797E-3
4.892622520E0,1.374406274E-3,-6.108472589E-4,1.374406274E-3
4.895066010E0,2.596100792E-3,-1.832541777E-3,2.596100792E-3
4.897510333E0,1.527118147E-4,-6.108472589E-4,-3.512371797E-3
4.899955437E0,-1.068982761E-3,-6.108472589E-4,-2.290677279E-3
4.902399760E0,-1.068982761E-3,1.832541777E-3,-2.290677279E-3
4.904843197E0,1.527118147E-4,-6.108472589E-4,2.596100792E-3
4.907287572E0,1.527118147E-4,-1.832541777E-3,1.527118147E-4
4.909732676E0,1.374406274E-3,-1.832541777E-3,1.374406274E-3
4.912176947E0,1.527118147E-4,-6.108472589E-4,-1.068982761E-3
4.914620437E0,-1.068982761E-3,-6.108472589E-4,-3.512371797E-3
4.917064760E0,1.527118147E-4,-1.832541777E-3,-1.068982761E-3
4.919509864E0,1.527118147E-4,-1.832541777E-3,1.527118147E-4
4.921954187E0,1.374406274E-3,-6.108472589E-4,1.374406274E-3
4.924397624E0,1.527118147E-4,-6.108472589E-4,1.374406274E-3
4.926841999E0,1.527118147E-4,6.108472589E-4,-1.068982761E-3
4.929287104E0,-1.068982761E-3,-6.108472589E-4,-2.290677279E-3
4.931731374E0,1.527118147E-4,-1.832541777E-3,1.527118147E-4
4.934174864E0,-2.290677279E-3,-6.108472589E-4,2.596100792E-3
4.936619187E0,-1.068982761E-3,-1.832541777E-3,1.374406274E-3
4.939064291E0,1.527118147E-4,4.275931045E-3,-1.068982761E-3
4.941508614E0,-2.290677279E-3,3.054236295E-3,-2.290677279E-3
4.943952051E0,-1.068982761E-3,1.832541777E-3,-2.290677279E-3
4.946396426E0,-2.290677279E-3,6.108472589E-4,-5.955760833E-3
4.948841531E0,1.374406274E-3,-6.108472589E-4,2.596100792E-3
4.951285801E0,1.527118147E-4,1.832541777E-3,-2.290677279E-3
4.953729291E0,1.374406274E-3,-6.108472589E-4,1.527118147E-4
