"Time (s)","Acceleration x (m/s^2)","Acceleration y (m/s^2)","Acceleration z (m/s^2)"
2.810647500E-2,-1.253240854E-1,-1.429711580E-1,9.878170013E0
3.059991300E-2,-1.205384433E-1,-1.552343667E-1,9.882955551E0
3.309319400E-2,-1.372881979E-1,-1.429711580E-1,9.854242325E0
3.558647500E-2,-1.229312643E-1,-1.357926875E-1,9.885348320E0
3.807975700E-2,-1.205384433E-1,-1.310070455E-1,9.880562782E0
4.057303800E-2,-1.277169138E-1,-1.333998591E-1,9.887741089E0
4.306637100E-2,-1.420738399E-1,-1.357926875E-1,9.890133858E0
4.555965300E-2,-1.516451389E-1,-1.504487246E-1,9.880562782E0
4.805293400E-2,-1.372881979E-1,-1.480558962E-1,9.892526627E0
5.049751700E-2,-1.372881979E-1,-1.381855011E-1,9.882955551E0
5.289319400E-2,-1.372881979E-1,-1.381855011E-1,9.882955551E0
5.538715300E-2,-1.492523104E-1,-1.429711580E-1,9.890133858E0
5.788074600E-2,-1.420738399E-1,-1.528415531E-1,9.906884193E0
6.037397500E-2,-1.253240854E-1,-1.453639716E-1,9.894919395E0
6.286720500E-2,-1.660020649E-1,-1.405783296E-1,9.875777245E0
6.536053800E-2,-1.420738399E-1,-1.405783296E-1,9.887741089E0
6.785387100E-2,-1.325025558E-1,-1.333998591E-1,9.878170013E0
7.034710000E-2,-1.372881979E-1,-1.190429255E-1,9.890133858E0
7.284033000E-2,-1.253240854E-1,-1.357926875E-1,9.863813400E0
7.533361100E-2,-1.396810263E-1,-1.310070455E-1,9.885348320E0
7.782689200E-2,-1.396810263E-1,-1.262213886E-1,9.906884193E0
8.032012100E-2,-1.396810263E-1,-1.214357466E-1,9.911669731E0
8.281335000E-2,-1.348953694E-1,-1.214357466E-1,9.882955551E0
8.530663200E-2,-1.325025558E-1,-1.310070455E-1,9.906884193E0
8.779991300E-2,-1.301097274E-1,-1.333998591E-1,9.906884193E0
9.029314200E-2,-1.516451389E-1,-1.381855011E-1,9.870991707E0
9.278637100E-2,-1.516451389E-1,-1.453639716E-1,9.890133858E0
9.527960000E-2,-1.516451389E-1,-1.528415531E-1,9.870991707E0
9.777283000E-2,-1.396810263E-1,-1.381855011E-1,9.909276962E0
1.002660590E-1,-1.444666684E-1,-1.576271951E-1,9.904491425E0
1.027592880E-1,-1.468594968E-1,-1.480558962E-1,9.906884193E0
1.052525170E-1,-1.468594968E-1,-1.333998591E-1,9.873384476E0
1.077457460E-1,-1.372881979E-1,-1.310070455E-1,9.882955551E0
1.102389750E-1,-1.348953694E-1,-1.333998591E-1,9.916455269E0
1.127322050E-1,-1.205384433E-1,-1.480558962E-1,9.897313118E0
1.152254340E-1,-1.325025558E-1,-1.480558962E-1,9.875777245E0
1.177186630E-1,-1.229312643E-1,-1.429711580E-1,9.870991707E0
1.202118920E-1,-1.372881979E-1,-1.262213886E-1,9.880562782E0
1.227051210E-1,-1.229312643E-1,-1.480558962E-1,9.875777245E0
1.251983500E-1,-1.683948934E-1,-1.357926875E-1,9.904491425E0
1.276915800E-1,-1.420738399E-1,-1.429711580E-1,9.894919395E0
1.301486110E-1,-1.348953694E-1,-1.357926875E-1,9.911669731E0
1.325928820E-1,-1.396810263E-1,-1.504487246E-1,9.882955551E0
1.350380380E-1,-1.325025558E-1,-1.453639716E-1,9.870991707E0
1.374822570E-1,-1.325025558E-1,-1.381855011E-1,9.890133858E0
1.399257980E-1,-1.372881979E-1,-1.310070455E-1,9.902098656E0
1.423701730E-1,-1.540379524E-1,-1.357926875E-1,9.897313118E0
1.448152780E-1,-1.540379524E-1,-1.238285750E-1,9.873384476E0
1.472595480E-1,-1.516451389E-1,-1.238285750E-1,9.899705887E0
1.497030380E-1,-1.372881979E-1,-1.405783296E-1,9.897313118E0
1.521474130E-1,-1.420738399E-1,-1.429711580E-1,9.878170013E0
1.545925170E-1,-1.516451389E-1,-1.357926875E-1,9.878170013E0
1.570367880E-1,-1.348953694E-1,-1.504487246E-1,9.904491425E0
1.594803300E-1,-1.468594968E-1,-1.695913076E-1,9.894919395E0
1.619247050E-1,-1.325025558E-1,-1.528415531E-1,9.882955551E0
1.643698090E-1,-1.253240854E-1,-1.286142170E-1,9.887741089E0
1.668140800E-1,-1.396810263E-1,-1.453639716E-1,9.880562782E0
1.692575690E-1,-1.325025558E-1,-1.528415531E-1,9.875777245E0
1.717019440E-1,-1.301097274E-1,-1.405783296E-1,9.897313118E0
1.741470480E-1,-1.325025558E-1,-1.552343667E-1,9.859027863E0
1.765913190E-1,-1.325025558E-1,-1.504487246E-1,9.861420631E0
1.790348610E-1,-1.301097274E-1,-1.310070455E-1,9.890133858E0
1.814791320E-1,-1.516451389E-1,-1.166501045E-1,9.870991707E0
1.839242880E-1,-1.348953694E-1,-1.238285750E-1,9.868598938E0
1.863685590E-1,-1.348953694E-1,-1.381855011E-1,9.866206169E0
1.888121000E-1,-1.492523104E-1,-1.429711580E-1,9.890133858E0
1.912564750E-1,-1.396810263E-1,-1.262213886E-1,9.899705887E0
1.937015800E-1,-1.348953694E-1,-1.405783296E-1,9.880562782E0
1.961458500E-1,-1.468594968E-1,-1.552343667E-1,9.909276962E0
1.985893400E-1,-1.516451389E-1,-1.357926875E-1,9.906884193E0
2.010337150E-1,-1.492523104E-1,-1.357926875E-1,9.882955551E0
2.034788190E-1,-1.588236094E-1,-1.310070455E-1,9.885348320E0
2.059230900E-1,-1.420738399E-1,-1.405783296E-1,9.887741089E0
2.083666320E-1,-1.301097274E-1,-1.357926875E-1,9.875777245E0
2.108110070E-1,-1.420738399E-1,-1.480558962E-1,9.875777245E0
2.132561110E-1,-1.444666684E-1,-1.381855011E-1,9.878170013E0
2.157003300E-1,-1.564307809E-1,-1.333998591E-1,9.902098656E0
2.181438710E-1,-1.372881979E-1,-1.429711580E-1,9.868598938E0
2.205882460E-1,-1.492523104E-1,-1.238285750E-1,9.902098656E0
2.230333500E-1,-1.588236094E-1,-1.333998591E-1,9.882955551E0
2.254776210E-1,-1.301097274E-1,-1.480558962E-1,9.894919395E0
2.279211110E-1,-1.133599728E-1,-1.333998591E-1,9.892526627E0
2.303654860E-1,-1.348953694E-1,-1.453639716E-1,9.882955551E0
2.328105900E-1,-1.396810263E-1,-1.333998591E-1,9.866206169E0
2.352548610E-1,-1.444666684E-1,-1.286142170E-1,9.878170013E0
2.376984030E-1,-1.229312643E-1,-1.262213886E-1,9.875777245E0
2.401427780E-1,-1.301097274E-1,-1.429711580E-1,9.894919395E0
2.425878820E-1,-1.325025558E-1,-1.480558962E-1,9.878170013E0
2.450321530E-1,-1.420738399E-1,-1.286142170E-1,9.873384476E0
2.474756420E-1,-1.420738399E-1,-1.333998591E-1,9.887741089E0
2.499200170E-1,-1.468594968E-1,-1.333998591E-1,9.899705887E0
2.523651210E-1,-1.540379524E-1,-1.381855011E-1,9.875777245E0
2.548093920E-1,-1.348953694E-1,-1.357926875E-1,9.868598938E0
2.572529340E-1,-1.109671518E-1,-1.405783296E-1,9.873384476E0
2.596972050E-1,-1.277169138E-1,-1.381855011E-1,9.878170013E0
2.621424130E-1,-1.205384433E-1,-1.480558962E-1,9.873384476E0
2.645866320E-1,-1.444666684E-1,-1.238285750E-1,9.875777245E0
2.670301730E-1,-1.277169138E-1,-1.214357466E-1,9.873384476E0
2.694745480E-1,-1.348953694E-1,-1.381855011E-1,9.914062500E0
2.719196530E-1,-1.325025558E-1,-1.357926875E-1,9.911669731E0
2.743639230E-1,-1.301097274E-1,-1.429711580E-1,9.897313118E0
2.768074130E-1,-1.372881979E-1,-1.453639716E-1,9.906884193E0
2.792517880E-1,-1.325025558E-1,-1.453639716E-1,9.930811882E0
2.816968920E-1,-1.468594968E-1,-1.357926875E-1,9.902098656E0
2.841411630E-1,-1.348953694E-1,-1.333998591E-1,9.904491425E0
2.865847050E-1,-1.396810263E-1,-1.310070455E-1,9.890133858E0
2.890290800E-1,-1.636092514E-1,-1.310070455E-1,9.904491425E0
2.914741840E-1,-1.420738399E-1,-1.310070455E-1,9.899705887E0
2.939184550E-1,-1.444666684E-1,-1.429711580E-1,9.875777245E0
2.963619440E-1,-1.372881979E-1,-1.381855011E-1,9.868598938E0
2.988063190E-1,-1.396810263E-1,-1.504487246E-1,9.878170013E0
3.012514230E-1,-1.277169138E-1,-1.238285750E-1,9.897313118E0
3.036956940E-1,-1.707877219E-1,-1.453639716E-1,9.868598938E0
3.061392360E-1,-1.348953694E-1,-1.286142170E-1,9.882955551E0
3.085835070E-1,-1.229312643E-1,-1.357926875E-1,9.875777245E0
3.110287150E-1,-1.420738399E-1,-1.333998591E-1,9.882955551E0
3.134729340E-1,-1.444666684E-1,-1.552343667E-1,9.885348320E0
3.159164750E-1,-1.492523104E-1,-1.333998591E-1,9.892526627E0
3.183608500E-1,-1.205384433E-1,-1.333998591E-1,9.894919395E0
3.208059550E-1,-1.396810263E-1,-1.381855011E-1,9.899705887E0
3.232502250E-1,-1.444666684E-1,-1.310070455E-1,9.880562782E0
3.256937150E-1,-1.277169138E-1,-1.405783296E-1,9.875777245E0
3.281380900E-1,-1.301097274E-1,-1.310070455E-1,9.892526627E0
3.305831940E-1,-1.229312643E-1,-1.405783296E-1,9.868598938E0
3.330274650E-1,-1.588236094E-1,-1.429711580E-1,9.878170013E0
3.354710070E-1,-1.468594968E-1,-1.333998591E-1,9.894919395E0
3.379153820E-1,-1.301097274E-1,-1.429711580E-1,9.878170013E0
3.403604860E-1,-1.253240854E-1,-1.381855011E-1,9.873384476E0
3.428047570E-1,-1.420738399E-1,-1.357926875E-1,9.866206169E0
3.452482460E-1,-1.348953694E-1,-1.381855011E-1,9.894919395E0
3.476926210E-1,-1.396810263E-1,-1.286142170E-1,9.880562782E0
3.501377250E-1,-1.468594968E-1,-1.405783296E-1,9.906884193E0
3.525819960E-1,-1.492523104E-1,-1.310070455E-1,9.897313118E0
3.550254860E-1,-1.420738399E-1,-1.333998591E-1,9.887741089E0
3.574698610E-1,-1.396810263E-1,-1.333998591E-1,9.870991707E0
3.599149650E-1,-1.372881979E-1,-1.429711580E-1,9.882955551E0
3.623592360E-1,-1.372881979E-1,-1.310070455E-1,9.906884193E0
3.648027780E-1,-1.253240854E-1,-1.381855011E-1,9.890133858E0
3.672471530E-1,-1.157527938E-1,-1.453639716E-1,9.866206169E0
3.696922570E-1,-1.396810263E-1,-1.429711580E-1,9.904491425E0
3.721365280E-1,-1.301097274E-1,-1.453639716E-1,9.890133858E0
3.745800170E-1,-1.420738399E-1,-1.381855011E-1,9.875777245E0
3.770243920E-1,-1.372881979E-1,-1.262213886E-1,9.902098656E0
3.794694960E-1,-1.492523104E-1,-1.310070455E-1,9.914062500E0
3.819137670E-1,-1.420738399E-1,-1.333998591E-1,9.897313118E0
3.843573090E-1,-1.325025558E-1,-1.381855011E-1,9.885348320E0
3.868015800E-1,-1.372881979E-1,-1.310070455E-1,9.902098656E0
3.892467880E-1,-1.396810263E-1,-1.504487246E-1,9.914062500E0
3.916910070E-1,-1.396810263E-1,-1.600200087E-1,9.892526627E0
3.941345480E-1,-1.372881979E-1,-1.429711580E-1,9.885348320E0
3.965789230E-1,-1.420738399E-1,-1.552343667E-1,9.916455269E0
3.990240280E-1,-1.564307809E-1,-1.310070455E-1,9.894919395E0
4.014682980E-1,-1.396810263E-1,-1.552343667E-1,9.887741089E0
4.039117880E-1,-1.325025558E-1,-1.357926875E-1,9.861420631E0
4.063561630E-1,-1.372881979E-1,-1.357926875E-1,9.892526627E0
4.088012670E-1,-1.492523104E-1,-1.552343667E-1,9.890133858E0
4.112455380E-1,-1.301097274E-1,-1.453639716E-1,9.875777245E0
4.136890800E-1,-1.396810263E-1,-1.429711580E-1,9.882955551E0
4.161334550E-1,-1.372881979E-1,-1.310070455E-1,9.899705887E0
4.185785590E-1,-1.348953694E-1,-1.405783296E-1,9.904491425E0
4.210228300E-1,-1.301097274E-1,-1.357926875E-1,9.875777245E0
4.234663190E-1,-1.372881979E-1,-1.381855011E-1,9.868598938E0
4.259106940E-1,-1.181456149E-1,-1.504487246E-1,9.885348320E0
4.283557980E-1,-1.109671518E-1,-1.405783296E-1,9.880562782E0
4.308000690E-1,-1.372881979E-1,-1.453639716E-1,9.894919395E0
4.332436110E-1,-1.348953694E-1,-1.333998591E-1,9.890133858E0
4.356878820E-1,-1.564307809E-1,-1.405783296E-1,9.887741089E0
4.381330380E-1,-1.109671518E-1,-1.429711580E-1,9.870991707E0
4.405773090E-1,-1.325025558E-1,-1.333998591E-1,9.887741089E0
4.430208500E-1,-1.492523104E-1,-1.238285750E-1,9.878170013E0
4.454652250E-1,-1.325025558E-1,-1.357926875E-1,9.885348320E0
4.479103300E-1,-1.492523104E-1,-1.310070455E-1,9.902098656E0
4.503546000E-1,-1.516451389E-1,-1.381855011E-1,9.897313118E0
4.527980900E-1,-1.372881979E-1,-1.381855011E-1,9.875777245E0
4.552424650E-1,-1.444666684E-1,-1.238285750E-1,9.892526627E0
4.576875690E-1,-1.277169138E-1,-1.190429255E-1,9.902098656E0
4.601318400E-1,-1.325025558E-1,-1.190429255E-1,9.911669731E0
4.625753820E-1,-1.444666684E-1,-1.504487246E-1,9.899705887E0
4.650196530E-1,-1.348953694E-1,-1.429711580E-1,9.887741089E0
4.674648610E-1,-1.564307809E-1,-1.357926875E-1,9.873384476E0
4.699090800E-1,-1.301097274E-1,-1.429711580E-1,9.897313118E0
4.723526210E-1,-1.133599728E-1,-1.480558962E-1,9.885348320E0
4.747969960E-1,-1.444666684E-1,-1.453639716E-1,9.894919395E0
4.772421000E-1,-1.468594968E-1,-1.310070455E-1,9.880562782E0
4.796863710E-1,-1.253240854E-1,-1.453639716E-1,9.894919395E0
4.821298610E-1,-1.301097274E-1,-1.453639716E-1,9.928419113E0
4.845742360E-1,-1.516451389E-1,-1.429711580E-1,9.916455269E0
4.870193400E-1,-1.277169138E-1,-1.357926875E-1,9.902098656E0
4.894636110E-1,-1.372881979E-1,-1.357926875E-1,9.894919395E0
4.919071530E-1,-1.444666684E-1,-1.238285750E-1,9.899705887E0
4.943515280E-1,-1.325025558E-1,-1.357926875E-1,9.873384476E0
4.967966320E-1,-1.444666684E-1,-1.504487246E-1,9.882955551E0
4.992409030E-1,-1.396810263E-1,-1.429711580E-1,9.899705887E0
5.016843920E-1,-1.372881979E-1,-1.429711580E-1,9.904491425E0
5.041287670E-1,-1.396810263E-1,-1.333998591E-1,9.861420631E0
5.065738710E-1,-1.325025558E-1,-1.381855011E-1,9.890133858E0
5.090181420E-1,-1.348953694E-1,-1.142572835E-1,9.885348320E0
5.114616840E-1,-1.277169138E-1,-1.166501045E-1,9.878170013E0
5.139059550E-1,-1.516451389E-1,-1.310070455E-1,9.882955551E0
5.163511630E-1,-1.325025558E-1,-1.453639716E-1,9.890133858E0
5.187953820E-1,-1.325025558E-1,-1.262213886E-1,9.887741089E0
5.212389230E-1,-1.372881979E-1,-1.429711580E-1,9.897313118E0
5.236832980E-1,-1.229312643E-1,-1.480558962E-1,9.885348320E0
5.261284030E-1,-1.396810263E-1,-1.429711580E-1,9.885348320E0
5.285726730E-1,-1.396810263E-1,-1.286142170E-1,9.880562782E0
5.310161630E-1,-1.420738399E-1,-1.262213886E-1,9.882955551E0
5.334605380E-1,-1.325025558E-1,-1.238285750E-1,9.894919395E0
5.359056420E-1,-1.612164229E-1,-1.238285750E-1,9.899705887E0
5.383499130E-1,-1.372881979E-1,-1.528415531E-1,9.906884193E0
5.407934550E-1,-1.229312643E-1,-1.190429255E-1,9.882955551E0
5.432378300E-1,-1.444666684E-1,-1.166501045E-1,9.882955551E0
5.456829340E-1,-1.660020649E-1,-1.286142170E-1,9.897313118E0
5.481271530E-1,-1.444666684E-1,-1.214357466E-1,9.897313118E0
5.505706940E-1,-1.396810263E-1,-1.453639716E-1,9.890133858E0
5.530150690E-1,-1.444666684E-1,-1.310070455E-1,9.904491425E0
5.554601730E-1,-1.396810263E-1,-1.262213886E-1,9.882955551E0
5.579044440E-1,-1.372881979E-1,-1.453639716E-1,9.890133858E0
5.603479340E-1,-1.348953694E-1,-1.286142170E-1,9.878170013E0
5.627923090E-1,-1.396810263E-1,-1.429711580E-1,9.882955551E0
5.652374130E-1,-1.540379524E-1,-1.429711580E-1,9.890133858E0
5.676816840E-1,-1.348953694E-1,-1.453639716E-1,9.890133858E0
5.701252250E-1,-1.516451389E-1,-1.214357466E-1,9.899705887E0
5.725696000E-1,-1.420738399E-1,-1.286142170E-1,9.892526627E0
5.750147050E-1,-1.540379524E-1,-1.310070455E-1,9.897313118E0
5.774589230E-1,-1.396810263E-1,-1.453639716E-1,9.878170013E0
5.799024650E-1,-1.492523104E-1,-1.381855011E-1,9.897313118E0
5.823468400E-1,-1.325025558E-1,-1.552343667E-1,9.897313118E0
5.847919440E-1,-1.420738399E-1,-1.381855011E-1,9.887741089E0
5.872362150E-1,-1.277169138E-1,-1.333998591E-1,9.892526627E0
5.896797050E-1,-1.301097274E-1,-1.262213886E-1,9.892526627E0
5.921240800E-1,-1.612164229E-1,-1.166501045E-1,9.897313118E0
5.945691840E-1,-1.492523104E-1,-1.190429255E-1,9.894919395E0
5.970134550E-1,-1.444666684E-1,-1.262213886E-1,9.885348320E0
5.994569960E-1,-1.253240854E-1,-1.405783296E-1,9.885348320E0
6.019013710E-1,-1.253240854E-1,-1.429711580E-1,9.870991707E0
6.043464750E-1,-1.372881979E-1,-1.333998591E-1,9.892526627E0
6.067907460E-1,-1.229312643E-1,-1.381855011E-1,9.882955551E0
6.092342360E-1,-1.157527938E-1,-1.238285750E-1,9.892526627E0
6.116786110E-1,-1.277169138E-1,-1.262213886E-1,9.897313118E0
6.141237150E-1,-1.588236094E-1,-1.480558962E-1,9.882955551E0
6.165679860E-1,-1.444666684E-1,-1.286142170E-1,9.878170013E0
6.190115280E-1,-1.444666684E-1,-1.357926875E-1,9.906884193E0
6.214557980E-1,-1.444666684E-1,-1.528415531E-1,9.892526627E0
6.239009550E-1,-1.468594968E-1,-1.528415531E-1,9.894919395E0
6.263452250E-1,-1.468594968E-1,-1.480558962E-1,9.878170013E0
6.287887670E-1,-1.396810263E-1,-1.357926875E-1,9.885348320E0
6.312331420E-1,-1.492523104E-1,-1.405783296E-1,9.890133858E0
6.336782460E-1,-1.420738399E-1,-1.333998591E-1,9.904491425E0
6.361225170E-1,-1.492523104E-1,-1.286142170E-1,9.899705887E0
6.385660070E-1,-1.420738399E-1,-1.480558962E-1,9.892526627E0
6.410103820E-1,-1.636092514E-1,-1.480558962E-1,9.902098656E0
6.434554860E-1,-1.540379524E-1,-1.381855011E-1,9.868598938E0
6.458997570E-1,-1.468594968E-1,-1.624128371E-1,9.868598938E0
6.483432980E-1,-1.372881979E-1,-1.528415531E-1,9.885348320E0
6.507875690E-1,-1.396810263E-1,-1.381855011E-1,9.904491425E0
6.532327780E-1,-1.253240854E-1,-1.357926875E-1,9.875777245E0
6.556769960E-1,-1.372881979E-1,-1.453639716E-1,9.885348320E0
6.581205380E-1,-1.612164229E-1,-1.214357466E-1,9.904491425E0
6.605649130E-1,-1.372881979E-1,-1.214357466E-1,9.882955551E0
6.630100170E-1,-1.564307809E-1,-1.429711580E-1,9.870991707E0
6.654542880E-1,-1.492523104E-1,-1.310070455E-1,9.890133858E0
6.678977780E-1,-1.372881979E-1,-1.357926875E-1,9.892526627E0
6.703421530E-1,-1.516451389E-1,-1.405783296E-1,9.902098656E0
6.727872570E-1,-1.420738399E-1,-1.528415531E-1,9.878170013E0
6.752315280E-1,-1.468594968E-1,-1.357926875E-1,9.882955551E0
6.776750690E-1,-1.372881979E-1,-1.310070455E-1,9.894919395E0
6.801194440E-1,-1.372881979E-1,-1.480558962E-1,9.892526627E0
6.825645480E-1,-1.444666684E-1,-1.429711580E-1,9.899705887E0
6.850088190E-1,-1.372881979E-1,-1.480558962E-1,9.885348320E0
6.874523090E-1,-1.468594968E-1,-1.214357466E-1,9.894919395E0
6.898966840E-1,-1.181456149E-1,-1.552343667E-1,9.899705887E0
6.923417880E-1,-1.301097274E-1,-1.262213886E-1,9.914062500E0
6.947860590E-1,-1.516451389E-1,-1.262213886E-1,9.899705887E0
6.972295480E-1,-1.325025558E-1,-1.262213886E-1,9.885348320E0
6.996739230E-1,-1.301097274E-1,-1.381855011E-1,9.894919395E0
7.021190280E-1,-1.181456149E-1,-1.528415531E-1,9.880562782E0
7.045632980E-1,-1.612164229E-1,-1.262213886E-1,9.856635094E0
7.070068400E-1,-1.540379524E-1,-1.357926875E-1,9.868598938E0
7.094512150E-1,-1.396810263E-1,-1.480558962E-1,9.909276962E0
7.118963190E-1,-1.325025558E-1,-1.310070455E-1,9.892526627E0
7.143405900E-1,-1.396810263E-1,-1.333998591E-1,9.890133858E0
7.167840800E-1,-1.492523104E-1,-1.357926875E-1,9.880562782E0
7.192284550E-1,-1.516451389E-1,-1.528415531E-1,9.914062500E0
7.216735590E-1,-1.372881979E-1,-1.190429255E-1,9.909276962E0
7.241178300E-1,-1.301097274E-1,-1.480558962E-1,9.885348320E0
7.265613710E-1,-1.396810263E-1,-1.528415531E-1,9.916455269E0
7.290056420E-1,-1.372881979E-1,-1.214357466E-1,9.894919395E0
7.314507980E-1,-1.396810263E-1,-1.286142170E-1,9.882955551E0
7.338950690E-1,-1.540379524E-1,-1.286142170E-1,9.887741089E0
7.363386110E-1,-1.516451389E-1,-1.357926875E-1,9.894919395E0
7.387829860E-1,-1.492523104E-1,-1.453639716E-1,9.904491425E0
7.412280900E-1,-1.564307809E-1,-1.405783296E-1,9.890133858E0
7.436723610E-1,-1.468594968E-1,-1.238285750E-1,9.906884193E0
7.461158500E-1,-1.444666684E-1,-1.333998591E-1,9.902098656E0
7.485602250E-1,-1.396810263E-1,-1.453639716E-1,9.902098656E0
7.510053300E-1,-1.348953694E-1,-1.357926875E-1,9.861420631E0
7.534496000E-1,-1.348953694E-1,-1.504487246E-1,9.875777245E0
7.558930900E-1,-1.420738399E-1,-1.453639716E-1,9.902098656E0
7.583374650E-1,-1.277169138E-1,-1.429711580E-1,9.878170013E0
7.607825690E-1,-1.444666684E-1,-1.480558962E-1,9.892526627E0
7.632268400E-1,-1.396810263E-1,-1.600200087E-1,9.899705887E0
7.656703820E-1,-1.277169138E-1,-1.286142170E-1,9.902098656E0
7.681147570E-1,-1.396810263E-1,-1.381855011E-1,9.885348320E0
7.705598610E-1,-1.229312643E-1,-1.357926875E-1,9.887741089E0
7.730041320E-1,-1.420738399E-1,-1.429711580E-1,9.911669731E0
7.754476210E-1,-1.612164229E-1,-1.528415531E-1,9.904491425E0
7.778919960E-1,-1.301097274E-1,-1.381855011E-1,9.880562782E0
7.803371000E-1,-1.348953694E-1,-1.405783296E-1,9.904491425E0
7.827813710E-1,-1.348953694E-1,-1.381855011E-1,9.890133858E0
7.852249130E-1,-1.325025558E-1,-1.576271951E-1,9.894919395E0
7.876692880E-1,-1.516451389E-1,-1.262213886E-1,9.890133858E0
7.901143920E-1,-1.325025558E-1,-1.405783296E-1,9.887741089E0
7.925586110E-1,-1.372881979E-1,-1.357926875E-1,9.885348320E0
7.950021530E-1,-1.420738399E-1,-1.429711580E-1,9.887741089E0
7.974465280E-1,-1.205384433E-1,-1.405783296E-1,9.887741089E0
7.998916320E-1,-1.468594968E-1,-1.429711580E-1,9.902098656E0
8.023359030E-1,-1.468594968E-1,-1.381855011E-1,9.906884193E0
8.047793920E-1,-1.468594968E-1,-1.381855011E-1,9.878170013E0
8.072237670E-1,-1.420738399E-1,-1.429711580E-1,9.880562782E0
8.096688710E-1,-1.540379524E-1,-1.504487246E-1,9.909276962E0
8.121131420E-1,-1.444666684E-1,-1.576271951E-1,9.906884193E0
8.145566840E-1,-1.301097274E-1,-1.333998591E-1,9.904491425E0
8.170010590E-1,-1.301097274E-1,-1.429711580E-1,9.897313118E0
8.194461630E-1,-1.372881979E-1,-1.453639716E-1,9.890133858E0
8.218903820E-1,-1.420738399E-1,-1.381855011E-1,9.911669731E0
8.243339230E-1,-1.540379524E-1,-1.429711580E-1,9.916455269E0
8.267782980E-1,-1.588236094E-1,-1.238285750E-1,9.892526627E0
8.292234030E-1,-1.444666684E-1,-1.238285750E-1,9.880562782E0
8.316676730E-1,-1.540379524E-1,-1.238285750E-1,9.890133858E0
8.341111630E-1,-1.516451389E-1,-1.528415531E-1,9.882955551E0
8.365555380E-1,-1.372881979E-1,-1.429711580E-1,9.904491425E0
8.390006420E-1,-1.444666684E-1,-1.453639716E-1,9.897313118E0
8.414449130E-1,-1.420738399E-1,-1.504487246E-1,9.885348320E0
8.438884550E-1,-1.277169138E-1,-1.405783296E-1,9.902098656E0
8.463328300E-1,-1.372881979E-1,-1.333998591E-1,9.892526627E0
8.487779340E-1,-1.325025558E-1,-1.357926875E-1,9.892526627E0
8.512221530E-1,-1.588236094E-1,-1.453639716E-1,9.897313118E0
8.536656940E-1,-1.277169138E-1,-1.453639716E-1,9.875777245E0
8.561100690E-1,-1.396810263E-1,-1.453639716E-1,9.882955551E0
8.585551730E-1,-1.492523104E-1,-1.214357466E-1,9.892526627E0
8.609994440E-1,-1.348953694E-1,-1.357926875E-1,9.904491425E0
8.634429860E-1,-1.444666684E-1,-1.357926875E-1,9.885348320E0
8.658872570E-1,-1.492523104E-1,-1.357926875E-1,9.854242325E0
8.683324130E-1,-1.468594968E-1,-1.238285750E-1,9.892526627E0
8.707766840E-1,-1.229312643E-1,-1.094716340E-1,9.904491425E0
8.732202250E-1,-1.444666684E-1,-1.453639716E-1,9.894919395E0
8.756646000E-1,-1.492523104E-1,-1.262213886E-1,9.887741089E0
8.781097050E-1,-1.301097274E-1,-1.357926875E-1,9.890133858E0
8.805539230E-1,-1.253240854E-1,-1.142572835E-1,9.892526627E0
8.829974650E-1,-1.396810263E-1,-1.310070455E-1,9.870991707E0
8.854418400E-1,-1.468594968E-1,-1.504487246E-1,9.882955551E0
8.878869440E-1,-1.420738399E-1,-1.429711580E-1,9.880562782E0
8.903312150E-1,-1.492523104E-1,-1.333998591E-1,9.906884193E0
8.927747050E-1,-1.181456149E-1,-1.333998591E-1,9.880562782E0
8.952190800E-1,-1.516451389E-1,-1.214357466E-1,9.892526627E0
8.976641840E-1,-1.492523104E-1,-1.405783296E-1,9.892526627E0
9.001084550E-1,-1.420738399E-1,-1.357926875E-1,9.897313118E0
9.025519960E-1,-1.540379524E-1,-1.429711580E-1,9.902098656E0
9.049963710E-1,-1.420738399E-1,-1.381855011E-1,9.892526627E0
9.074414750E-1,-1.468594968E-1,-1.528415531E-1,9.875777245E0
9.098857460E-1,-1.348953694E-1,-1.504487246E-1,9.880562782E0
9.123292360E-1,-1.348953694E-1,-1.528415531E-1,9.899705887E0
9.147736110E-1,-1.348953694E-1,-1.357926875E-1,9.882955551E0
9.172187150E-1,-1.396810263E-1,-1.381855011E-1,9.873384476E0
9.196629860E-1,-1.612164229E-1,-1.262213886E-1,9.892526627E0
9.221064750E-1,-1.516451389E-1,-1.480558962E-1,9.882955551E0
9.245508500E-1,-1.420738399E-1,-1.286142170E-1,9.875777245E0
9.269959550E-1,-1.396810263E-1,-1.552343667E-1,9.873384476E0
9.294402250E-1,-1.468594968E-1,-1.453639716E-1,9.885348320E0
9.318837670E-1,-1.372881979E-1,-1.429711580E-1,9.875777245E0
9.343281420E-1,-1.420738399E-1,-1.333998591E-1,9.873384476E0
9.367732460E-1,-1.396810263E-1,-1.310070455E-1,9.885348320E0
9.392175170E-1,-1.396810263E-1,-1.286142170E-1,9.885348320E0
9.416610070E-1,-1.396810263E-1,-1.405783296E-1,9.914062500E0
9.441053820E-1,-1.348953694E-1,-1.453639716E-1,9.894919395E0
9.465504860E-1,-1.325025558E-1,-1.286142170E-1,9.878170013E0
9.489947570E-1,-1.468594968E-1,-1.453639716E-1,9.885348320E0
9.514382460E-1,-1.444666684E-1,-1.480558962E-1,9.897313118E0
9.538826210E-1,-1.372881979E-1,-1.480558962E-1,9.892526627E0
9.563277250E-1,-1.396810263E-1,-1.405783296E-1,9.894919395E0
9.587719960E-1,-1.564307809E-1,-1.381855011E-1,9.894919395E0
9.612155380E-1,-1.492523104E-1,-1.405783296E-1,9.892526627E0
9.636599130E-1,-1.540379524E-1,-1.381855011E-1,9.882955551E0
9.661050170E-1,-1.444666684E-1,-1.381855011E-1,9.890133858E0
9.685492880E-1,-1.396810263E-1,-1.118644550E-1,9.902098656E0
9.709927780E-1,-1.348953694E-1,-1.576271951E-1,9.909276962E0
9.734371530E-1,-1.325025558E-1,-1.381855011E-1,9.890133858E0
9.758822570E-1,-1.516451389E-1,-1.238285750E-1,9.892526627E0
9.783265280E-1,-1.229312643E-1,-1.480558962E-1,9.897313118E0
9.807700690E-1,-1.277169138E-1,-1.405783296E-1,9.914062500E0
9.832143400E-1,-1.348953694E-1,-1.262213886E-1,9.875777245E0
9.856594960E-1,-1.516451389E-1,-1.381855011E-1,9.899705887E0
9.881037670E-1,-1.492523104E-1,-1.214357466E-1,9.902098656E0
9.905473090E-1,-1.396810263E-1,-1.381855011E-1,9.914062500E0
9.929916840E-1,-1.348953694E-1,-1.166501045E-1,9.870991707E0
9.954367880E-1,-1.444666684E-1,-1.262213886E-1,9.902098656E0
9.978810590E-1,-1.372881979E-1,-1.429711580E-1,9.899705887E0
1.000324548E0,-1.348953694E-1,-1.429711580E-1,9.923633575E0
1.002768923E0,-1.420738399E-1,-1.381855011E-1,9.897313118E0
1.005214028E0,-1.540379524E-1,-1.405783296E-1,9.899705887E0
1.007658298E0,-1.420738399E-1,-1.333998591E-1,9.892526627E0
1.010101788E0,-1.396810263E-1,-1.310070455E-1,9.887741089E0
1.012546163E0,-1.444666684E-1,-1.357926875E-1,9.899705887E0
1.014991267E0,-1.253240854E-1,-1.381855011E-1,9.909276962E0
1.017435538E0,-1.372881979E-1,-1.528415531E-1,9.921240807E0
1.019879080E0,-1.396810263E-1,-1.310070455E-1,9.906884193E0
1.022323455E0,-1.420738399E-1,-1.286142170E-1,9.894919395E0
1.024768559E0,-1.707877219E-1,-1.333998591E-1,9.892526627E0
1.027212830E0,-1.420738399E-1,-1.429711580E-1,9.894919395E0
1.029656319E0,-1.133599728E-1,-1.528415531E-1,9.897313118E0
1.032100694E0,-1.277169138E-1,-1.333998591E-1,9.878170013E0
1.034545798E0,-1.444666684E-1,-1.310070455E-1,9.897313118E0
1.036990069E0,-1.540379524E-1,-1.333998591E-1,9.909276962E0
1.039433611E0,-1.372881979E-1,-1.381855011E-1,9.897313118E0
1.041877882E0,-1.468594968E-1,-1.262213886E-1,9.878170013E0
1.044323038E0,-1.612164229E-1,-1.357926875E-1,9.890133858E0
1.046767309E0,-1.301097274E-1,-1.357926875E-1,9.892526627E0
1.049210850E0,-1.348953694E-1,-1.405783296E-1,9.904491425E0
1.051655225E0,-1.468594968E-1,-1.333998591E-1,9.897313118E0
1.054100330E0,-1.444666684E-1,-1.238285750E-1,9.890133858E0
1.056544600E0,-1.516451389E-1,-1.381855011E-1,9.904491425E0
1.058988090E0,-1.205384433E-1,-1.480558962E-1,9.887741089E0
1.061432465E0,-1.253240854E-1,-1.429711580E-1,9.902098656E0
1.063877569E0,-1.301097274E-1,-1.528415531E-1,9.875777245E0
1.066321840E0,-1.492523104E-1,-1.453639716E-1,9.885348320E0
1.068765330E0,-1.205384433E-1,-1.405783296E-1,9.885348320E0
1.071209705E0,-1.253240854E-1,-1.310070455E-1,9.873384476E0
1.073654809E0,-1.372881979E-1,-1.286142170E-1,9.885348320E0
1.076099080E0,-1.516451389E-1,-1.453639716E-1,9.894919395E0
1.078542621E0,-1.372881979E-1,-1.310070455E-1,9.894919395E0
1.080986996E0,-1.516451389E-1,-1.310070455E-1,9.887741089E0
1.083432100E0,-1.468594968E-1,-1.504487246E-1,9.878170013E0
1.085876319E0,-1.540379524E-1,-1.357926875E-1,9.897313118E0
1.088319861E0,-1.229312643E-1,-1.190429255E-1,9.880562782E0
1.090764236E0,-1.540379524E-1,-1.310070455E-1,9.885348320E0
1.093209340E0,-1.372881979E-1,-1.333998591E-1,9.904491425E0
1.095653611E0,-1.516451389E-1,-1.528415531E-1,9.894919395E0
1.098097100E0,-1.444666684E-1,-1.262213886E-1,9.892526627E0
1.100541475E0,-1.372881979E-1,-1.357926875E-1,9.885348320E0
1.102986580E0,-1.420738399E-1,-1.504487246E-1,9.890133858E0
1.105430850E0,-1.396810263E-1,-1.453639716E-1,9.902098656E0
1.107874392E0,-1.468594968E-1,-1.310070455E-1,9.899705887E0
1.110318663E0,-1.277169138E-1,-1.286142170E-1,9.892526627E0
1.112763871E0,-1.205384433E-1,-1.381855011E-1,9.878170013E0
1.115208090E0,-1.540379524E-1,-1.262213886E-1,9.885348320E0
1.117651632E0,-1.133599728E-1,-1.480558962E-1,9.890133858E0
1.120096007E0,-1.348953694E-1,-1.453639716E-1,9.899705887E0
1.122541111E0,-1.372881979E-1,-1.262213886E-1,9.894919395E0
1.124985382E0,-1.540379524E-1,-1.310070455E-1,9.873384476E0
1.127428871E0,-1.564307809E-1,-1.381855011E-1,9.904491425E0
1.129873246E0,-1.540379524E-1,-1.453639716E-1,9.882955551E0
1.132318350E0,-1.588236094E-1,-1.405783296E-1,9.885348320E0
1.134762621E0,-1.301097274E-1,-1.333998591E-1,9.914062500E0
1.137206163E0,-1.420738399E-1,-1.357926875E-1,9.899705887E0
1.139650434E0,-1.444666684E-1,-1.480558962E-1,9.899705887E0
1.142095642E0,-1.540379524E-1,-1.480558962E-1,9.894919395E0
1.144539861E0,-1.468594968E-1,-1.405783296E-1,9.897313118E0
1.146983403E0,-1.420738399E-1,-1.357926875E-1,9.882955551E0
1.149427778E0,-1.325025558E-1,-1.405783296E-1,9.909276962E0
1.151872882E0,-1.564307809E-1,-1.381855011E-1,9.885348320E0
1.154317153E0,-1.444666684E-1,-1.381855011E-1,9.892526627E0
1.156760642E0,-1.420738399E-1,-1.310070455E-1,9.873384476E0
1.159205017E0,-1.396810263E-1,-1.480558962E-1,9.894919395E0
1.161650121E0,-1.325025558E-1,-1.552343667E-1,9.894919395E0
1.164094392E0,-1.348953694E-1,-1.504487246E-1,9.899705887E0
1.166537934E0,-1.348953694E-1,-1.453639716E-1,9.890133858E0
1.168982205E0,-1.396810263E-1,-1.429711580E-1,9.897313118E0
1.171427361E0,-1.420738399E-1,-1.357926875E-1,9.899705887E0
1.173871632E0,-1.396810263E-1,-1.576271951E-1,9.892526627E0
1.176315173E0,-1.253240854E-1,-1.576271951E-1,9.885348320E0
1.178759548E0,-1.492523104E-1,-1.286142170E-1,9.870991707E0
1.181204653E0,-1.444666684E-1,-1.381855011E-1,9.894919395E0
1.183648923E0,-1.372881979E-1,-1.405783296E-1,9.890133858E0
1.186092413E0,-1.396810263E-1,-1.381855011E-1,9.875777245E0
1.188536788E0,-1.396810263E-1,-1.381855011E-1,9.897313118E0
1.190981892E0,-1.372881979E-1,-1.238285750E-1,9.890133858E0
1.193426163E0,-1.229312643E-1,-1.357926875E-1,9.885348320E0
1.195869705E0,-1.396810263E-1,-1.429711580E-1,9.890133858E0
1.198313975E0,-1.325025558E-1,-1.333998591E-1,9.894919395E0
1.200759184E0,-1.444666684E-1,-1.333998591E-1,9.882955551E0
1.203203403E0,-1.492523104E-1,-1.190429255E-1,9.904491425E0
1.205646944E0,-1.444666684E-1,-1.480558962E-1,9.899705887E0
1.208091319E0,-1.253240854E-1,-1.310070455E-1,9.902098656E0
1.210536423E0,-1.277169138E-1,-1.453639716E-1,9.899705887E0
1.212980694E0,-1.348953694E-1,-1.528415531E-1,9.906884193E0
1.215424184E0,-1.396810263E-1,-1.429711580E-1,9.885348320E0
1.217868559E0,-1.540379524E-1,-1.357926875E-1,9.882955551E0
1.220313663E0,-1.516451389E-1,-1.480558962E-1,9.894919395E0
1.222757934E0,-1.492523104E-1,-1.504487246E-1,9.875777245E0
1.225201423E0,-1.372881979E-1,-1.504487246E-1,9.875777245E0
1.227645798E0,-1.468594968E-1,-1.333998591E-1,9.897313118E0
1.230090903E0,-1.253240854E-1,-1.357926875E-1,9.892526627E0
1.232535173E0,-1.301097274E-1,-1.405783296E-1,9.902098656E0
1.234978715E0,-1.516451389E-1,-1.453639716E-1,9.902098656E0
1.237423090E0,-1.420738399E-1,-1.262213886E-1,9.894919395E0
1.239868194E0,-1.660020649E-1,-1.381855011E-1,9.909276962E0
1.242312413E0,-1.516451389E-1,-1.453639716E-1,9.906884193E0
1.244755955E0,-1.468594968E-1,-1.357926875E-1,9.897313118E0
1.247200330E0,-1.277169138E-1,-1.310070455E-1,9.880562782E0
1.249645434E0,-1.348953694E-1,-1.333998591E-1,9.911669731E0
1.252089705E0,-1.636092514E-1,-1.238285750E-1,9.892526627E0
1.254533194E0,-1.444666684E-1,-1.528415531E-1,9.894919395E0
1.256977569E0,-1.516451389E-1,-1.357926875E-1,9.892526627E0
1.259422673E0,-1.420738399E-1,-1.429711580E-1,9.892526627E0
1.261866944E0,-1.444666684E-1,-1.528415531E-1,9.890133858E0
1.264310486E0,-1.325025558E-1,-1.405783296E-1,9.885348320E0
1.266754861E0,-1.301097274E-1,-1.238285750E-1,9.870991707E0
1.269199965E0,-1.468594968E-1,-1.333998591E-1,9.902098656E0
1.271644184E0,-1.636092514E-1,-1.286142170E-1,9.899705887E0
1.274087725E0,-1.420738399E-1,-1.381855011E-1,9.887741089E0
1.276532100E0,-1.301097274E-1,-1.333998591E-1,9.899705887E0
1.278977205E0,-1.325025558E-1,-1.453639716E-1,9.926026344E0
1.281421475E0,-1.420738399E-1,-1.453639716E-1,9.906884193E0
1.283864965E0,-1.588236094E-1,-1.405783296E-1,9.894919395E0
1.286309340E0,-1.420738399E-1,-1.142572835E-1,9.902098656E0
1.288754444E0,-1.468594968E-1,-1.214357466E-1,9.892526627E0
1.291198715E0,-1.277169138E-1,-1.552343667E-1,9.892526627E0
1.293642257E0,-1.301097274E-1,-1.381855011E-1,9.878170013E0
1.296086528E0,-1.588236094E-1,-1.286142170E-1,9.878170013E0
1.298531736E0,-1.564307809E-1,-1.214357466E-1,9.897313118E0
1.300975955E0,-1.396810263E-1,-1.214357466E-1,9.890133858E0
1.303419496E0,-1.540379524E-1,-1.357926875E-1,9.885348320E0
1.305863871E0,-1.540379524E-1,-1.480558962E-1,9.904491425E0
1.308308975E0,-1.564307809E-1,-1.333998591E-1,9.904491425E0
1.310753246E0,-1.564307809E-1,-1.357926875E-1,9.899705887E0
1.313196736E0,-1.420738399E-1,-1.405783296E-1,9.897313118E0
1.315641111E0,-1.372881979E-1,-1.480558962E-1,9.904491425E0
1.318086215E0,-1.492523104E-1,-1.357926875E-1,9.897313118E0
1.320530486E0,-1.420738399E-1,-1.333998591E-1,9.899705887E0
1.322974028E0,-1.540379524E-1,-1.262213886E-1,9.909276962E0
1.325418298E0,-1.229312643E-1,-1.381855011E-1,9.904491425E0
1.327863455E0,-1.301097274E-1,-1.190429255E-1,9.894919395E0
1.330307725E0,-1.348953694E-1,-1.453639716E-1,9.861420631E0
1.332751267E0,-1.372881979E-1,-1.453639716E-1,9.887741089E0
1.335195642E0,-1.468594968E-1,-1.357926875E-1,9.887741089E0
1.337640746E0,-1.468594968E-1,-1.429711580E-1,9.873384476E0
1.340085017E0,-1.301097274E-1,-1.405783296E-1,9.906884193E0
1.342528507E0,-1.301097274E-1,-1.381855011E-1,9.909276962E0
1.344972882E0,-1.420738399E-1,-1.310070455E-1,9.887741089E0
1.347417986E0,-1.372881979E-1,-1.333998591E-1,9.904491425E0
1.349862257E0,-1.468594968E-1,-1.405783296E-1,9.870991707E0
1.352305746E0,-1.372881979E-1,-1.480558962E-1,9.897313118E0
1.354750121E0,-1.516451389E-1,-1.576271951E-1,9.885348320E0
1.357195225E0,-1.468594968E-1,-1.381855011E-1,9.882955551E0
1.359639496E0,-1.253240854E-1,-1.381855011E-1,9.890133858E0
1.362083038E0,-1.372881979E-1,-1.405783296E-1,9.885348320E0
1.364527413E0,-1.588236094E-1,-1.504487246E-1,9.870991707E0
1.366972517E0,-1.420738399E-1,-1.429711580E-1,9.873384476E0
1.369416736E0,-1.516451389E-1,-1.504487246E-1,9.892526627E0
1.371860278E0,-1.588236094E-1,-1.381855011E-1,9.894919395E0
1.374304653E0,-1.420738399E-1,-1.262213886E-1,9.880562782E0
1.376749757E0,-1.420738399E-1,-1.190429255E-1,9.878170013E0
1.379194028E0,-1.588236094E-1,-1.405783296E-1,9.897313118E0
1.381637517E0,-1.444666684E-1,-1.453639716E-1,9.882955551E0
1.384081892E0,-1.564307809E-1,-1.600200087E-1,9.897313118E0
1.386526996E0,-1.325025558E-1,-1.333998591E-1,9.875777245E0
1.388971267E0,-1.229312643E-1,-1.310070455E-1,9.892526627E0
1.391414809E0,-1.540379524E-1,-1.310070455E-1,9.885348320E0
1.393859080E0,-1.492523104E-1,-1.504487246E-1,9.892526627E0
1.396304236E0,-1.325025558E-1,-1.310070455E-1,9.902098656E0
1.398748507E0,-1.444666684E-1,-1.381855011E-1,9.902098656E0
1.401192048E0,-1.540379524E-1,-1.405783296E-1,9.892526627E0
1.403636423E0,-1.444666684E-1,-1.333998591E-1,9.894919395E0
1.406081528E0,-1.516451389E-1,-1.286142170E-1,9.902098656E0
1.408525798E0,-1.325025558E-1,-1.142572835E-1,9.892526627E0
1.410969288E0,-1.348953694E-1,-1.381855011E-1,9.885348320E0
1.413413663E0,-1.253240854E-1,-1.238285750E-1,9.878170013E0
1.415858767E0,-1.372881979E-1,-1.238285750E-1,9.882955551E0
1.418303038E0,-1.396810263E-1,-1.310070455E-1,9.887741089E0
1.420746580E0,-1.492523104E-1,-1.504487246E-1,9.904491425E0
1.423190850E0,-1.372881979E-1,-1.528415531E-1,9.887741089E0
1.425636007E0,-1.420738399E-1,-1.600200087E-1,9.894919395E0
1.428080278E0,-1.277169138E-1,-1.310070455E-1,9.885348320E0
1.430523819E0,-1.372881979E-1,-1.262213886E-1,9.880562782E0
1.432968194E0,-1.325025558E-1,-1.357926875E-1,9.897313118E0
1.435413298E0,-1.444666684E-1,-1.429711580E-1,9.909276962E0
1.437857517E0,-1.444666684E-1,-1.429711580E-1,9.892526627E0
1.440301059E0,-1.372881979E-1,-1.118644550E-1,9.904491425E0
1.442745434E0,-1.468594968E-1,-1.381855011E-1,9.894919395E0
1.445190538E0,-1.372881979E-1,-1.286142170E-1,9.887741089E0
1.447634809E0,-1.492523104E-1,-1.405783296E-1,9.899705887E0
1.450078298E0,-1.564307809E-1,-1.310070455E-1,9.911669731E0
1.452522673E0,-1.372881979E-1,-1.357926875E-1,9.861420631E0
1.454967778E0,-1.444666684E-1,-1.552343667E-1,9.892526627E0
1.457412048E0,-1.492523104E-1,-1.600200087E-1,9.904491425E0
1.459855590E0,-1.564307809E-1,-1.624128371E-1,9.890133858E0
1.462299965E0,-1.420738399E-1,-1.453639716E-1,9.880562782E0
1.464745069E0,-1.588236094E-1,-1.552343667E-1,9.890133858E0
1.467189288E0,-1.492523104E-1,-1.480558962E-1,9.890133858E0
1.469632830E0,-1.372881979E-1,-1.310070455E-1,9.911669731E0
1.472077205E0,-1.253240854E-1,-1.333998591E-1,9.911669731E0
1.474522309E0,-1.229312643E-1,-1.286142170E-1,9.894919395E0
1.476966580E0,-1.540379524E-1,-1.142572835E-1,9.894919395E0
1.479410069E0,-1.564307809E-1,-1.429711580E-1,9.890133858E0
1.481854444E0,-1.396810263E-1,-1.286142170E-1,9.902098656E0
1.484299548E0,-1.516451389E-1,-1.094716340E-1,9.904491425E0
1.486743819E0,-1.396810263E-1,-1.405783296E-1,9.897313118E0
1.489187361E0,-1.229312643E-1,-1.552343667E-1,9.916455269E0
1.491631632E0,-1.444666684E-1,-1.405783296E-1,9.880562782E0
1.494076788E0,-1.396810263E-1,-1.142572835E-1,9.882955551E0
1.496521059E0,-1.420738399E-1,-1.310070455E-1,9.885348320E0
1.498964600E0,-1.420738399E-1,-1.286142170E-1,9.911669731E0
1.501408975E0,-1.492523104E-1,-1.381855011E-1,9.885348320E0
1.503854080E0,-1.492523104E-1,-1.262213886E-1,9.882955551E0
1.506298350E0,-1.468594968E-1,-1.142572835E-1,9.885348320E0
1.508741840E0,-1.444666684E-1,-1.357926875E-1,9.885348320E0
1.511186215E0,-1.468594968E-1,-1.310070455E-1,9.911669731E0
1.513631319E0,-1.420738399E-1,-1.262213886E-1,9.892526627E0
1.516075590E0,-1.468594968E-1,-1.504487246E-1,9.909276962E0
1.518519080E0,-1.468594968E-1,-1.357926875E-1,9.892526627E0
1.520963455E0,-1.468594968E-1,-1.333998591E-1,9.897313118E0
1.523408559E0,-1.396810263E-1,-1.262213886E-1,9.885348320E0
1.525852830E0,-1.372881979E-1,-1.357926875E-1,9.863813400E0
1.528296371E0,-1.325025558E-1,-1.286142170E-1,9.890133858E0
1.530740746E0,-1.301097274E-1,-1.576271951E-1,9.866206169E0
1.533185798E0,-1.660020649E-1,-1.262213886E-1,9.870991707E0
1.535630069E0,-1.492523104E-1,-1.262213886E-1,9.909276962E0
1.538073611E0,-1.660020649E-1,-1.286142170E-1,9.880562782E0
1.540517986E0,-1.444666684E-1,-1.357926875E-1,9.873384476E0
1.542963090E0,-1.133599728E-1,-1.429711580E-1,9.878170013E0
1.545407361E0,-1.468594968E-1,-1.480558962E-1,9.916455269E0
1.547850850E0,-1.325025558E-1,-1.357926875E-1,9.916455269E0
1.550295225E0,-1.348953694E-1,-1.238285750E-1,9.890133858E0
1.552740330E0,-1.396810263E-1,-1.405783296E-1,9.892526627E0
1.555184600E0,-1.516451389E-1,-1.286142170E-1,9.887741089E0
1.557628142E0,-1.468594968E-1,-1.405783296E-1,9.894919395E0
1.560072413E0,-1.444666684E-1,-1.357926875E-1,9.894919395E0
1.562517569E0,-1.564307809E-1,-1.429711580E-1,9.875777245E0
1.564961840E0,-1.444666684E-1,-1.310070455E-1,9.894919395E0
1.567405382E0,-1.277169138E-1,-1.453639716E-1,9.882955551E0
1.569849757E0,-1.420738399E-1,-1.576271951E-1,9.875777245E0
1.572294861E0,-1.348953694E-1,-1.429711580E-1,9.882955551E0
1.574739132E0,-1.372881979E-1,-1.429711580E-1,9.885348320E0
1.577182621E0,-1.492523104E-1,-1.405783296E-1,9.885348320E0
1.579626996E0,-1.325025558E-1,-1.333998591E-1,9.885348320E0
1.582072100E0,-1.348953694E-1,-1.624128371E-1,9.894919395E0
1.584516371E0,-1.420738399E-1,-1.357926875E-1,9.914062500E0
1.586959861E0,-1.301097274E-1,-1.504487246E-1,9.916455269E0
1.589404236E0,-1.540379524E-1,-1.381855011E-1,9.890133858E0
1.591849340E0,-1.707877219E-1,-1.310070455E-1,9.875777245E0
1.594293611E0,-1.444666684E-1,-1.286142170E-1,9.897313118E0
1.596737153E0,-1.301097274E-1,-1.381855011E-1,9.897313118E0
1.599181423E0,-1.420738399E-1,-1.286142170E-1,9.897313118E0
1.601626632E0,-1.444666684E-1,-1.262213886E-1,9.892526627E0
1.604070850E0,-1.444666684E-1,-1.118644550E-1,9.892526627E0
1.606514392E0,-1.588236094E-1,-1.333998591E-1,9.899705887E0
1.608958767E0,-1.325025558E-1,-1.118644550E-1,9.923633575E0
1.611403871E0,-1.492523104E-1,-1.333998591E-1,9.911669731E0
1.613848142E0,-1.420738399E-1,-1.453639716E-1,9.880562782E0
1.616291632E0,-1.181456149E-1,-1.429711580E-1,9.899705887E0
1.618736007E0,-1.396810263E-1,-1.357926875E-1,9.892526627E0
1.621181111E0,-1.516451389E-1,-1.262213886E-1,9.887741089E0
1.623625382E0,-1.492523104E-1,-1.310070455E-1,9.878170013E0
1.626068871E0,-1.492523104E-1,-1.453639716E-1,9.892526627E0
1.628513246E0,-1.372881979E-1,-1.528415531E-1,9.890133858E0
1.630958350E0,-1.420738399E-1,-1.357926875E-1,9.899705887E0
1.633402621E0,-1.564307809E-1,-1.238285750E-1,9.890133858E0
1.635846163E0,-1.468594968E-1,-1.429711580E-1,9.880562782E0
1.638290538E0,-1.372881979E-1,-1.381855011E-1,9.887741089E0
1.640735642E0,-1.396810263E-1,-1.381855011E-1,9.885348320E0
1.643179861E0,-1.468594968E-1,-1.576271951E-1,9.885348320E0
1.645623403E0,-1.277169138E-1,-1.310070455E-1,9.880562782E0
1.648067778E0,-1.205384433E-1,-1.094716340E-1,9.914062500E0
1.650512882E0,-1.492523104E-1,-1.381855011E-1,9.887741089E0
1.652957153E0,-1.468594968E-1,-1.528415531E-1,9.892526627E0
1.655400642E0,-1.420738399E-1,-1.262213886E-1,9.892526627E0
1.657845017E0,-1.396810263E-1,-1.286142170E-1,9.902098656E0
1.660290121E0,-1.444666684E-1,-1.453639716E-1,9.892526627E0
1.662734392E0,-1.468594968E-1,-1.357926875E-1,9.885348320E0
1.665177882E0,-1.229312643E-1,-1.480558962E-1,9.914062500E0
1.667622257E0,-1.564307809E-1,-1.453639716E-1,9.887741089E0
1.670067361E0,-1.301097274E-1,-1.357926875E-1,9.878170013E0
1.672511632E0,-1.229312643E-1,-1.453639716E-1,9.878170013E0
1.674955173E0,-1.133599728E-1,-1.190429255E-1,9.887741089E0
1.677399548E0,-1.301097274E-1,-1.262213886E-1,9.866206169E0
1.679844653E0,-1.420738399E-1,-1.405783296E-1,9.875777245E0
1.682288923E0,-1.277169138E-1,-1.333998591E-1,9.890133858E0
1.684732413E0,-1.396810263E-1,-1.286142170E-1,9.902098656E0
1.687176788E0,-1.325025558E-1,-1.552343667E-1,9.909276962E0
1.689621892E0,-1.396810263E-1,-1.453639716E-1,9.904491425E0
1.692066163E0,-1.372881979E-1,-1.405783296E-1,9.885348320E0
1.694509653E0,-1.229312643E-1,-1.357926875E-1,9.909276962E0
1.696954028E0,-1.277169138E-1,-1.552343667E-1,9.892526627E0
1.699399132E0,-1.420738399E-1,-1.743769497E-1,9.904491425E0
1.701843403E0,-1.588236094E-1,-1.528415531E-1,9.899705887E0
1.704286944E0,-1.420738399E-1,-1.429711580E-1,9.882955551E0
1.706731215E0,-1.372881979E-1,-1.238285750E-1,9.878170013E0
1.709176371E0,-1.564307809E-1,-1.405783296E-1,9.902098656E0
1.711620642E0,-1.348953694E-1,-1.480558962E-1,9.885348320E0
1.714064184E0,-1.683948934E-1,-1.333998591E-1,9.887741089E0
1.716508559E0,-1.492523104E-1,-1.333998591E-1,9.878170013E0
1.718953663E0,-1.348953694E-1,-1.310070455E-1,9.899705887E0
1.721397934E0,-1.372881979E-1,-1.429711580E-1,9.897313118E0
1.723841423E0,-1.468594968E-1,-1.480558962E-1,9.875777245E0
1.726285798E0,-1.348953694E-1,-1.405783296E-1,9.894919395E0
1.728730903E0,-1.612164229E-1,-1.429711580E-1,9.887741089E0
1.731175173E0,-1.325025558E-1,-1.480558962E-1,9.899705887E0
1.733618663E0,-1.516451389E-1,-1.453639716E-1,9.882955551E0
1.736063038E0,-1.372881979E-1,-1.504487246E-1,9.897313118E0
1.738508142E0,-1.612164229E-1,-1.262213886E-1,9.914062500E0
1.740952413E0,-1.540379524E-1,-1.357926875E-1,9.906884193E0
1.743395955E0,-1.444666684E-1,-1.333998591E-1,9.909276962E0
1.745840225E0,-1.444666684E-1,-1.333998591E-1,9.897313118E0
1.748285434E0,-1.492523104E-1,-1.381855011E-1,9.887741089E0
1.750729653E0,-1.420738399E-1,-1.286142170E-1,9.873384476E0
1.753173194E0,-1.444666684E-1,-1.381855011E-1,9.868598938E0
1.755617569E0,-1.444666684E-1,-1.333998591E-1,9.909276962E0
1.758062673E0,-1.301097274E-1,-1.357926875E-1,9.878170013E0
1.760506944E0,-1.468594968E-1,-1.262213886E-1,9.897313118E0
1.762950434E0,-1.564307809E-1,-1.333998591E-1,9.887741089E0
1.765394809E0,-1.612164229E-1,-1.480558962E-1,9.890133858E0
1.767839913E0,-1.372881979E-1,-1.405783296E-1,9.880562782E0
1.770284184E0,-1.301097274E-1,-1.504487246E-1,9.911669731E0
1.772727673E0,-1.301097274E-1,-1.405783296E-1,9.894919395E0
1.775172048E0,-1.468594968E-1,-1.429711580E-1,9.909276962E0
1.777617153E0,-1.277169138E-1,-1.286142170E-1,9.921240807E0
1.780061423E0,-1.277169138E-1,-1.453639716E-1,9.892526627E0
1.782504965E0,-1.348953694E-1,-1.333998591E-1,9.885348320E0
1.784949236E0,-1.348953694E-1,-1.381855011E-1,9.878170013E0
1.787394392E0,-1.396810263E-1,-1.357926875E-1,9.882955551E0
1.789838663E0,-1.348953694E-1,-1.238285750E-1,9.894919395E0
1.792282205E0,-1.420738399E-1,-1.238285750E-1,9.892526627E0
1.794726580E0,-1.420738399E-1,-1.262213886E-1,9.911669731E0
1.797171684E0,-1.516451389E-1,-1.429711580E-1,9.878170013E0
1.799615955E0,-1.325025558E-1,-1.528415531E-1,9.899705887E0
1.802059444E0,-1.396810263E-1,-1.480558962E-1,9.902098656E0
1.804503819E0,-1.444666684E-1,-1.480558962E-1,9.885348320E0
1.806948923E0,-1.277169138E-1,-1.504487246E-1,9.887741089E0
1.809393194E0,-1.301097274E-1,-1.381855011E-1,9.890133858E0
1.811836684E0,-1.516451389E-1,-1.576271951E-1,9.897313118E0
1.814281059E0,-1.588236094E-1,-1.576271951E-1,9.892526627E0
1.816726163E0,-1.564307809E-1,-1.405783296E-1,9.863813400E0
1.819170434E0,-1.468594968E-1,-1.429711580E-1,9.904491425E0
1.821613975E0,-1.396810263E-1,-1.453639716E-1,9.899705887E0
1.824058246E0,-1.612164229E-1,-1.405783296E-1,9.914062500E0
1.826503455E0,-1.396810263E-1,-1.286142170E-1,9.902098656E0
1.828947673E0,-1.516451389E-1,-1.453639716E-1,9.892526627E0
1.831391215E0,-1.348953694E-1,-1.453639716E-1,9.914062500E0
1.833835590E0,-1.468594968E-1,-1.405783296E-1,9.892526627E0
1.836280694E0,-1.540379524E-1,-1.381855011E-1,9.882955551E0
1.838724965E0,-1.396810263E-1,-1.381855011E-1,9.882955551E0
1.841168455E0,-1.396810263E-1,-1.214357466E-1,9.897313118E0
1.843612830E0,-1.492523104E-1,-1.310070455E-1,9.885348320E0
1.846057934E0,-1.372881979E-1,-1.480558962E-1,9.880562782E0
1.848502205E0,-1.181456149E-1,-1.405783296E-1,9.894919395E0
1.850945694E0,-1.444666684E-1,-1.552343667E-1,9.887741089E0
1.853390069E0,-1.492523104E-1,-1.333998591E-1,9.887741089E0
1.855835173E0,-1.564307809E-1,-1.357926875E-1,9.904491425E0
1.858279444E0,-1.492523104E-1,-1.381855011E-1,9.890133858E0
1.860722986E0,-1.492523104E-1,-1.429711580E-1,9.885348320E0
1.863167257E0,-1.277169138E-1,-1.576271951E-1,9.863813400E0
1.865612465E0,-1.301097274E-1,-1.333998591E-1,9.878170013E0
1.868056684E0,-1.325025558E-1,-1.286142170E-1,9.878170013E0
1.870500225E0,-1.372881979E-1,-1.405783296E-1,9.863813400E0
1.872944600E0,-1.564307809E-1,-1.480558962E-1,9.866206169E0
1.875389705E0,-1.540379524E-1,-1.381855011E-1,9.880562782E0
1.877833975E0,-1.372881979E-1,-1.429711580E-1,9.904491425E0
1.880277465E0,-1.516451389E-1,-1.453639716E-1,9.916455269E0
1.882721840E0,-1.444666684E-1,-1.552343667E-1,9.887741089E0
1.885166944E0,-1.492523104E-1,-1.286142170E-1,9.897313118E0
1.887611215E0,-1.348953694E-1,-1.262213886E-1,9.921240807E0
1.890054705E0,-1.396810263E-1,-1.166501045E-1,9.918848038E0
1.892499080E0,-1.420738399E-1,-1.286142170E-1,9.914062500E0
1.894944184E0,-1.181456149E-1,-1.357926875E-1,9.902098656E0
1.897388455E0,-1.636092514E-1,-1.381855011E-1,9.880562782E0
1.899831996E0,-1.420738399E-1,-1.381855011E-1,9.880562782E0
1.902276371E0,-1.420738399E-1,-1.405783296E-1,9.885348320E0
1.904721475E0,-1.516451389E-1,-1.405783296E-1,9.899705887E0
1.907165694E0,-1.325025558E-1,-1.190429255E-1,9.863813400E0
1.909609236E0,-1.444666684E-1,-1.429711580E-1,9.878170013E0
1.912053611E0,-1.372881979E-1,-1.453639716E-1,9.894919395E0
1.914498715E0,-1.348953694E-1,-1.286142170E-1,9.890133858E0
1.916942986E0,-1.516451389E-1,-1.405783296E-1,9.894919395E0
1.919386475E0,-1.396810263E-1,-1.310070455E-1,9.875777245E0
1.921830850E0,-1.325025558E-1,-1.214357466E-1,9.916455269E0
1.924275955E0,-1.325025558E-1,-1.357926875E-1,9.918848038E0
1.926720225E0,-1.492523104E-1,-1.357926875E-1,9.899705887E0
1.929163715E0,-1.516451389E-1,-1.381855011E-1,9.897313118E0
1.931608090E0,-1.420738399E-1,-1.429711580E-1,9.904491425E0
1.934053194E0,-1.444666684E-1,-1.405783296E-1,9.878170013E0
1.936497465E0,-1.348953694E-1,-1.381855011E-1,9.863813400E0
1.938941007E0,-1.468594968E-1,-1.429711580E-1,9.892526627E0
1.941385278E0,-1.612164229E-1,-1.405783296E-1,9.904491425E0
1.943830434E0,-1.396810263E-1,-1.381855011E-1,9.875777245E0
1.946274705E0,-1.492523104E-1,-1.333998591E-1,9.906884193E0
1.948718246E0,-1.205384433E-1,-1.357926875E-1,9.887741089E0
1.951162621E0,-1.420738399E-1,-1.576271951E-1,9.878170013E0
1.953607725E0,-1.325025558E-1,-1.429711580E-1,9.878170013E0
1.956051996E0,-1.612164229E-1,-1.504487246E-1,9.887741089E0
1.958495486E0,-1.277169138E-1,-1.480558962E-1,9.882955551E0
1.960939861E0,-1.205384433E-1,-1.357926875E-1,9.880562782E0
1.963384965E0,-1.396810263E-1,-1.381855011E-1,9.880562782E0
1.965829236E0,-1.636092514E-1,-1.528415531E-1,9.880562782E0
1.968272725E0,-1.564307809E-1,-1.552343667E-1,9.894919395E0
1.970717100E0,-1.277169138E-1,-1.357926875E-1,9.902098656E0
1.973162205E0,-1.540379524E-1,-1.480558962E-1,9.899705887E0
1.975606475E0,-1.444666684E-1,-1.453639716E-1,9.887741089E0
1.978050017E0,-1.564307809E-1,-1.453639716E-1,9.902098656E0
1.980494288E0,-1.588236094E-1,-1.286142170E-1,9.890133858E0
1.982939444E0,-1.277169138E-1,-1.453639716E-1,9.880562782E0
1.985383715E0,-1.325025558E-1,-1.405783296E-1,9.894919395E0
1.987827257E0,-1.492523104E-1,-1.429711580E-1,9.899705887E0
1.990271632E0,-1.301097274E-1,-1.357926875E-1,9.904491425E0
1.992716736E0,-1.229312643E-1,-1.552343667E-1,9.885348320E0
1.995160955E0,-1.181456149E-1,-1.333998591E-1,9.909276962E0
1.997604496E0,-1.301097274E-1,-1.310070455E-1,9.916455269E0
2.000048871E0,-1.468594968E-1,-1.357926875E-1,9.904491425E0
2.002493975E0,-1.492523104E-1,-1.381855011E-1,9.902098656E0
2.004938246E0,-1.516451389E-1,-1.453639716E-1,9.882955551E0
2.007381736E0,-1.731805354E-1,-1.310070455E-1,9.894919395E0
2.009826111E0,-1.492523104E-1,-1.405783296E-1,9.902098656E0
2.012271215E0,-1.348953694E-1,-1.504487246E-1,9.890133858E0
2.014715486E0,-1.420738399E-1,-1.429711580E-1,9.890133858E0
2.017158975E0,-1.492523104E-1,-1.166501045E-1,9.892526627E0
2.019603350E0,-1.420738399E-1,-1.480558962E-1,9.868598938E0
2.022048455E0,-1.444666684E-1,-1.333998591E-1,9.885348320E0
2.024492725E0,-1.396810263E-1,-1.286142170E-1,9.890133858E0
2.026936267E0,-1.372881979E-1,-1.381855011E-1,9.863813400E0
2.029380642E0,-1.420738399E-1,-1.286142170E-1,9.887741089E0
2.031825746E0,-1.444666684E-1,-1.142572835E-1,9.897313118E0
2.034269965E0,-1.420738399E-1,-1.429711580E-1,9.899705887E0
2.036713507E0,-1.396810263E-1,-1.480558962E-1,9.875777245E0
2.039157882E0,-1.492523104E-1,-1.333998591E-1,9.882955551E0
2.041602986E0,-1.253240854E-1,-1.453639716E-1,9.916455269E0
2.044047257E0,-1.253240854E-1,-1.357926875E-1,9.926026344E0
2.046490746E0,-1.325025558E-1,-1.357926875E-1,9.918848038E0
2.048935121E0,-1.253240854E-1,-1.405783296E-1,9.899705887E0
2.051380225E0,-1.253240854E-1,-1.357926875E-1,9.892526627E0
2.053824496E0,-1.564307809E-1,-1.286142170E-1,9.890133858E0
2.056267986E0,-1.396810263E-1,-1.381855011E-1,9.880562782E0
2.058712361E0,-1.372881979E-1,-1.381855011E-1,9.887741089E0
2.061157465E0,-1.372881979E-1,-1.453639716E-1,9.870991707E0
2.063601736E0,-1.420738399E-1,-1.286142170E-1,9.875777245E0
2.066045278E0,-1.277169138E-1,-1.333998591E-1,9.870991707E0
2.068489548E0,-1.396810263E-1,-1.480558962E-1,9.899705887E0
2.070934705E0,-1.564307809E-1,-1.429711580E-1,9.892526627E0
2.073378975E0,-1.396810263E-1,-1.504487246E-1,9.894919395E0
2.075822517E0,-1.492523104E-1,-1.453639716E-1,9.899705887E0
2.078266892E0,-1.348953694E-1,-1.381855011E-1,9.894919395E0
2.080711996E0,-1.372881979E-1,-1.405783296E-1,9.902098656E0
2.083156267E0,-1.468594968E-1,-1.333998591E-1,9.890133858E0
2.085599757E0,-1.516451389E-1,-1.453639716E-1,9.918848038E0
2.088044132E0,-1.396810263E-1,-1.552343667E-1,9.904491425E0
2.090489236E0,-1.588236094E-1,-1.648056656E-1,9.880562782E0
2.092933507E0,-1.420738399E-1,-1.333998591E-1,9.861420631E0
2.095376996E0,-1.564307809E-1,-1.453639716E-1,9.906884193E0
2.097821371E0,-1.588236094E-1,-1.190429255E-1,9.878170013E0
2.100266475E0,-1.444666684E-1,-1.480558962E-1,9.894919395E0
2.102710746E0,-1.396810263E-1,-1.262213886E-1,9.875777245E0
2.105154288E0,-1.277169138E-1,-1.214357466E-1,9.890133858E0
2.107598559E0,-1.444666684E-1,-1.238285750E-1,9.880562782E0
2.110043767E0,-1.420738399E-1,-1.381855011E-1,9.882955551E0
2.112487986E0,-1.420738399E-1,-1.453639716E-1,9.904491425E0
2.114931528E0,-1.372881979E-1,-1.480558962E-1,9.899705887E0
2.117375903E0,-1.468594968E-1,-1.381855011E-1,9.916455269E0
2.119821007E0,-1.301097274E-1,-1.310070455E-1,9.897313118E0
2.122265225E0,-1.588236094E-1,-1.429711580E-1,9.899705887E0
2.124708767E0,-1.348953694E-1,-1.504487246E-1,9.906884193E0
2.127153142E0,-1.468594968E-1,-1.238285750E-1,9.887741089E0
2.129598246E0,-1.420738399E-1,-1.214357466E-1,9.899705887E0
2.132042517E0,-1.492523104E-1,-1.480558962E-1,9.885348320E0
2.134486007E0,-1.253240854E-1,-1.357926875E-1,9.885348320E0
2.136930382E0,-1.348953694E-1,-1.453639716E-1,9.892526627E0
2.139375486E0,-1.372881979E-1,-1.357926875E-1,9.887741089E0
2.141819757E0,-1.444666684E-1,-1.453639716E-1,9.882955551E0
2.144263298E0,-1.372881979E-1,-1.357926875E-1,9.897313118E0
2.146707569E0,-1.325025558E-1,-1.453639716E-1,9.899705887E0
2.149152725E0,-1.301097274E-1,-1.333998591E-1,9.890133858E0
2.151596996E0,-1.588236094E-1,-1.357926875E-1,9.904491425E0
2.154040538E0,-1.396810263E-1,-1.333998591E-1,9.916455269E0
2.156484809E0,-1.540379524E-1,-1.333998591E-1,9.906884193E0
2.158930017E0,-1.540379524E-1,-1.381855011E-1,9.890133858E0
2.161374236E0,-1.348953694E-1,-1.453639716E-1,9.890133858E0
2.163817778E0,-1.325025558E-1,-1.504487246E-1,9.890133858E0
2.166262153E0,-1.612164229E-1,-1.405783296E-1,9.892526627E0
2.168707257E0,-1.396810263E-1,-1.166501045E-1,9.902098656E0
2.171151528E0,-1.468594968E-1,-1.381855011E-1,9.885348320E0
2.173595017E0,-1.420738399E-1,-1.381855011E-1,9.890133858E0
2.176039392E0,-1.444666684E-1,-1.142572835E-1,9.887741089E0
2.178484496E0,-1.396810263E-1,-1.333998591E-1,9.887741089E0
2.180928767E0,-1.540379524E-1,-1.429711580E-1,9.870991707E0
2.183372257E0,-1.492523104E-1,-1.429711580E-1,9.899705887E0
2.185816632E0,-1.420738399E-1,-1.262213886E-1,9.882955551E0
2.188261736E0,-1.253240854E-1,-1.429711580E-1,9.882955551E0
2.190706007E0,-1.492523104E-1,-1.381855011E-1,9.909276962E0
2.193149548E0,-1.492523104E-1,-1.429711580E-1,9.897313118E0
2.195593819E0,-1.372881979E-1,-1.405783296E-1,9.878170013E0
2.198038975E0,-1.253240854E-1,-1.405783296E-1,9.873384476E0
2.200483246E0,-1.612164229E-1,-1.504487246E-1,9.899705887E0
2.202926788E0,-1.444666684E-1,-1.333998591E-1,9.921240807E0
2.205371163E0,-1.348953694E-1,-1.166501045E-1,9.880562782E0
2.207816267E0,-1.325025558E-1,-1.310070455E-1,9.897313118E0
2.210260486E0,-1.325025558E-1,-1.357926875E-1,9.885348320E0
2.212704028E0,-1.444666684E-1,-1.429711580E-1,9.890133858E0
2.215148403E0,-1.468594968E-1,-1.405783296E-1,9.878170013E0
2.217593507E0,-1.205384433E-1,-1.429711580E-1,9.880562782E0
2.220037778E0,-1.325025558E-1,-1.357926875E-1,9.882955551E0
2.222481267E0,-1.612164229E-1,-1.333998591E-1,9.899705887E0
2.224925642E0,-1.444666684E-1,-1.381855011E-1,9.890133858E0
2.227370746E0,-1.516451389E-1,-1.600200087E-1,9.892526627E0
2.229815017E0,-1.301097274E-1,-1.286142170E-1,9.904491425E0
2.232258507E0,-1.468594968E-1,-1.333998591E-1,9.914062500E0
2.234702882E0,-1.540379524E-1,-1.357926875E-1,9.904491425E0
2.237147986E0,-1.444666684E-1,-1.480558962E-1,9.892526627E0
2.239592257E0,-1.348953694E-1,-1.429711580E-1,9.887741089E0
2.242035798E0,-1.372881979E-1,-1.333998591E-1,9.885348320E0
2.244480069E0,-1.468594968E-1,-1.405783296E-1,9.880562782E0
2.246925225E0,-1.588236094E-1,-1.333998591E-1,9.890133858E0
2.249369496E0,-1.468594968E-1,-1.480558962E-1,9.861420631E0
2.251813038E0,-1.492523104E-1,-1.429711580E-1,9.863813400E0
2.254257413E0,-1.660020649E-1,-1.190429255E-1,9.880562782E0
2.256702517E0,-1.253240854E-1,-1.600200087E-1,9.885348320E0
2.259146788E0,-1.636092514E-1,-1.357926875E-1,9.897313118E0
2.261590278E0,-1.492523104E-1,-1.405783296E-1,9.904491425E0
2.264034653E0,-1.492523104E-1,-1.504487246E-1,9.894919395E0
2.266479757E0,-1.420738399E-1,-1.480558962E-1,9.902098656E0
2.268924028E0,-1.444666684E-1,-1.333998591E-1,9.914062500E0
2.271367517E0,-1.444666684E-1,-1.405783296E-1,9.904491425E0
2.273811892E0,-1.516451389E-1,-1.405783296E-1,9.894919395E0
2.276256996E0,-1.444666684E-1,-1.381855011E-1,9.894919395E0
2.278701267E0,-1.444666684E-1,-1.214357466E-1,9.902098656E0
2.281144757E0,-1.468594968E-1,-1.504487246E-1,9.887741089E0
2.283589132E0,-1.372881979E-1,-1.333998591E-1,9.885348320E0
2.286034236E0,-1.396810263E-1,-1.429711580E-1,9.863813400E0
2.288478507E0,-1.348953694E-1,-1.576271951E-1,9.890133858E0
2.290922048E0,-1.277169138E-1,-1.453639716E-1,9.880562782E0
2.293366319E0,-1.540379524E-1,-1.333998591E-1,9.868598938E0
2.295811475E0,-1.396810263E-1,-1.504487246E-1,9.868598938E0
2.298255746E0,-1.540379524E-1,-1.357926875E-1,9.916455269E0
2.300699288E0,-1.444666684E-1,-1.357926875E-1,9.904491425E0
2.303143663E0,-1.348953694E-1,-1.333998591E-1,9.882955551E0
2.305588767E0,-1.253240854E-1,-1.214357466E-1,9.897313118E0
2.308033038E0,-1.492523104E-1,-1.381855011E-1,9.911669731E0
2.310476528E0,-1.444666684E-1,-1.286142170E-1,9.916455269E0
2.312920903E0,-1.468594968E-1,-1.310070455E-1,9.904491425E0
2.315366007E0,-1.253240854E-1,-1.381855011E-1,9.892526627E0
2.317810278E0,-1.372881979E-1,-1.310070455E-1,9.892526627E0
2.320253767E0,-1.492523104E-1,-1.310070455E-1,9.882955551E0
2.322698142E0,-1.468594968E-1,-1.381855011E-1,9.894919395E0
2.325143246E0,-1.636092514E-1,-1.238285750E-1,9.873384476E0
2.327587517E0,-1.516451389E-1,-1.453639716E-1,9.892526627E0
2.330031059E0,-1.109671518E-1,-1.333998591E-1,9.897313118E0
2.332475330E0,-1.372881979E-1,-1.333998591E-1,9.870991707E0
2.334920486E0,-1.348953694E-1,-1.333998591E-1,9.875777245E0
2.337364757E0,-1.468594968E-1,-1.190429255E-1,9.882955551E0
2.339808298E0,-1.492523104E-1,-1.357926875E-1,9.885348320E0
2.342252673E0,-1.420738399E-1,-1.286142170E-1,9.909276962E0
2.344697778E0,-1.372881979E-1,-1.238285750E-1,9.890133858E0
2.347141996E0,-1.516451389E-1,-1.310070455E-1,9.923633575E0
2.349585538E0,-1.516451389E-1,-1.333998591E-1,9.890133858E0
2.352029913E0,-1.588236094E-1,-1.381855011E-1,9.892526627E0
2.354475017E0,-1.229312643E-1,-1.576271951E-1,9.887741089E0
2.356919288E0,-1.372881979E-1,-1.429711580E-1,9.882955551E0
2.359362778E0,-1.396810263E-1,-1.286142170E-1,9.894919395E0
2.361807153E0,-1.396810263E-1,-1.381855011E-1,9.873384476E0
2.364252257E0,-1.540379524E-1,-1.357926875E-1,9.904491425E0
2.366696528E0,-1.420738399E-1,-1.333998591E-1,9.890133858E0
2.369140017E0,-1.516451389E-1,-1.381855011E-1,9.899705887E0
2.371584392E0,-1.444666684E-1,-1.381855011E-1,9.885348320E0
2.374029496E0,-1.253240854E-1,-1.381855011E-1,9.902098656E0
2.376473767E0,-1.468594968E-1,-1.310070455E-1,9.906884193E0
2.378917257E0,-1.396810263E-1,-1.405783296E-1,9.882955551E0
2.381361632E0,-1.444666684E-1,-1.333998591E-1,9.892526627E0
2.383806736E0,-1.588236094E-1,-1.381855011E-1,9.887741089E0
2.386251007E0,-1.492523104E-1,-1.504487246E-1,9.897313118E0
2.388694548E0,-1.396810263E-1,-1.504487246E-1,9.902098656E0
2.391138923E0,-1.301097274E-1,-1.310070455E-1,9.887741089E0
2.393583975E0,-1.564307809E-1,-1.381855011E-1,9.894919395E0
2.396028246E0,-1.540379524E-1,-1.286142170E-1,9.875777245E0
2.398471788E0,-1.540379524E-1,-1.648056656E-1,9.894919395E0
2.400916163E0,-1.492523104E-1,-1.333998591E-1,9.887741089E0
2.403361267E0,-1.540379524E-1,-1.453639716E-1,9.897313118E0
2.405805538E0,-1.301097274E-1,-1.381855011E-1,9.899705887E0
2.408249028E0,-1.444666684E-1,-1.333998591E-1,9.885348320E0
2.410693403E0,-1.301097274E-1,-1.286142170E-1,9.890133858E0
2.413138507E0,-1.420738399E-1,-1.381855011E-1,9.878170013E0
2.415582778E0,-1.588236094E-1,-1.262213886E-1,9.902098656E0
2.418026267E0,-1.492523104E-1,-1.429711580E-1,9.897313118E0
2.420470642E0,-1.420738399E-1,-1.480558962E-1,9.904491425E0
2.422915746E0,-1.372881979E-1,-1.381855011E-1,9.894919395E0
2.425360017E0,-1.420738399E-1,-1.405783296E-1,9.897313118E0
2.427803559E0,-1.372881979E-1,-1.381855011E-1,9.894919395E0
2.430247830E0,-1.444666684E-1,-1.381855011E-1,9.911669731E0
2.432692986E0,-1.277169138E-1,-1.238285750E-1,9.897313118E0
2.435137257E0,-1.301097274E-1,-1.357926875E-1,9.892526627E0
2.437580798E0,-1.492523104E-1,-1.238285750E-1,9.923633575E0
2.440025173E0,-1.325025558E-1,-1.310070455E-1,9.906884193E0
2.442470278E0,-1.348953694E-1,-1.480558962E-1,9.861420631E0
2.444914496E0,-1.348953694E-1,-1.429711580E-1,9.892526627E0
2.447358038E0,-1.253240854E-1,-1.504487246E-1,9.894919395E0
2.449802413E0,-1.468594968E-1,-1.429711580E-1,9.875777245E0
2.452247517E0,-1.277169138E-1,-1.429711580E-1,9.875777245E0
2.454691788E0,-1.444666684E-1,-1.333998591E-1,9.887741089E0
2.457135278E0,-1.420738399E-1,-1.333998591E-1,9.894919395E0
2.459579653E0,-1.396810263E-1,-1.480558962E-1,9.894919395E0
2.462024757E0,-1.492523104E-1,-1.453639716E-1,9.894919395E0
2.464469028E0,-1.444666684E-1,-1.504487246E-1,9.904491425E0
2.466912517E0,-1.277169138E-1,-1.504487246E-1,9.894919395E0
2.469356892E0,-1.420738399E-1,-1.480558962E-1,9.904491425E0
2.471801996E0,-1.516451389E-1,-1.405783296E-1,9.890133858E0
2.474246267E0,-1.420738399E-1,-1.310070455E-1,9.906884193E0
2.476689809E0,-1.540379524E-1,-1.310070455E-1,9.894919395E0
2.479134080E0,-1.277169138E-1,-1.286142170E-1,9.894919395E0
2.481579236E0,-1.612164229E-1,-1.333998591E-1,9.885348320E0
2.484023507E0,-1.683948934E-1,-1.504487246E-1,9.890133858E0
2.486467048E0,-1.325025558E-1,-1.381855011E-1,9.882955551E0
2.488911319E0,-1.564307809E-1,-1.453639716E-1,9.899705887E0
2.491356528E0,-1.492523104E-1,-1.190429255E-1,9.906884193E0
2.493800746E0,-1.253240854E-1,-1.310070455E-1,9.911669731E0
2.496244288E0,-1.516451389E-1,-1.238285750E-1,9.902098656E0
2.498688663E0,-1.325025558E-1,-1.453639716E-1,9.885348320E0
2.501133767E0,-1.516451389E-1,-1.381855011E-1,9.899705887E0
2.503578038E0,-1.396810263E-1,-1.142572835E-1,9.904491425E0
2.506021528E0,-1.277169138E-1,-1.262213886E-1,9.882955551E0
2.508465903E0,-1.372881979E-1,-1.286142170E-1,9.894919395E0
2.510911007E0,-1.277169138E-1,-1.333998591E-1,9.880562782E0
2.513355278E0,-1.396810263E-1,-1.381855011E-1,9.904491425E0
2.515798767E0,-1.420738399E-1,-1.286142170E-1,9.909276962E0
2.518243142E0,-1.277169138E-1,-1.262213886E-1,9.897313118E0
2.520688246E0,-1.588236094E-1,-1.504487246E-1,9.914062500E0
2.523132517E0,-1.444666684E-1,-1.504487246E-1,9.902098656E0
2.525576007E0,-1.396810263E-1,-1.381855011E-1,9.909276962E0
2.528020382E0,-1.396810263E-1,-1.333998591E-1,9.885348320E0
2.530465486E0,-1.301097274E-1,-1.405783296E-1,9.885348320E0
2.532909757E0,-1.372881979E-1,-1.310070455E-1,9.902098656E0
2.535353298E0,-1.348953694E-1,-1.238285750E-1,9.861420631E0
2.537797569E0,-1.253240854E-1,-1.528415531E-1,9.880562782E0
2.540242778E0,-1.253240854E-1,-1.405783296E-1,9.880562782E0
2.542686996E0,-1.372881979E-1,-1.429711580E-1,9.890133858E0
2.545130538E0,-1.444666684E-1,-1.480558962E-1,9.885348320E0
2.547574913E0,-1.492523104E-1,-1.333998591E-1,9.906884193E0
2.550020017E0,-1.516451389E-1,-1.624128371E-1,9.887741089E0
2.552464236E0,-1.348953694E-1,-1.286142170E-1,9.902098656E0
2.554907778E0,-1.348953694E-1,-1.504487246E-1,9.878170013E0
2.557352153E0,-1.492523104E-1,-1.333998591E-1,9.890133858E0
2.559797257E0,-1.468594968E-1,-1.453639716E-1,9.930811882E0
2.562241528E0,-1.444666684E-1,-1.286142170E-1,9.902098656E0
2.564685017E0,-1.612164229E-1,-1.528415531E-1,9.870991707E0
2.567129392E0,-1.348953694E-1,-1.405783296E-1,9.894919395E0
2.569574496E0,-1.564307809E-1,-1.381855011E-1,9.892526627E0
2.572018767E0,-1.540379524E-1,-1.357926875E-1,9.861420631E0
2.574462257E0,-1.372881979E-1,-1.405783296E-1,9.892526627E0
2.576906632E0,-1.588236094E-1,-1.333998591E-1,9.885348320E0
2.579351736E0,-1.348953694E-1,-1.310070455E-1,9.890133858E0
2.581796007E0,-1.420738399E-1,-1.046859920E-1,9.899705887E0
2.584239548E0,-1.492523104E-1,-1.405783296E-1,9.887741089E0
2.586683819E0,-1.396810263E-1,-1.286142170E-1,9.880562782E0
2.589128975E0,-1.420738399E-1,-1.381855011E-1,9.882955551E0
2.591573246E0,-1.348953694E-1,-1.381855011E-1,9.892526627E0
2.594016788E0,-1.301097274E-1,-1.238285750E-1,9.887741089E0
2.596461059E0,-1.372881979E-1,-1.310070455E-1,9.909276962E0
2.598906267E0,-1.492523104E-1,-1.333998591E-1,9.899705887E0
2.601350486E0,-1.492523104E-1,-1.429711580E-1,9.887741089E0
2.603794028E0,-1.492523104E-1,-1.262213886E-1,9.906884193E0
2.606238403E0,-1.372881979E-1,-1.429711580E-1,9.897313118E0
2.608683507E0,-1.253240854E-1,-1.310070455E-1,9.880562782E0
2.611127725E0,-1.540379524E-1,-1.624128371E-1,9.909276962E0
2.613571267E0,-1.444666684E-1,-1.286142170E-1,9.887741089E0
2.616015642E0,-1.253240854E-1,-1.405783296E-1,9.887741089E0
2.618460746E0,-1.325025558E-1,-1.333998591E-1,9.878170013E0
2.620905017E0,-1.325025558E-1,-1.576271951E-1,9.892526627E0
2.623348507E0,-1.492523104E-1,-1.333998591E-1,9.887741089E0
2.625792882E0,-1.396810263E-1,-1.429711580E-1,9.875777245E0
2.628237986E0,-1.564307809E-1,-1.333998591E-1,9.890133858E0
2.630682257E0,-1.468594968E-1,-1.357926875E-1,9.887741089E0
2.633125746E0,-1.420738399E-1,-1.453639716E-1,9.882955551E0
2.635570121E0,-1.396810263E-1,-1.480558962E-1,9.873384476E0
2.638015225E0,-1.540379524E-1,-1.166501045E-1,9.906884193E0
2.640459496E0,-1.420738399E-1,-1.381855011E-1,9.887741089E0
2.642903038E0,-1.348953694E-1,-1.504487246E-1,9.885348320E0
2.645347309E0,-1.444666684E-1,-1.333998591E-1,9.904491425E0
2.647792465E0,-1.325025558E-1,-1.286142170E-1,9.882955551E0
2.650236736E0,-1.540379524E-1,-1.381855011E-1,9.890133858E0
2.652680278E0,-1.420738399E-1,-1.381855011E-1,9.904491425E0
2.655124653E0,-1.492523104E-1,-1.310070455E-1,9.899705887E0
2.657569757E0,-1.277169138E-1,-1.262213886E-1,9.904491425E0
2.660013975E0,-1.420738399E-1,-1.357926875E-1,9.911669731E0
2.662457517E0,-1.301097274E-1,-1.576271951E-1,9.870991707E0
2.664901892E0,-1.372881979E-1,-1.504487246E-1,9.904491425E0
2.667346996E0,-1.444666684E-1,-1.453639716E-1,9.904491425E0
2.669791267E0,-1.420738399E-1,-1.286142170E-1,9.894919395E0
2.672234757E0,-1.588236094E-1,-1.405783296E-1,9.861420631E0
2.674679132E0,-1.420738399E-1,-1.453639716E-1,9.880562782E0
2.677124236E0,-1.205384433E-1,-1.310070455E-1,9.878170013E0
2.679568507E0,-1.396810263E-1,-1.238285750E-1,9.897313118E0
2.682011996E0,-1.372881979E-1,-1.453639716E-1,9.885348320E0
2.684456371E0,-1.253240854E-1,-1.381855011E-1,9.868598938E0
2.686901475E0,-1.444666684E-1,-1.357926875E-1,9.887741089E0
2.689345746E0,-1.444666684E-1,-1.528415531E-1,9.885348320E0
2.691789236E0,-1.444666684E-1,-1.262213886E-1,9.904491425E0
2.694233611E0,-1.492523104E-1,-1.429711580E-1,9.921240807E0
2.696678715E0,-1.348953694E-1,-1.142572835E-1,9.918848038E0
2.699122986E0,-1.253240854E-1,-1.453639716E-1,9.914062500E0
2.701566528E0,-1.420738399E-1,-1.429711580E-1,9.887741089E0
2.704010798E0,-1.348953694E-1,-1.504487246E-1,9.892526627E0
2.706455955E0,-1.396810263E-1,-1.357926875E-1,9.911669731E0
2.708900225E0,-1.564307809E-1,-1.357926875E-1,9.875777245E0
2.711343767E0,-1.492523104E-1,-1.310070455E-1,9.870991707E0
2.713788142E0,-1.372881979E-1,-1.333998591E-1,9.870991707E0
2.716233246E0,-1.420738399E-1,-1.453639716E-1,9.873384476E0
2.718677517E0,-1.492523104E-1,-1.405783296E-1,9.873384476E0
2.721121007E0,-1.253240854E-1,-1.238285750E-1,9.866206169E0
2.723565382E0,-1.444666684E-1,-1.310070455E-1,9.892526627E0
2.726010486E0,-1.564307809E-1,-1.405783296E-1,9.878170013E0
2.728454705E0,-1.468594968E-1,-1.333998591E-1,9.892526627E0
2.730898246E0,-1.588236094E-1,-1.480558962E-1,9.899705887E0
2.733342621E0,-1.540379524E-1,-1.453639716E-1,9.890133858E0
2.735787725E0,-1.492523104E-1,-1.528415531E-1,9.899705887E0
2.738231996E0,-1.444666684E-1,-1.262213886E-1,9.890133858E0
2.740675486E0,-1.277169138E-1,-1.552343667E-1,9.894919395E0
2.743119861E0,-1.564307809E-1,-1.429711580E-1,9.890133858E0
2.745564965E0,-1.372881979E-1,-1.333998591E-1,9.923633575E0
2.748009236E0,-1.372881979E-1,-1.357926875E-1,9.887741089E0
2.750452778E0,-1.612164229E-1,-1.429711580E-1,9.911669731E0
2.752897048E0,-1.372881979E-1,-1.480558962E-1,9.866206169E0
2.755342205E0,-1.492523104E-1,-1.286142170E-1,9.897313118E0
2.757786475E0,-1.372881979E-1,-1.480558962E-1,9.885348320E0
2.760230017E0,-1.205384433E-1,-1.429711580E-1,9.887741089E0
2.762674288E0,-1.325025558E-1,-1.405783296E-1,9.890133858E0
2.765119496E0,-1.444666684E-1,-1.504487246E-1,9.880562782E0
2.767563715E0,-1.492523104E-1,-1.504487246E-1,9.861420631E0
2.770007257E0,-1.444666684E-1,-1.576271951E-1,9.870991707E0
2.772451632E0,-1.540379524E-1,-1.405783296E-1,9.875777245E0
2.774896736E0,-1.396810263E-1,-1.310070455E-1,9.870991707E0
2.777340955E0,-1.420738399E-1,-1.528415531E-1,9.887741089E0
2.779784496E0,-1.492523104E-1,-1.429711580E-1,9.870991707E0
2.782228871E0,-1.444666684E-1,-1.671984792E-1,9.880562782E0
2.784673975E0,-1.396810263E-1,-1.552343667E-1,9.892526627E0
2.787118246E0,-1.348953694E-1,-1.357926875E-1,9.899705887E0
2.789561736E0,-1.444666684E-1,-1.333998591E-1,9.894919395E0
2.792006111E0,-1.157527938E-1,-1.576271951E-1,9.899705887E0
2.794451215E0,-1.253240854E-1,-1.310070455E-1,9.926026344E0
2.796895486E0,-1.468594968E-1,-1.333998591E-1,9.894919395E0
2.799338975E0,-1.301097274E-1,-1.262213886E-1,9.878170013E0
2.801783350E0,-1.396810263E-1,-1.504487246E-1,9.882955551E0
2.804228455E0,-1.516451389E-1,-1.333998591E-1,9.890133858E0
2.806672725E0,-1.540379524E-1,-1.381855011E-1,9.902098656E0
2.809116215E0,-1.348953694E-1,-1.429711580E-1,9.875777245E0
2.811560590E0,-1.683948934E-1,-1.310070455E-1,9.890133858E0
2.814005694E0,-1.492523104E-1,-1.429711580E-1,9.897313118E0
2.816449965E0,-1.348953694E-1,-1.381855011E-1,9.897313118E0
2.818893507E0,-1.420738399E-1,-1.453639716E-1,9.894919395E0
2.821337778E0,-1.396810263E-1,-1.528415531E-1,9.882955551E0
2.823782986E0,-1.468594968E-1,-1.453639716E-1,9.909276962E0
2.826227205E0,-1.348953694E-1,-1.333998591E-1,9.894919395E0
2.828670746E0,-1.444666684E-1,-1.310070455E-1,9.911669731E0
2.831115121E0,-1.444666684E-1,-1.310070455E-1,9.906884193E0
2.833560225E0,-1.468594968E-1,-1.381855011E-1,9.906884193E0
2.836004444E0,-1.348953694E-1,-1.480558962E-1,9.890133858E0
2.838447986E0,-1.468594968E-1,-1.381855011E-1,9.890133858E0
2.840892361E0,-1.636092514E-1,-1.480558962E-1,9.892526627E0
2.843337465E0,-1.516451389E-1,-1.405783296E-1,9.897313118E0
2.845781736E0,-1.564307809E-1,-1.286142170E-1,9.878170013E0
2.848225225E0,-1.277169138E-1,-1.238285750E-1,9.904491425E0
2.850669600E0,-1.420738399E-1,-1.576271951E-1,9.873384476E0
2.853114705E0,-1.205384433E-1,-1.262213886E-1,9.861420631E0
2.855558975E0,-1.492523104E-1,-1.552343667E-1,9.887741089E0
2.858002465E0,-1.253240854E-1,-1.504487246E-1,9.892526627E0
2.860446840E0,-1.540379524E-1,-1.357926875E-1,9.892526627E0
2.862891944E0,-1.372881979E-1,-1.357926875E-1,9.887741089E0
2.865336215E0,-1.396810263E-1,-1.310070455E-1,9.916455269E0
2.867779757E0,-1.468594968E-1,-1.381855011E-1,9.904491425E0
2.870224028E0,-1.372881979E-1,-1.405783296E-1,9.894919395E0
2.872669184E0,-1.420738399E-1,-1.381855011E-1,9.875777245E0
2.875113455E0,-1.372881979E-1,-1.528415531E-1,9.882955551E0
2.877556996E0,-1.468594968E-1,-1.429711580E-1,9.880562782E0
2.880001267E0,-1.683948934E-1,-1.405783296E-1,9.880562782E0
2.882446423E0,-1.301097274E-1,-1.310070455E-1,9.882955551E0
2.884890694E0,-1.348953694E-1,-1.429711580E-1,9.899705887E0
2.887334236E0,-1.492523104E-1,-1.453639716E-1,9.899705887E0
2.889778611E0,-1.683948934E-1,-1.405783296E-1,9.892526627E0
2.892223715E0,-1.468594968E-1,-1.333998591E-1,9.892526627E0
2.894667934E0,-1.516451389E-1,-1.357926875E-1,9.875777245E0
2.897111475E0,-1.516451389E-1,-1.405783296E-1,9.894919395E0
2.899555850E0,-1.540379524E-1,-1.357926875E-1,9.887741089E0
2.902000955E0,-1.420738399E-1,-1.504487246E-1,9.897313118E0
2.904445173E0,-1.444666684E-1,-1.480558962E-1,9.882955551E0
2.906888715E0,-1.468594968E-1,-1.333998591E-1,9.904491425E0
2.909333090E0,-1.516451389E-1,-1.504487246E-1,9.892526627E0
2.911778194E0,-1.564307809E-1,-1.405783296E-1,9.923633575E0
2.914222465E0,-1.372881979E-1,-1.405783296E-1,9.899705887E0
2.916665955E0,-1.612164229E-1,-1.504487246E-1,9.890133858E0
2.919110330E0,-1.444666684E-1,-1.262213886E-1,9.902098656E0
2.921555434E0,-1.492523104E-1,-1.262213886E-1,9.887741089E0
2.923999705E0,-1.396810263E-1,-1.453639716E-1,9.892526627E0
2.926443194E0,-1.492523104E-1,-1.480558962E-1,9.870991707E0
2.928887569E0,-1.277169138E-1,-1.504487246E-1,9.882955551E0
2.931332673E0,-1.588236094E-1,-1.528415531E-1,9.885348320E0
2.933776944E0,-1.301097274E-1,-1.381855011E-1,9.880562782E0
2.936220434E0,-1.468594968E-1,-1.357926875E-1,9.880562782E0
2.938664809E0,-1.253240854E-1,-1.405783296E-1,9.904491425E0
2.941109913E0,-1.301097274E-1,-1.357926875E-1,9.897313118E0
2.943554184E0,-1.492523104E-1,-1.310070455E-1,9.899705887E0
2.945997725E0,-1.253240854E-1,-1.310070455E-1,9.916455269E0
2.948442100E0,-1.301097274E-1,-1.480558962E-1,9.911669731E0
2.950887205E0,-1.540379524E-1,-1.600200087E-1,9.906884193E0
2.953331423E0,-1.492523104E-1,-1.453639716E-1,9.885348320E0
2.955774965E0,-1.253240854E-1,-1.405783296E-1,9.887741089E0
2.958219340E0,-1.444666684E-1,-1.333998591E-1,9.890133858E0
2.960664444E0,-1.301097274E-1,-1.262213886E-1,9.897313118E0
2.963108663E0,-1.492523104E-1,-1.381855011E-1,9.902098656E0
2.965552205E0,-1.301097274E-1,-1.453639716E-1,9.887741089E0
2.967996580E0,-1.468594968E-1,-1.405783296E-1,9.909276962E0
2.970441684E0,-1.420738399E-1,-1.504487246E-1,9.875777245E0
2.972885955E0,-1.372881979E-1,-1.238285750E-1,9.890133858E0
2.975329444E0,-1.348953694E-1,-1.429711580E-1,9.897313118E0
2.977773819E0,-1.420738399E-1,-1.381855011E-1,9.918848038E0
2.980218923E0,-1.540379524E-1,-1.357926875E-1,9.909276962E0
2.982663194E0,-1.492523104E-1,-1.286142170E-1,9.887741089E0
2.985106684E0,-1.396810263E-1,-1.381855011E-1,9.892526627E0
2.987551059E0,-1.157527938E-1,-1.190429255E-1,9.894919395E0
2.989996163E0,-1.540379524E-1,-1.357926875E-1,9.885348320E0
2.992440434E0,-1.564307809E-1,-1.429711580E-1,9.882955551E0
2.994883923E0,-1.372881979E-1,-1.405783296E-1,9.916455269E0
2.997328298E0,-1.444666684E-1,-1.453639716E-1,9.897313118E0
2.999773403E0,-1.516451389E-1,-1.286142170E-1,9.897313118E0
3.002217673E0,-1.301097274E-1,-1.166501045E-1,9.868598938E0
3.004661215E0,-1.444666684E-1,-1.262213886E-1,9.885348320E0
3.007105486E0,-1.396810263E-1,-1.480558962E-1,9.890133858E0
3.009550642E0,-1.253240854E-1,-1.453639716E-1,9.882955551E0
3.011994913E0,-1.277169138E-1,-1.576271951E-1,9.894919395E0
3.014438455E0,-1.229312643E-1,-1.381855011E-1,9.916455269E0
3.016882830E0,-1.372881979E-1,-1.286142170E-1,9.904491425E0
3.019327934E0,-1.229312643E-1,-1.238285750E-1,9.890133858E0
3.021772153E0,-1.301097274E-1,-1.310070455E-1,9.885348320E0
3.024215694E0,-1.253240854E-1,-1.262213886E-1,9.894919395E0
3.026660069E0,-1.253240854E-1,-1.357926875E-1,9.894919395E0
3.029105173E0,-1.181456149E-1,-1.405783296E-1,9.906884193E0
3.031549392E0,-1.636092514E-1,-1.262213886E-1,9.918848038E0
3.033992934E0,-1.516451389E-1,-1.405783296E-1,9.894919395E0
3.036437309E0,-1.372881979E-1,-1.286142170E-1,9.882955551E0
3.038882413E0,-1.612164229E-1,-1.381855011E-1,9.894919395E0
3.041326684E0,-1.731805354E-1,-1.381855011E-1,9.873384476E0
3.043770173E0,-1.372881979E-1,-1.453639716E-1,9.868598938E0
3.046214548E0,-1.301097274E-1,-1.166501045E-1,9.875777245E0
3.048659653E0,-1.396810263E-1,-1.214357466E-1,9.887741089E0
3.051103923E0,-1.516451389E-1,-1.310070455E-1,9.890133858E0
3.053547413E0,-1.540379524E-1,-1.357926875E-1,9.897313118E0
3.055991788E0,-1.492523104E-1,-1.381855011E-1,9.866206169E0
3.058436892E0,-1.516451389E-1,-1.528415531E-1,9.904491425E0
3.060881163E0,-1.588236094E-1,-1.405783296E-1,9.899705887E0
3.063324653E0,-1.468594968E-1,-1.405783296E-1,9.880562782E0
3.065769028E0,-1.516451389E-1,-1.094716340E-1,9.894919395E0
3.068214132E0,-1.396810263E-1,-1.333998591E-1,9.890133858E0
3.070658403E0,-1.540379524E-1,-1.405783296E-1,9.892526627E0
3.073101944E0,-1.444666684E-1,-1.381855011E-1,9.868598938E0
3.075546215E0,-1.109671518E-1,-1.381855011E-1,9.870991707E0
3.077991371E0,-1.205384433E-1,-1.357926875E-1,9.887741089E0
3.080435642E0,-1.444666684E-1,-1.333998591E-1,9.885348320E0
3.082879184E0,-1.229312643E-1,-1.357926875E-1,9.866206169E0
3.085323559E0,-1.372881979E-1,-1.357926875E-1,9.875777245E0
3.087768663E0,-1.516451389E-1,-1.405783296E-1,9.892526627E0
3.090212882E0,-1.301097274E-1,-1.405783296E-1,9.870991707E0
3.092656423E0,-1.396810263E-1,-1.453639716E-1,9.870991707E0
3.095100798E0,-1.301097274E-1,-1.405783296E-1,9.890133858E0
3.097545903E0,-1.420738399E-1,-1.480558962E-1,9.899705887E0
3.099990121E0,-1.277169138E-1,-1.429711580E-1,9.861420631E0
3.102433663E0,-1.301097274E-1,-1.142572835E-1,9.882955551E0
3.104878038E0,-1.348953694E-1,-1.381855011E-1,9.878170013E0
3.107323142E0,-1.516451389E-1,-1.453639716E-1,9.899705887E0
3.109767413E0,-1.348953694E-1,-1.310070455E-1,9.892526627E0
3.112210903E0,-1.420738399E-1,-1.480558962E-1,9.887741089E0
3.114655278E0,-1.516451389E-1,-1.405783296E-1,9.918848038E0
3.117100382E0,-1.492523104E-1,-1.453639716E-1,9.902098656E0
3.119544653E0,-1.636092514E-1,-1.528415531E-1,9.894919395E0
3.121988142E0,-1.325025558E-1,-1.624128371E-1,9.880562782E0
3.124432517E0,-1.325025558E-1,-1.429711580E-1,9.885348320E0
3.126877621E0,-1.396810263E-1,-1.381855011E-1,9.892526627E0
3.129321892E0,-1.516451389E-1,-1.504487246E-1,9.914062500E0
3.131765382E0,-1.468594968E-1,-1.528415531E-1,9.892526627E0
3.134209757E0,-1.396810263E-1,-1.381855011E-1,9.906884193E0
3.136654861E0,-1.444666684E-1,-1.405783296E-1,9.902098656E0
3.139099132E0,-1.444666684E-1,-1.480558962E-1,9.909276962E0
3.141542673E0,-1.468594968E-1,-1.453639716E-1,9.894919395E0
3.143986944E0,-1.683948934E-1,-1.286142170E-1,9.902098656E0
3.146432100E0,-1.492523104E-1,-1.286142170E-1,9.897313118E0
3.148876371E0,-1.612164229E-1,-1.528415531E-1,9.873384476E0
3.151319913E0,-1.348953694E-1,-1.552343667E-1,9.863813400E0
3.153764288E0,-1.348953694E-1,-1.214357466E-1,9.875777245E0
3.156209392E0,-1.420738399E-1,-1.381855011E-1,9.887741089E0
3.158653611E0,-1.348953694E-1,-1.310070455E-1,9.909276962E0
3.161097153E0,-1.420738399E-1,-1.453639716E-1,9.902098656E0
3.163541528E0,-1.348953694E-1,-1.357926875E-1,9.887741089E0
3.165986632E0,-1.564307809E-1,-1.381855011E-1,9.894919395E0
3.168430850E0,-1.444666684E-1,-1.310070455E-1,9.894919395E0
3.170874392E0,-1.229312643E-1,-1.262213886E-1,9.906884193E0
3.173318767E0,-1.396810263E-1,-1.453639716E-1,9.885348320E0
3.175763871E0,-1.325025558E-1,-1.453639716E-1,9.878170013E0
3.178208142E0,-1.420738399E-1,-1.381855011E-1,9.892526627E0
3.180651632E0,-1.253240854E-1,-1.357926875E-1,9.885348320E0
3.183096007E0,-1.444666684E-1,-1.480558962E-1,9.878170013E0
3.185541111E0,-1.253240854E-1,-1.453639716E-1,9.885348320E0
3.187985382E0,-1.420738399E-1,-1.357926875E-1,9.885348320E0
3.190428871E0,-1.396810263E-1,-1.310070455E-1,9.890133858E0
3.192873246E0,-1.516451389E-1,-1.429711580E-1,9.894919395E0
3.195318350E0,-1.372881979E-1,-1.576271951E-1,9.882955551E0
3.197762621E0,-1.564307809E-1,-1.262213886E-1,9.899705887E0
3.200206111E0,-1.588236094E-1,-1.262213886E-1,9.902098656E0
3.202650486E0,-1.396810263E-1,-1.528415531E-1,9.906884193E0
3.205095590E0,-1.372881979E-1,-1.624128371E-1,9.916455269E0
3.207539861E0,-1.325025558E-1,-1.190429255E-1,9.892526627E0
3.209983403E0,-1.564307809E-1,-1.310070455E-1,9.897313118E0
3.212427673E0,-1.444666684E-1,-1.504487246E-1,9.904491425E0
3.214872830E0,-1.348953694E-1,-1.381855011E-1,9.899705887E0
3.217317100E0,-1.660020649E-1,-1.528415531E-1,9.882955551E0
3.219760642E0,-1.468594968E-1,-1.429711580E-1,9.868598938E0
3.222204913E0,-1.420738399E-1,-1.286142170E-1,9.878170013E0
3.224650069E0,-1.564307809E-1,-1.333998591E-1,9.897313118E0
3.227094340E0,-1.468594968E-1,-1.480558962E-1,9.909276962E0
3.229537882E0,-1.516451389E-1,-1.310070455E-1,9.885348320E0
3.231982257E0,-1.420738399E-1,-1.504487246E-1,9.887741089E0
3.234427361E0,-1.325025558E-1,-1.429711580E-1,9.892526627E0
3.236871580E0,-1.372881979E-1,-1.357926875E-1,9.918848038E0
3.239315121E0,-1.420738399E-1,-1.310070455E-1,9.890133858E0
3.241759496E0,-1.348953694E-1,-1.405783296E-1,9.894919395E0
3.244204600E0,-1.468594968E-1,-1.286142170E-1,9.892526627E0
3.246648871E0,-1.277169138E-1,-1.528415531E-1,9.892526627E0
3.249092361E0,-1.540379524E-1,-1.405783296E-1,9.873384476E0
3.251536736E0,-1.492523104E-1,-1.429711580E-1,9.859027863E0
3.253981840E0,-1.420738399E-1,-1.262213886E-1,9.885348320E0
3.256426111E0,-1.325025558E-1,-1.480558962E-1,9.875777245E0
3.258869600E0,-1.348953694E-1,-1.528415531E-1,9.894919395E0
3.261313975E0,-1.492523104E-1,-1.453639716E-1,9.870991707E0
3.263759080E0,-1.420738399E-1,-1.576271951E-1,9.914062500E0
3.266203350E0,-1.372881979E-1,-1.576271951E-1,9.906884193E0
3.268646840E0,-1.396810263E-1,-1.262213886E-1,9.897313118E0
3.271091215E0,-1.420738399E-1,-1.405783296E-1,9.894919395E0
3.273536319E0,-1.468594968E-1,-1.552343667E-1,9.885348320E0
3.275980590E0,-1.420738399E-1,-1.624128371E-1,9.899705887E0
3.278424132E0,-1.420738399E-1,-1.405783296E-1,9.894919395E0
3.280868403E0,-1.420738399E-1,-1.453639716E-1,9.873384476E0
3.283313559E0,-1.348953694E-1,-1.429711580E-1,9.887741089E0
3.285757830E0,-1.372881979E-1,-1.381855011E-1,9.887741089E0
3.288201371E0,-1.420738399E-1,-1.262213886E-1,9.868598938E0
3.290645642E0,-1.396810263E-1,-1.333998591E-1,9.882955551E0
3.293090798E0,-1.420738399E-1,-1.480558962E-1,9.863813400E0
3.295535069E0,-1.348953694E-1,-1.286142170E-1,9.880562782E0
3.297978611E0,-1.468594968E-1,-1.453639716E-1,9.885348320E0
3.300422986E0,-1.468594968E-1,-1.528415531E-1,9.899705887E0
3.302868090E0,-1.564307809E-1,-1.648056656E-1,9.890133858E0
3.305312309E0,-1.229312643E-1,-1.405783296E-1,9.904491425E0
3.307755850E0,-1.181456149E-1,-1.405783296E-1,9.914062500E0
3.310200225E0,-1.540379524E-1,-1.552343667E-1,9.897313118E0
3.312645330E0,-1.492523104E-1,-1.262213886E-1,9.880562782E0
3.315089548E0,-1.325025558E-1,-1.357926875E-1,9.875777245E0
3.317533090E0,-1.277169138E-1,-1.310070455E-1,9.880562782E0
3.319977465E0,-1.253240854E-1,-1.357926875E-1,9.890133858E0
3.322422569E0,-1.540379524E-1,-1.333998591E-1,9.870991707E0
3.324866840E0,-1.492523104E-1,-1.453639716E-1,9.863813400E0
3.327310330E0,-1.348953694E-1,-1.576271951E-1,9.921240807E0
3.329754705E0,-1.396810263E-1,-1.214357466E-1,9.863813400E0
3.332199809E0,-1.348953694E-1,-1.381855011E-1,9.875777245E0
3.334644080E0,-1.540379524E-1,-1.405783296E-1,9.890133858E0
3.337087569E0,-1.253240854E-1,-1.286142170E-1,9.892526627E0
3.339531944E0,-1.540379524E-1,-1.381855011E-1,9.899705887E0
3.341977048E0,-1.420738399E-1,-1.429711580E-1,9.870991707E0
3.344421319E0,-1.636092514E-1,-1.480558962E-1,9.902098656E0
3.346864809E0,-1.540379524E-1,-1.238285750E-1,9.918848038E0
3.349309184E0,-1.301097274E-1,-1.405783296E-1,9.870991707E0
3.351754288E0,-1.372881979E-1,-1.429711580E-1,9.878170013E0
3.354198559E0,-1.348953694E-1,-1.624128371E-1,9.892526627E0
3.356642100E0,-1.660020649E-1,-1.333998591E-1,9.914062500E0
3.359086371E0,-1.540379524E-1,-1.262213886E-1,9.880562782E0
3.361531528E0,-1.492523104E-1,-1.504487246E-1,9.875777245E0
3.363975798E0,-1.420738399E-1,-1.480558962E-1,9.894919395E0
3.366419340E0,-1.396810263E-1,-1.381855011E-1,9.904491425E0
3.368863611E0,-1.516451389E-1,-1.429711580E-1,9.887741089E0
3.371308767E0,-1.396810263E-1,-1.405783296E-1,9.885348320E0
3.373753038E0,-1.492523104E-1,-1.333998591E-1,9.892526627E0
3.376196580E0,-1.396810263E-1,-1.381855011E-1,9.870991707E0
3.378640955E0,-1.492523104E-1,-1.310070455E-1,9.904491425E0
3.381086059E0,-1.444666684E-1,-1.238285750E-1,9.899705887E0
3.383530278E0,-1.372881979E-1,-1.504487246E-1,9.887741089E0
3.385973819E0,-1.348953694E-1,-1.333998591E-1,9.918848038E0
3.388418194E0,-1.492523104E-1,-1.453639716E-1,9.887741089E0
3.390863298E0,-1.420738399E-1,-1.262213886E-1,9.890133858E0
3.393307517E0,-1.157527938E-1,-1.429711580E-1,9.909276962E0
3.395751059E0,-1.636092514E-1,-1.405783296E-1,9.904491425E0
3.398195434E0,-1.372881979E-1,-1.429711580E-1,9.880562782E0
3.400640538E0,-1.325025558E-1,-1.333998591E-1,9.897313118E0
3.403084809E0,-1.372881979E-1,-1.381855011E-1,9.882955551E0
3.405528298E0,-1.277169138E-1,-1.528415531E-1,9.887741089E0
3.407972673E0,-1.205384433E-1,-1.528415531E-1,9.868598938E0
3.410417778E0,-1.516451389E-1,-1.429711580E-1,9.892526627E0
3.412862048E0,-1.372881979E-1,-1.262213886E-1,9.882955551E0
3.415305538E0,-1.277169138E-1,-1.166501045E-1,9.882955551E0
3.417749913E0,-1.468594968E-1,-1.310070455E-1,9.906884193E0
3.420195017E0,-1.348953694E-1,-1.333998591E-1,9.887741089E0
3.422639288E0,-1.325025558E-1,-1.381855011E-1,9.870991707E0
3.425082778E0,-1.205384433E-1,-1.214357466E-1,9.868598938E0
3.427527153E0,-1.444666684E-1,-1.381855011E-1,9.890133858E0
3.429972257E0,-1.444666684E-1,-1.310070455E-1,9.902098656E0
3.432416528E0,-1.229312643E-1,-1.381855011E-1,9.904491425E0
3.434860017E0,-1.348953694E-1,-1.381855011E-1,9.904491425E0
3.437304392E0,-1.444666684E-1,-1.453639716E-1,9.904491425E0
3.439749496E0,-1.516451389E-1,-1.333998591E-1,9.909276962E0
3.442193767E0,-1.468594968E-1,-1.405783296E-1,9.880562782E0
3.444637257E0,-1.372881979E-1,-1.381855011E-1,9.873384476E0
3.447081632E0,-1.205384433E-1,-1.333998591E-1,9.904491425E0
3.449526736E0,-1.420738399E-1,-1.357926875E-1,9.894919395E0
3.451971007E0,-1.516451389E-1,-1.262213886E-1,9.878170013E0
3.454414548E0,-1.468594968E-1,-1.286142170E-1,9.880562782E0
3.456858819E0,-1.444666684E-1,-1.357926875E-1,9.899705887E0
3.459303975E0,-1.348953694E-1,-1.333998591E-1,9.899705887E0
3.461748246E0,-1.468594968E-1,-1.238285750E-1,9.885348320E0
3.464191788E0,-1.301097274E-1,-1.310070455E-1,9.880562782E0
3.466636163E0,-1.468594968E-1,-1.333998591E-1,9.899705887E0
3.469081267E0,-1.348953694E-1,-1.357926875E-1,9.880562782E0
3.471525486E0,-1.301097274E-1,-1.528415531E-1,9.887741089E0
3.473969028E0,-1.301097274E-1,-1.405783296E-1,9.887741089E0
3.476413403E0,-1.468594968E-1,-1.405783296E-1,9.878170013E0
3.478858507E0,-1.301097274E-1,-1.480558962E-1,9.856635094E0
3.481302725E0,-1.301097274E-1,-1.333998591E-1,9.882955551E0
3.483746267E0,-1.468594968E-1,-1.480558962E-1,9.890133858E0
3.486190642E0,-1.396810263E-1,-1.286142170E-1,9.890133858E0
3.488635746E0,-1.372881979E-1,-1.310070455E-1,9.887741089E0
3.491080017E0,-1.301097274E-1,-1.333998591E-1,9.890133858E0
3.493523507E0,-1.348953694E-1,-1.405783296E-1,9.909276962E0
3.495967882E0,-1.396810263E-1,-1.310070455E-1,9.899705887E0
3.498412986E0,-1.564307809E-1,-1.381855011E-1,9.894919395E0
3.500857257E0,-1.325025558E-1,-1.453639716E-1,9.904491425E0
3.503300746E0,-1.133599728E-1,-1.357926875E-1,9.894919395E0
3.505745121E0,-1.372881979E-1,-1.600200087E-1,9.890133858E0
3.508190225E0,-1.396810263E-1,-1.381855011E-1,9.902098656E0
3.510634496E0,-1.301097274E-1,-1.429711580E-1,9.878170013E0
3.513077986E0,-1.229312643E-1,-1.381855011E-1,9.875777245E0
3.515522361E0,-1.468594968E-1,-1.357926875E-1,9.882955551E0
3.517967465E0,-1.348953694E-1,-1.405783296E-1,9.885348320E0
3.520411736E0,-1.301097274E-1,-1.429711580E-1,9.875777245E0
3.522855278E0,-1.516451389E-1,-1.453639716E-1,9.892526627E0
3.525299548E0,-1.516451389E-1,-1.453639716E-1,9.878170013E0
3.527744705E0,-1.468594968E-1,-1.381855011E-1,9.873384476E0
3.530188975E0,-1.301097274E-1,-1.310070455E-1,9.916455269E0
3.532632517E0,-1.588236094E-1,-1.381855011E-1,9.918848038E0
3.535076788E0,-1.540379524E-1,-1.190429255E-1,9.887741089E0
3.537521944E0,-1.468594968E-1,-1.405783296E-1,9.902098656E0
3.539966215E0,-1.492523104E-1,-1.405783296E-1,9.904491425E0
3.542409757E0,-1.277169138E-1,-1.453639716E-1,9.902098656E0
3.544854028E0,-1.612164229E-1,-1.453639716E-1,9.880562782E0
3.547299236E0,-1.564307809E-1,-1.429711580E-1,9.899705887E0
3.549743455E0,-1.540379524E-1,-1.262213886E-1,9.880562782E0
3.552186996E0,-1.157527938E-1,-1.480558962E-1,9.875777245E0
3.554631371E0,-1.253240854E-1,-1.453639716E-1,9.880562782E0
3.557076475E0,-1.372881979E-1,-1.528415531E-1,9.880562782E0
3.559520694E0,-1.564307809E-1,-1.429711580E-1,9.892526627E0
3.561964236E0,-1.348953694E-1,-1.262213886E-1,9.863813400E0
3.564408611E0,-1.229312643E-1,-1.405783296E-1,9.909276962E0
3.566853715E0,-1.492523104E-1,-1.381855011E-1,9.906884193E0
3.569297986E0,-1.396810263E-1,-1.357926875E-1,9.904491425E0
3.571741475E0,-1.372881979E-1,-1.429711580E-1,9.882955551E0
3.574185850E0,-1.492523104E-1,-1.214357466E-1,9.909276962E0
3.576630955E0,-1.396810263E-1,-1.357926875E-1,9.899705887E0
3.579075225E0,-1.396810263E-1,-1.333998591E-1,9.897313118E0
3.581518715E0,-1.372881979E-1,-1.381855011E-1,9.878170013E0
3.583963090E0,-1.396810263E-1,-1.333998591E-1,9.885348320E0
3.586408194E0,-1.396810263E-1,-1.142572835E-1,9.870991707E0
3.588852465E0,-1.372881979E-1,-1.453639716E-1,9.878170013E0
3.591295955E0,-1.516451389E-1,-1.504487246E-1,9.870991707E0
3.593740330E0,-1.396810263E-1,-1.357926875E-1,9.856635094E0
3.596185434E0,-1.444666684E-1,-1.429711580E-1,9.878170013E0
3.598629705E0,-1.420738399E-1,-1.333998591E-1,9.882955551E0
3.601073194E0,-1.229312643E-1,-1.381855011E-1,9.902098656E0
3.603517569E0,-1.444666684E-1,-1.381855011E-1,9.902098656E0
3.605962673E0,-1.277169138E-1,-1.333998591E-1,9.897313118E0
3.608406944E0,-1.229312643E-1,-1.357926875E-1,9.887741089E0
3.610850434E0,-1.372881979E-1,-1.333998591E-1,9.894919395E0
3.613294809E0,-1.444666684E-1,-1.357926875E-1,9.902098656E0
3.615739913E0,-1.492523104E-1,-1.357926875E-1,9.878170013E0
3.618184184E0,-1.396810263E-1,-1.286142170E-1,9.892526627E0
3.620627725E0,-1.372881979E-1,-1.310070455E-1,9.890133858E0
3.623071996E0,-1.540379524E-1,-1.405783296E-1,9.868598938E0
3.625517153E0,-1.325025558E-1,-1.381855011E-1,9.873384476E0
3.627961423E0,-1.396810263E-1,-1.453639716E-1,9.873384476E0
3.630404965E0,-1.468594968E-1,-1.238285750E-1,9.890133858E0
3.632849236E0,-1.372881979E-1,-1.310070455E-1,9.870991707E0
3.635294392E0,-1.205384433E-1,-1.357926875E-1,9.878170013E0
3.637738663E0,-1.348953694E-1,-1.453639716E-1,9.880562782E0
3.640182205E0,-1.396810263E-1,-1.405783296E-1,9.902098656E0
3.642626580E0,-1.444666684E-1,-1.429711580E-1,9.880562782E0
3.645071684E0,-1.205384433E-1,-1.310070455E-1,9.885348320E0
3.647515903E0,-1.372881979E-1,-1.480558962E-1,9.902098656E0
3.649959444E0,-1.229312643E-1,-1.405783296E-1,9.887741089E0
3.652403819E0,-1.420738399E-1,-1.381855011E-1,9.887741089E0
3.654848923E0,-1.540379524E-1,-1.429711580E-1,9.902098656E0
3.657293142E0,-1.277169138E-1,-1.286142170E-1,9.916455269E0
3.659736684E0,-1.301097274E-1,-1.333998591E-1,9.885348320E0
3.662181059E0,-1.325025558E-1,-1.333998591E-1,9.878170013E0
3.664626163E0,-1.396810263E-1,-1.528415531E-1,9.882955551E0
3.667070434E0,-1.660020649E-1,-1.429711580E-1,9.899705887E0
3.669513923E0,-1.444666684E-1,-1.333998591E-1,9.902098656E0
3.671958298E0,-1.468594968E-1,-1.238285750E-1,9.880562782E0
3.674403403E0,-1.181456149E-1,-1.357926875E-1,9.899705887E0
3.676847673E0,-1.348953694E-1,-1.453639716E-1,9.887741089E0
3.679291163E0,-1.325025558E-1,-1.381855011E-1,9.890133858E0
3.681735538E0,-1.420738399E-1,-1.453639716E-1,9.866206169E0
3.684180642E0,-1.157527938E-1,-1.405783296E-1,9.902098656E0
3.686624913E0,-1.588236094E-1,-1.286142170E-1,9.911669731E0
3.689068403E0,-1.277169138E-1,-1.357926875E-1,9.897313118E0
3.691512778E0,-1.444666684E-1,-1.429711580E-1,9.868598938E0
3.693957882E0,-1.540379524E-1,-1.262213886E-1,9.882955551E0
3.696402153E0,-1.468594968E-1,-1.286142170E-1,9.887741089E0
3.698845642E0,-1.396810263E-1,-1.310070455E-1,9.880562782E0
3.701290017E0,-1.564307809E-1,-1.238285750E-1,9.882955551E0
3.703735121E0,-1.468594968E-1,-1.405783296E-1,9.897313118E0
3.706179392E0,-1.540379524E-1,-1.405783296E-1,9.880562782E0
3.708622882E0,-1.253240854E-1,-1.333998591E-1,9.894919395E0
3.711067257E0,-1.372881979E-1,-1.576271951E-1,9.894919395E0
3.713512361E0,-1.636092514E-1,-1.528415531E-1,9.890133858E0
3.715956632E0,-1.444666684E-1,-1.405783296E-1,9.887741089E0
3.718400173E0,-1.301097274E-1,-1.333998591E-1,9.887741089E0
3.720844444E0,-1.277169138E-1,-1.333998591E-1,9.894919395E0
3.723289600E0,-1.492523104E-1,-1.357926875E-1,9.875777245E0
3.725733871E0,-1.205384433E-1,-1.429711580E-1,9.902098656E0
3.728177413E0,-1.516451389E-1,-1.357926875E-1,9.885348320E0
3.730621684E0,-1.731805354E-1,-1.429711580E-1,9.897313118E0
3.733066892E0,-1.420738399E-1,-1.504487246E-1,9.887741089E0
3.735511111E0,-1.612164229E-1,-1.405783296E-1,9.897313118E0
3.737954653E0,-1.372881979E-1,-1.310070455E-1,9.897313118E0
3.740399028E0,-1.468594968E-1,-1.480558962E-1,9.878170013E0
3.742844132E0,-1.444666684E-1,-1.262213886E-1,9.894919395E0
3.745288350E0,-1.444666684E-1,-1.333998591E-1,9.911669731E0
3.747731892E0,-1.516451389E-1,-1.405783296E-1,9.909276962E0
3.750176267E0,-1.301097274E-1,-1.310070455E-1,9.892526627E0
3.752621371E0,-1.396810263E-1,-1.333998591E-1,9.904491425E0
3.755065590E0,-1.564307809E-1,-1.480558962E-1,9.866206169E0
3.757509132E0,-1.348953694E-1,-1.333998591E-1,9.911669731E0
3.759953507E0,-1.372881979E-1,-1.333998591E-1,9.890133858E0
3.762398611E0,-1.468594968E-1,-1.310070455E-1,9.882955551E0
3.764842882E0,-1.396810263E-1,-1.310070455E-1,9.897313118E0
3.767286371E0,-1.516451389E-1,-1.310070455E-1,9.899705887E0
3.769730746E0,-1.444666684E-1,-1.310070455E-1,9.885348320E0
3.772175850E0,-1.301097274E-1,-1.405783296E-1,9.897313118E0
3.774620121E0,-1.181456149E-1,-1.381855011E-1,9.875777245E0
3.777063611E0,-1.277169138E-1,-1.453639716E-1,9.887741089E0
3.779507986E0,-1.372881979E-1,-1.357926875E-1,9.885348320E0
3.781953090E0,-1.277169138E-1,-1.310070455E-1,9.882955551E0
3.784397361E0,-1.396810263E-1,-1.381855011E-1,9.875777245E0
3.786840850E0,-1.301097274E-1,-1.480558962E-1,9.866206169E0
3.789285225E0,-1.540379524E-1,-1.381855011E-1,9.890133858E0
3.791730330E0,-1.444666684E-1,-1.504487246E-1,9.878170013E0
3.794174600E0,-1.372881979E-1,-1.333998591E-1,9.897313118E0
3.796618090E0,-1.444666684E-1,-1.429711580E-1,9.892526627E0
3.799062465E0,-1.588236094E-1,-1.142572835E-1,9.885348320E0
3.801507569E0,-1.516451389E-1,-1.552343667E-1,9.875777245E0
3.803951840E0,-1.468594968E-1,-1.405783296E-1,9.890133858E0
3.806395330E0,-1.468594968E-1,-1.357926875E-1,9.892526627E0
3.808839705E0,-1.372881979E-1,-1.381855011E-1,9.890133858E0
3.811284809E0,-1.277169138E-1,-1.429711580E-1,9.868598938E0
3.813729080E0,-1.660020649E-1,-1.405783296E-1,9.899705887E0
3.816172621E0,-1.468594968E-1,-1.262213886E-1,9.911669731E0
3.818616892E0,-1.348953694E-1,-1.381855011E-1,9.902098656E0
3.821062048E0,-1.372881979E-1,-1.214357466E-1,9.885348320E0
3.823506319E0,-1.540379524E-1,-1.429711580E-1,9.904491425E0
3.825949861E0,-1.420738399E-1,-1.405783296E-1,9.902098656E0
3.828394132E0,-1.396810263E-1,-1.429711580E-1,9.897313118E0
3.830839340E0,-1.516451389E-1,-1.333998591E-1,9.878170013E0
3.833283559E0,-1.420738399E-1,-1.624128371E-1,9.873384476E0
3.835727100E0,-1.420738399E-1,-1.357926875E-1,9.880562782E0
3.838171475E0,-1.564307809E-1,-1.262213886E-1,9.882955551E0
3.840616580E0,-1.325025558E-1,-1.333998591E-1,9.873384476E0
3.843060798E0,-1.468594968E-1,-1.357926875E-1,9.875777245E0
3.845504340E0,-1.109671518E-1,-1.453639716E-1,9.880562782E0
3.847948715E0,-1.468594968E-1,-1.429711580E-1,9.873384476E0
3.850393819E0,-1.516451389E-1,-1.576271951E-1,9.882955551E0
3.852838090E0,-1.516451389E-1,-1.453639716E-1,9.892526627E0
3.855281580E0,-1.540379524E-1,-1.552343667E-1,9.882955551E0
3.857725955E0,-1.348953694E-1,-1.381855011E-1,9.878170013E0
3.860171059E0,-1.372881979E-1,-1.600200087E-1,9.894919395E0
3.862615330E0,-1.420738399E-1,-1.357926875E-1,9.878170013E0
3.865058819E0,-1.444666684E-1,-1.381855011E-1,9.894919395E0
3.867503194E0,-1.372881979E-1,-1.480558962E-1,9.880562782E0
3.869948298E0,-1.301097274E-1,-1.286142170E-1,9.892526627E0
3.872392569E0,-1.444666684E-1,-1.429711580E-1,9.880562782E0
3.874836059E0,-1.157527938E-1,-1.504487246E-1,9.885348320E0
3.877280434E0,-1.468594968E-1,-1.381855011E-1,9.890133858E0
3.879725538E0,-1.468594968E-1,-1.310070455E-1,9.897313118E0
3.882169809E0,-1.612164229E-1,-1.238285750E-1,9.878170013E0
3.884613298E0,-1.301097274E-1,-1.286142170E-1,9.856635094E0
3.887057673E0,-1.348953694E-1,-1.480558962E-1,9.854242325E0
3.889502778E0,-1.372881979E-1,-1.453639716E-1,9.870991707E0
3.891947048E0,-1.325025558E-1,-1.238285750E-1,9.868598938E0
3.894390538E0,-1.348953694E-1,-1.480558962E-1,9.875777245E0
3.896834913E0,-1.253240854E-1,-1.528415531E-1,9.882955551E0
3.899280017E0,-1.372881979E-1,-1.190429255E-1,9.878170013E0
3.901724288E0,-1.301097274E-1,-1.381855011E-1,9.890133858E0
3.904167778E0,-1.564307809E-1,-1.381855011E-1,9.887741089E0
3.906612153E0,-1.468594968E-1,-1.552343667E-1,9.911669731E0
3.909057257E0,-1.325025558E-1,-1.333998591E-1,9.897313118E0
3.911501528E0,-1.468594968E-1,-1.310070455E-1,9.892526627E0
3.913945017E0,-1.301097274E-1,-1.480558962E-1,9.897313118E0
3.916389392E0,-1.372881979E-1,-1.381855011E-1,9.902098656E0
3.918834496E0,-1.277169138E-1,-1.429711580E-1,9.904491425E0
3.921278767E0,-1.444666684E-1,-1.333998591E-1,9.882955551E0
3.923722309E0,-1.325025558E-1,-1.453639716E-1,9.870991707E0
3.926166580E0,-1.348953694E-1,-1.528415531E-1,9.880562782E0
3.928611736E0,-1.444666684E-1,-1.381855011E-1,9.880562782E0
3.931056007E0,-1.492523104E-1,-1.453639716E-1,9.882955551E0
3.933499548E0,-1.707877219E-1,-1.333998591E-1,9.875777245E0
3.935943819E0,-1.444666684E-1,-1.600200087E-1,9.882955551E0
3.938388975E0,-1.396810263E-1,-1.405783296E-1,9.878170013E0
3.940833246E0,-1.348953694E-1,-1.504487246E-1,9.899705887E0
3.943276788E0,-1.564307809E-1,-1.429711580E-1,9.897313118E0
3.945721163E0,-1.420738399E-1,-1.429711580E-1,9.885348320E0
3.948166267E0,-1.468594968E-1,-1.429711580E-1,9.885348320E0
3.950610486E0,-1.636092514E-1,-1.453639716E-1,9.885348320E0
3.953054028E0,-1.516451389E-1,-1.480558962E-1,9.897313118E0
3.955498403E0,-1.396810263E-1,-1.381855011E-1,9.892526627E0
3.957943507E0,-1.420738399E-1,-1.286142170E-1,9.909276962E0
3.960387725E0,-1.516451389E-1,-1.405783296E-1,9.894919395E0
3.962831267E0,-1.492523104E-1,-1.480558962E-1,9.875777245E0
3.965275642E0,-1.420738399E-1,-1.405783296E-1,9.887741089E0
3.967720746E0,-1.492523104E-1,-1.333998591E-1,9.887741089E0
3.970165017E0,-1.540379524E-1,-1.262213886E-1,9.875777245E0
3.972608507E0,-1.372881979E-1,-1.405783296E-1,9.878170013E0
3.975052882E0,-1.468594968E-1,-1.310070455E-1,9.885348320E0
3.977497986E0,-1.253240854E-1,-1.333998591E-1,9.892526627E0
3.979942257E0,-1.468594968E-1,-1.405783296E-1,9.882955551E0
3.982385746E0,-1.396810263E-1,-1.381855011E-1,9.904491425E0
3.984830121E0,-1.540379524E-1,-1.310070455E-1,9.897313118E0
3.987275225E0,-1.468594968E-1,-1.357926875E-1,9.882955551E0
3.989719496E0,-1.420738399E-1,-1.333998591E-1,9.897313118E0
3.992162986E0,-1.540379524E-1,-1.504487246E-1,9.885348320E0
3.994607361E0,-1.468594968E-1,-1.429711580E-1,9.892526627E0
3.997052465E0,-1.492523104E-1,-1.453639716E-1,9.885348320E0
3.999496736E0,-1.444666684E-1,-1.310070455E-1,9.890133858E0
4.001940225E0,-1.396810263E-1,-1.480558962E-1,9.892526627E0
4.004384600E0,-1.444666684E-1,-1.357926875E-1,9.878170013E0
4.006829705E0,-1.348953694E-1,-1.357926875E-1,9.870991707E0
4.009273975E0,-1.348953694E-1,-1.552343667E-1,9.897313118E0
4.011717465E0,-1.444666684E-1,-1.528415531E-1,9.894919395E0
4.014161840E0,-1.468594968E-1,-1.357926875E-1,9.899705887E0
4.016606944E0,-1.325025558E-1,-1.286142170E-1,9.906884193E0
4.019051215E0,-1.205384433E-1,-1.528415531E-1,9.902098656E0
4.021494705E0,-1.229312643E-1,-1.453639716E-1,9.890133858E0
4.023939080E0,-1.420738399E-1,-1.357926875E-1,9.904491425E0
4.026384184E0,-1.588236094E-1,-1.286142170E-1,9.882955551E0
4.028828455E0,-1.468594968E-1,-1.480558962E-1,9.897313118E0
4.031271996E0,-1.396810263E-1,-1.405783296E-1,9.894919395E0
4.033716267E0,-1.372881979E-1,-1.504487246E-1,9.875777245E0
4.036161423E0,-1.492523104E-1,-1.453639716E-1,9.878170013E0
4.038605694E0,-1.444666684E-1,-1.480558962E-1,9.897313118E0
4.041049236E0,-1.396810263E-1,-1.405783296E-1,9.878170013E0
4.043493507E0,-1.253240854E-1,-1.552343667E-1,9.882955551E0
4.045938663E0,-1.468594968E-1,-1.357926875E-1,9.892526627E0
4.048382934E0,-1.540379524E-1,-1.357926875E-1,9.897313118E0
4.050826475E0,-1.588236094E-1,-1.405783296E-1,9.899705887E0
4.053270746E0,-1.277169138E-1,-1.286142170E-1,9.904491425E0
4.055715955E0,-1.420738399E-1,-1.453639716E-1,9.882955551E0
4.058160173E0,-1.468594968E-1,-1.648056656E-1,9.902098656E0
4.060603715E0,-1.444666684E-1,-1.453639716E-1,9.870991707E0
4.063048090E0,-1.420738399E-1,-1.504487246E-1,9.878170013E0
4.065493194E0,-1.301097274E-1,-1.381855011E-1,9.866206169E0
4.067937413E0,-1.396810263E-1,-1.453639716E-1,9.882955551E0
4.070380955E0,-1.325025558E-1,-1.310070455E-1,9.897313118E0
4.072825330E0,-1.348953694E-1,-1.504487246E-1,9.887741089E0
4.075270434E0,-1.444666684E-1,-1.504487246E-1,9.873384476E0
4.077714653E0,-1.396810263E-1,-1.381855011E-1,9.897313118E0
4.080158194E0,-1.277169138E-1,-1.333998591E-1,9.897313118E0
4.082602569E0,-1.444666684E-1,-1.381855011E-1,9.880562782E0
4.085047673E0,-1.396810263E-1,-1.357926875E-1,9.899705887E0
4.087491944E0,-1.396810263E-1,-1.238285750E-1,9.882955551E0
4.089935434E0,-1.325025558E-1,-1.357926875E-1,9.875777245E0
4.092379809E0,-1.612164229E-1,-1.262213886E-1,9.882955551E0
4.094824913E0,-1.061815023E-1,-1.405783296E-1,9.904491425E0
4.097269184E0,-1.325025558E-1,-1.381855011E-1,9.870991707E0
4.099712673E0,-1.444666684E-1,-1.238285750E-1,9.882955551E0
4.102157048E0,-1.420738399E-1,-1.286142170E-1,9.890133858E0
4.104602153E0,-1.612164229E-1,-1.333998591E-1,9.897313118E0
4.107046423E0,-1.516451389E-1,-1.381855011E-1,9.875777245E0
4.109489913E0,-1.468594968E-1,-1.214357466E-1,9.847063065E0
4.111934288E0,-1.325025558E-1,-1.429711580E-1,9.928419113E0
4.114379392E0,-1.325025558E-1,-1.286142170E-1,9.887741089E0
4.116823663E0,-1.588236094E-1,-1.214357466E-1,9.856635094E0
4.119267153E0,-1.588236094E-1,-1.333998591E-1,9.911669731E0
4.121711528E0,-1.588236094E-1,-1.480558962E-1,9.894919395E0
4.124156632E0,-1.444666684E-1,-1.262213886E-1,9.873384476E0
4.126600903E0,-1.468594968E-1,-1.286142170E-1,9.904491425E0
4.129044392E0,-1.325025558E-1,-1.214357466E-1,9.916455269E0
4.131488767E0,-1.540379524E-1,-1.528415531E-1,9.894919395E0
4.133933871E0,-1.468594968E-1,-1.600200087E-1,9.870991707E0
4.136378142E0,-1.444666684E-1,-1.381855011E-1,9.892526627E0
4.138821632E0,-1.348953694E-1,-1.429711580E-1,9.909276962E0
4.141266007E0,-1.348953694E-1,-1.310070455E-1,9.887741089E0
4.143711111E0,-1.253240854E-1,-1.357926875E-1,9.873384476E0
4.146155382E0,-1.372881979E-1,-1.381855011E-1,9.878170013E0
4.148598923E0,-1.229312643E-1,-1.504487246E-1,9.856635094E0
4.151043194E0,-1.612164229E-1,-1.480558962E-1,9.856635094E0
4.153488350E0,-1.348953694E-1,-1.381855011E-1,9.899705887E0
4.155932621E0,-1.301097274E-1,-1.166501045E-1,9.878170013E0
4.158376163E0,-1.205384433E-1,-1.333998591E-1,9.882955551E0
4.160820434E0,-1.205384433E-1,-1.333998591E-1,9.866206169E0
4.163265590E0,-1.516451389E-1,-1.429711580E-1,9.887741089E0
4.165709861E0,-1.420738399E-1,-1.286142170E-1,9.914062500E0
4.168153403E0,-1.205384433E-1,-1.429711580E-1,9.885348320E0
4.170597673E0,-1.253240854E-1,-1.624128371E-1,9.890133858E0
4.173042830E0,-1.253240854E-1,-1.405783296E-1,9.890133858E0
4.175487100E0,-1.492523104E-1,-1.480558962E-1,9.887741089E0
4.177930642E0,-1.540379524E-1,-1.624128371E-1,9.873384476E0
4.180374913E0,-1.444666684E-1,-1.480558962E-1,9.904491425E0
4.182820121E0,-1.516451389E-1,-1.214357466E-1,9.887741089E0
4.185264340E0,-1.372881979E-1,-1.671984792E-1,9.875777245E0
4.187707882E0,-1.372881979E-1,-1.333998591E-1,9.894919395E0
4.190152257E0,-1.492523104E-1,-1.166501045E-1,9.897313118E0
4.192597361E0,-1.492523104E-1,-1.190429255E-1,9.875777245E0
4.195041580E0,-1.325025558E-1,-1.552343667E-1,9.892526627E0
4.197485121E0,-1.301097274E-1,-1.381855011E-1,9.882955551E0
4.199929496E0,-1.492523104E-1,-1.504487246E-1,9.878170013E0
4.202374600E0,-1.205384433E-1,-1.310070455E-1,9.847063065E0
4.204818819E0,-1.564307809E-1,-1.552343667E-1,9.961918831E0
4.207262361E0,-1.301097274E-1,-1.381855011E-1,9.918848038E0
4.209706736E0,-1.492523104E-1,-1.238285750E-1,9.825528145E0
4.212151840E0,-1.516451389E-1,-1.528415531E-1,9.937990189E0
4.214596111E0,-1.253240854E-1,-1.262213886E-1,9.957133293E0
4.217039600E0,-1.420738399E-1,-1.429711580E-1,9.839884758E0
4.219483975E0,-1.301097274E-1,-1.504487246E-1,9.873384476E0
4.221929080E0,-1.396810263E-1,-1.357926875E-1,9.911669731E0
4.224373298E0,-1.660020649E-1,-1.429711580E-1,9.873384476E0
4.226816840E0,-1.325025558E-1,-1.262213886E-1,9.880562782E0
4.229261215E0,-1.540379524E-1,-1.429711580E-1,9.870991707E0
4.231706319E0,-1.612164229E-1,-1.286142170E-1,9.870991707E0
4.234150590E0,-1.372881979E-1,-1.286142170E-1,9.902098656E0
4.236594080E0,-1.588236094E-1,-1.381855011E-1,9.894919395E0
4.239038455E0,-1.444666684E-1,-1.357926875E-1,9.890133858E0
4.241483559E0,-1.348953694E-1,-1.480558962E-1,9.890133858E0
4.243927830E0,-1.516451389E-1,-1.453639716E-1,9.887741089E0
4.246371319E0,-1.372881979E-1,-1.381855011E-1,9.902098656E0
4.248815694E0,-1.444666684E-1,-1.238285750E-1,9.882955551E0
4.251260798E0,-1.372881979E-1,-1.381855011E-1,9.878170013E0
4.253705069E0,-1.277169138E-1,-1.429711580E-1,9.902098656E0
4.256148559E0,-1.372881979E-1,-1.528415531E-1,9.902098656E0
4.258592934E0,-1.372881979E-1,-1.405783296E-1,9.873384476E0
4.261038038E0,-1.348953694E-1,-1.504487246E-1,9.870991707E0
4.263482309E0,-1.325025558E-1,-1.480558962E-1,9.878170013E0
4.265925798E0,-1.372881979E-1,-1.405783296E-1,9.904491425E0
4.268370173E0,-1.277169138E-1,-1.357926875E-1,9.892526627E0
4.270815278E0,-1.277169138E-1,-1.333998591E-1,9.859027863E0
4.273259548E0,-1.492523104E-1,-1.600200087E-1,9.882955551E0
4.275703038E0,-1.229312643E-1,-1.480558962E-1,9.921240807E0
4.278147413E0,-1.492523104E-1,-1.310070455E-1,9.899705887E0
4.280592517E0,-1.492523104E-1,-1.552343667E-1,9.868598938E0
4.283036788E0,-1.516451389E-1,-1.528415531E-1,9.887741089E0
4.285480330E0,-1.468594968E-1,-1.453639716E-1,9.890133858E0
4.287924600E0,-1.372881979E-1,-1.310070455E-1,9.890133858E0
4.290369757E0,-1.372881979E-1,-1.310070455E-1,9.887741089E0
4.292814028E0,-1.301097274E-1,-1.238285750E-1,9.914062500E0
4.295257569E0,-1.420738399E-1,-1.333998591E-1,9.904491425E0
4.297701840E0,-1.612164229E-1,-1.480558962E-1,9.894919395E0
4.300146996E0,-1.444666684E-1,-1.429711580E-1,9.870991707E0
4.302591267E0,-1.372881979E-1,-1.453639716E-1,9.894919395E0
4.305034809E0,-1.396810263E-1,-1.429711580E-1,9.882955551E0
4.307479080E0,-1.205384433E-1,-1.405783296E-1,9.894919395E0
4.309924236E0,-1.372881979E-1,-1.552343667E-1,9.882955551E0
4.312368507E0,-1.683948934E-1,-1.429711580E-1,9.882955551E0
4.314812048E0,-1.348953694E-1,-1.552343667E-1,9.880562782E0
4.317256423E0,-1.540379524E-1,-1.357926875E-1,9.892526627E0
4.319701528E0,-1.325025558E-1,-1.357926875E-1,9.882955551E0
4.322145746E0,-1.325025558E-1,-1.357926875E-1,9.882955551E0
4.324589288E0,-1.468594968E-1,-1.480558962E-1,9.885348320E0
4.327033663E0,-1.301097274E-1,-1.480558962E-1,9.911669731E0
4.329478767E0,-1.348953694E-1,-1.405783296E-1,9.887741089E0
4.331922986E0,-1.444666684E-1,-1.480558962E-1,9.880562782E0
4.334366528E0,-1.229312643E-1,-1.286142170E-1,9.870991707E0
4.336810903E0,-1.492523104E-1,-1.357926875E-1,9.904491425E0
4.339256007E0,-1.277169138E-1,-1.286142170E-1,9.890133858E0
4.341700225E0,-1.372881979E-1,-1.405783296E-1,9.880562782E0
4.344143767E0,-1.277169138E-1,-1.262213886E-1,9.887741089E0
4.346588142E0,-1.444666684E-1,-1.405783296E-1,9.866206169E0
4.349033246E0,-1.348953694E-1,-1.142572835E-1,9.890133858E0
4.351477517E0,-1.636092514E-1,-1.357926875E-1,9.873384476E0
4.353921007E0,-1.396810263E-1,-1.357926875E-1,9.887741089E0
4.356365382E0,-1.444666684E-1,-1.190429255E-1,9.890133858E0
4.358810486E0,-1.468594968E-1,-1.310070455E-1,9.904491425E0
4.361254757E0,-1.468594968E-1,-1.381855011E-1,9.887741089E0
4.363698246E0,-1.420738399E-1,-1.357926875E-1,9.904491425E0
4.366142621E0,-1.516451389E-1,-1.357926875E-1,9.887741089E0
4.368587725E0,-1.588236094E-1,-1.333998591E-1,9.897313118E0
4.371031996E0,-1.612164229E-1,-1.453639716E-1,9.882955551E0
4.373475486E0,-1.492523104E-1,-1.453639716E-1,9.875777245E0
4.375919861E0,-1.396810263E-1,-1.357926875E-1,9.885348320E0
4.378364965E0,-1.420738399E-1,-1.381855011E-1,9.892526627E0
4.380809236E0,-1.540379524E-1,-1.453639716E-1,9.885348320E0
4.383252725E0,-1.468594968E-1,-1.453639716E-1,9.887741089E0
4.385697100E0,-1.516451389E-1,-1.333998591E-1,9.866206169E0
4.388142205E0,-1.516451389E-1,-1.480558962E-1,9.880562782E0
4.390586475E0,-1.348953694E-1,-1.381855011E-1,9.890133858E0
4.393029965E0,-1.516451389E-1,-1.357926875E-1,9.899705887E0
4.395474340E0,-1.301097274E-1,-1.528415531E-1,9.902098656E0
4.397919444E0,-1.325025558E-1,-1.310070455E-1,9.894919395E0
4.400363715E0,-1.325025558E-1,-1.429711580E-1,9.902098656E0
4.402807205E0,-1.396810263E-1,-1.286142170E-1,9.868598938E0
4.405251580E0,-1.731805354E-1,-1.453639716E-1,9.887741089E0
4.407696684E0,-1.468594968E-1,-1.381855011E-1,9.890133858E0
4.410140955E0,-1.540379524E-1,-1.333998591E-1,9.894919395E0
4.412584444E0,-1.229312643E-1,-1.310070455E-1,9.892526627E0
4.415028819E0,-1.253240854E-1,-1.600200087E-1,9.880562782E0
4.417473923E0,-1.325025558E-1,-1.405783296E-1,9.890133858E0
4.419918194E0,-1.492523104E-1,-1.381855011E-1,9.890133858E0
4.422361684E0,-1.468594968E-1,-1.504487246E-1,9.885348320E0
4.424806059E0,-1.229312643E-1,-1.310070455E-1,9.868598938E0
4.427251163E0,-1.492523104E-1,-1.480558962E-1,9.882955551E0
4.429695434E0,-1.277169138E-1,-1.381855011E-1,9.909276962E0
4.432138923E0,-1.348953694E-1,-1.480558962E-1,9.885348320E0
4.434583298E0,-1.348953694E-1,-1.357926875E-1,9.909276962E0
4.437028403E0,-1.420738399E-1,-1.429711580E-1,9.899705887E0
4.439472673E0,-1.516451389E-1,-1.405783296E-1,9.918848038E0
4.441916215E0,-1.372881979E-1,-1.262213886E-1,9.890133858E0
4.444360486E0,-1.348953694E-1,-1.333998591E-1,9.899705887E0
4.446805642E0,-1.348953694E-1,-1.357926875E-1,9.911669731E0
4.449249913E0,-1.420738399E-1,-1.381855011E-1,9.892526627E0
4.451693455E0,-1.325025558E-1,-1.576271951E-1,9.890133858E0
4.454137725E0,-1.348953694E-1,-1.286142170E-1,9.894919395E0
4.456582882E0,-1.253240854E-1,-1.429711580E-1,9.892526627E0
4.459027153E0,-1.612164229E-1,-1.504487246E-1,9.892526627E0
4.461470694E0,-1.301097274E-1,-1.286142170E-1,9.887741089E0
4.463915069E0,-1.253240854E-1,-1.381855011E-1,9.880562782E0
4.466360121E0,-1.396810263E-1,-1.286142170E-1,9.890133858E0
4.468804392E0,-1.444666684E-1,-1.405783296E-1,9.890133858E0
4.471247934E0,-1.468594968E-1,-1.504487246E-1,9.880562782E0
4.473692205E0,-1.325025558E-1,-1.214357466E-1,9.885348320E0
4.476137413E0,-1.588236094E-1,-1.286142170E-1,9.873384476E0
4.478581632E0,-1.348953694E-1,-1.381855011E-1,9.897313118E0
4.481025173E0,-1.348953694E-1,-1.333998591E-1,9.873384476E0
4.483469548E0,-1.612164229E-1,-1.429711580E-1,9.906884193E0
4.485914653E0,-1.348953694E-1,-1.405783296E-1,9.899705887E0
4.488358871E0,-1.277169138E-1,-1.357926875E-1,9.897313118E0
4.490802413E0,-1.444666684E-1,-1.357926875E-1,9.882955551E0
4.493246788E0,-1.540379524E-1,-1.238285750E-1,9.890133858E0
4.495691892E0,-1.468594968E-1,-1.238285750E-1,9.856635094E0
4.498136111E0,-1.540379524E-1,-1.357926875E-1,9.870991707E0
4.500579653E0,-1.325025558E-1,-1.357926875E-1,9.887741089E0
4.503024028E0,-1.420738399E-1,-1.600200087E-1,9.892526627E0
4.505469132E0,-1.492523104E-1,-1.405783296E-1,9.890133858E0
4.507913403E0,-1.588236094E-1,-1.238285750E-1,9.880562782E0
4.510356892E0,-1.468594968E-1,-1.190429255E-1,9.878170013E0
4.512801267E0,-1.444666684E-1,-1.453639716E-1,9.866206169E0
4.515246371E0,-1.372881979E-1,-1.429711580E-1,9.897313118E0
4.517690642E0,-1.348953694E-1,-1.600200087E-1,9.890133858E0
4.520134132E0,-1.420738399E-1,-1.528415531E-1,9.904491425E0
4.522578507E0,-1.372881979E-1,-1.429711580E-1,9.899705887E0
4.525023611E0,-1.396810263E-1,-1.357926875E-1,9.902098656E0
4.527467882E0,-1.348953694E-1,-1.528415531E-1,9.909276962E0
4.529911371E0,-1.468594968E-1,-1.333998591E-1,9.899705887E0
4.532355746E0,-1.372881979E-1,-1.381855011E-1,9.911669731E0
4.534800850E0,-1.516451389E-1,-1.576271951E-1,9.902098656E0
4.537245121E0,-1.444666684E-1,-1.310070455E-1,9.897313118E0
4.539688611E0,-1.396810263E-1,-1.286142170E-1,9.897313118E0
4.542132986E0,-1.372881979E-1,-1.480558962E-1,9.894919395E0
4.544578090E0,-1.636092514E-1,-1.214357466E-1,9.873384476E0
4.547022361E0,-1.492523104E-1,-1.310070455E-1,9.906884193E0
4.549465850E0,-1.301097274E-1,-1.504487246E-1,9.897313118E0
4.551910225E0,-1.348953694E-1,-1.480558962E-1,9.899705887E0
4.554355330E0,-1.325025558E-1,-1.504487246E-1,9.882955551E0
4.556799600E0,-1.325025558E-1,-1.333998591E-1,9.875777245E0
4.559243090E0,-1.612164229E-1,-1.333998591E-1,9.887741089E0
4.561687465E0,-1.420738399E-1,-1.453639716E-1,9.892526627E0
4.564132569E0,-1.420738399E-1,-1.405783296E-1,9.885348320E0
4.566576840E0,-1.468594968E-1,-1.190429255E-1,9.892526627E0
4.569020330E0,-1.253240854E-1,-1.310070455E-1,9.875777245E0
4.571464705E0,-1.492523104E-1,-1.480558962E-1,9.887741089E0
4.573909809E0,-1.348953694E-1,-1.480558962E-1,9.885348320E0
4.576354080E0,-1.540379524E-1,-1.333998591E-1,9.890133858E0
4.578797569E0,-1.277169138E-1,-1.333998591E-1,9.885348320E0
4.581241944E0,-1.348953694E-1,-1.453639716E-1,9.887741089E0
4.583687048E0,-1.516451389E-1,-1.429711580E-1,9.880562782E0
4.586131319E0,-1.564307809E-1,-1.381855011E-1,9.882955551E0
4.588574809E0,-1.492523104E-1,-1.333998591E-1,9.890133858E0
4.591019184E0,-1.372881979E-1,-1.286142170E-1,9.892526627E0
4.593464288E0,-1.372881979E-1,-1.429711580E-1,9.885348320E0
4.595908559E0,-1.396810263E-1,-1.286142170E-1,9.897313118E0
4.598352100E0,-1.420738399E-1,-1.480558962E-1,9.868598938E0
4.600796371E0,-1.420738399E-1,-1.333998591E-1,9.899705887E0
4.603241528E0,-1.588236094E-1,-1.333998591E-1,9.885348320E0
4.605685798E0,-1.301097274E-1,-1.333998591E-1,9.906884193E0
4.608129340E0,-1.277169138E-1,-1.333998591E-1,9.887741089E0
4.610573611E0,-1.372881979E-1,-1.238285750E-1,9.902098656E0
4.613018767E0,-1.516451389E-1,-1.333998591E-1,9.890133858E0
4.615463038E0,-1.396810263E-1,-1.286142170E-1,9.875777245E0
4.617906580E0,-1.277169138E-1,-1.357926875E-1,9.894919395E0
4.620350850E0,-1.612164229E-1,-1.238285750E-1,9.885348320E0
4.622796007E0,-1.420738399E-1,-1.262213886E-1,9.880562782E0
4.625240278E0,-1.301097274E-1,-1.357926875E-1,9.887741089E0
4.627683819E0,-1.133599728E-1,-1.429711580E-1,9.890133858E0
4.630128090E0,-1.516451389E-1,-1.453639716E-1,9.894919395E0
4.632573298E0,-1.420738399E-1,-1.357926875E-1,9.894919395E0
4.635017517E0,-1.444666684E-1,-1.552343667E-1,9.880562782E0
4.637461059E0,-1.516451389E-1,-1.381855011E-1,9.892526627E0
4.639905434E0,-1.325025558E-1,-1.552343667E-1,9.890133858E0
4.642350486E0,-1.372881979E-1,-1.429711580E-1,9.878170013E0
4.644794757E0,-1.301097274E-1,-1.333998591E-1,9.875777245E0
4.647238298E0,-1.348953694E-1,-1.429711580E-1,9.875777245E0
4.649682569E0,-1.468594968E-1,-1.552343667E-1,9.904491425E0
4.652127778E0,-1.325025558E-1,-1.600200087E-1,9.882955551E0
4.654571996E0,-1.325025558E-1,-1.552343667E-1,9.899705887E0
4.657015538E0,-1.372881979E-1,-1.453639716E-1,9.909276962E0
4.659459913E0,-1.277169138E-1,-1.429711580E-1,9.897313118E0
4.661905017E0,-1.516451389E-1,-1.357926875E-1,9.873384476E0
4.664349236E0,-1.492523104E-1,-1.576271951E-1,9.870991707E0
4.666792778E0,-1.444666684E-1,-1.405783296E-1,9.887741089E0
4.669237153E0,-1.444666684E-1,-1.576271951E-1,9.897313118E0
4.671682257E0,-1.564307809E-1,-1.238285750E-1,9.866206169E0
4.674126475E0,-1.301097274E-1,-1.528415531E-1,9.878170013E0
4.676570017E0,-1.492523104E-1,-1.480558962E-1,9.899705887E0
4.679014392E0,-1.420738399E-1,-1.357926875E-1,9.904491425E0
4.681459496E0,-1.540379524E-1,-1.405783296E-1,9.866206169E0
4.683903715E0,-1.492523104E-1,-1.262213886E-1,9.887741089E0
4.686347257E0,-1.468594968E-1,-1.453639716E-1,9.866206169E0
4.688791632E0,-1.348953694E-1,-1.405783296E-1,9.880562782E0
4.691236736E0,-1.325025558E-1,-1.528415531E-1,9.897313118E0
4.693681007E0,-1.325025558E-1,-1.480558962E-1,9.902098656E0
4.696124496E0,-1.468594968E-1,-1.480558962E-1,9.887741089E0
4.698568871E0,-1.492523104E-1,-1.504487246E-1,9.882955551E0
4.701013975E0,-1.277169138E-1,-1.357926875E-1,9.882955551E0
4.703458246E0,-1.301097274E-1,-1.429711580E-1,9.887741089E0
4.705901736E0,-1.420738399E-1,-1.381855011E-1,9.892526627E0
4.708346111E0,-1.540379524E-1,-1.381855011E-1,9.868598938E0
4.710791215E0,-1.348953694E-1,-1.405783296E-1,9.897313118E0
4.713235486E0,-1.277169138E-1,-1.480558962E-1,9.906884193E0
4.715678975E0,-1.325025558E-1,-1.405783296E-1,9.892526627E0
4.718123350E0,-1.492523104E-1,-1.405783296E-1,9.899705887E0
4.720568455E0,-1.253240854E-1,-1.238285750E-1,9.880562782E0
4.723012725E0,-1.372881979E-1,-1.357926875E-1,9.875777245E0
4.725456215E0,-1.420738399E-1,-1.480558962E-1,9.882955551E0
4.727900590E0,-1.325025558E-1,-1.310070455E-1,9.904491425E0
4.730345694E0,-1.564307809E-1,-1.453639716E-1,9.892526627E0
4.732789965E0,-1.205384433E-1,-1.190429255E-1,9.914062500E0
4.735233455E0,-1.301097274E-1,-1.357926875E-1,9.887741089E0
4.737677830E0,-1.348953694E-1,-1.357926875E-1,9.899705887E0
4.740122934E0,-1.348953694E-1,-1.453639716E-1,9.890133858E0
4.742567205E0,-1.325025558E-1,-1.405783296E-1,9.880562782E0
4.745010694E0,-1.516451389E-1,-1.310070455E-1,9.873384476E0
4.747455069E0,-1.516451389E-1,-1.552343667E-1,9.892526627E0
4.749900173E0,-1.564307809E-1,-1.333998591E-1,9.880562782E0
4.752344444E0,-1.444666684E-1,-1.166501045E-1,9.866206169E0
4.754787934E0,-1.301097274E-1,-1.214357466E-1,9.878170013E0
4.757232309E0,-1.301097274E-1,-1.333998591E-1,9.890133858E0
4.759677413E0,-1.420738399E-1,-1.286142170E-1,9.897313118E0
4.762121684E0,-1.588236094E-1,-1.429711580E-1,9.868598938E0
4.764565173E0,-1.444666684E-1,-1.429711580E-1,9.870991707E0
4.767009548E0,-1.396810263E-1,-1.405783296E-1,9.928419113E0
4.769454653E0,-1.564307809E-1,-1.429711580E-1,9.887741089E0
4.771898923E0,-1.540379524E-1,-1.504487246E-1,9.887741089E0
4.774342413E0,-1.372881979E-1,-1.504487246E-1,9.882955551E0
4.776786788E0,-1.396810263E-1,-1.381855011E-1,9.906884193E0
4.779231892E0,-1.348953694E-1,-1.405783296E-1,9.902098656E0
4.781676163E0,-1.325025558E-1,-1.624128371E-1,9.890133858E0
4.784119653E0,-1.444666684E-1,-1.381855011E-1,9.916455269E0
4.786564028E0,-1.420738399E-1,-1.357926875E-1,9.890133858E0
4.789009132E0,-1.444666684E-1,-1.429711580E-1,9.902098656E0
4.791453403E0,-1.444666684E-1,-1.552343667E-1,9.899705887E0
4.793896944E0,-1.564307809E-1,-1.333998591E-1,9.885348320E0
4.796341215E0,-1.420738399E-1,-1.429711580E-1,9.902098656E0
4.798786371E0,-1.492523104E-1,-1.286142170E-1,9.859027863E0
4.801230642E0,-1.420738399E-1,-1.504487246E-1,9.866206169E0
4.803674184E0,-1.444666684E-1,-1.405783296E-1,9.902098656E0
4.806118455E0,-1.348953694E-1,-1.429711580E-1,9.880562782E0
4.808563611E0,-1.540379524E-1,-1.381855011E-1,9.863813400E0
4.811007882E0,-1.516451389E-1,-1.695913076E-1,9.875777245E0
4.813451423E0,-1.588236094E-1,-1.504487246E-1,9.885348320E0
4.815895694E0,-1.660020649E-1,-1.504487246E-1,9.887741089E0
4.818340850E0,-1.468594968E-1,-1.381855011E-1,9.885348320E0
4.820785121E0,-1.492523104E-1,-1.333998591E-1,9.887741089E0
4.823228663E0,-1.468594968E-1,-1.238285750E-1,9.875777245E0
4.825672934E0,-1.516451389E-1,-1.528415531E-1,9.887741089E0
4.828118090E0,-1.516451389E-1,-1.333998591E-1,9.894919395E0
4.830562361E0,-1.420738399E-1,-1.286142170E-1,9.866206169E0
4.833005903E0,-1.468594968E-1,-1.480558962E-1,9.866206169E0
4.835450278E0,-1.444666684E-1,-1.429711580E-1,9.861420631E0
4.837895330E0,-1.229312643E-1,-1.381855011E-1,9.885348320E0
4.840339600E0,-1.277169138E-1,-1.333998591E-1,9.868598938E0
4.842783142E0,-1.205384433E-1,-1.310070455E-1,9.892526627E0
4.845227517E0,-1.396810263E-1,-1.142572835E-1,9.880562782E0
4.847672569E0,-1.325025558E-1,-1.381855011E-1,9.892526627E0
4.850116840E0,-1.348953694E-1,-1.286142170E-1,9.897313118E0
4.852560382E0,-1.468594968E-1,-1.214357466E-1,9.897313118E0
4.855004757E0,-1.444666684E-1,-1.405783296E-1,9.878170013E0
4.857449861E0,-1.396810263E-1,-1.357926875E-1,9.899705887E0
4.859894080E0,-1.516451389E-1,-1.262213886E-1,9.887741089E0
4.862337621E0,-1.540379524E-1,-1.333998591E-1,9.894919395E0
4.864781996E0,-1.492523104E-1,-1.480558962E-1,9.880562782E0
4.867227100E0,-1.420738399E-1,-1.070788130E-1,9.880562782E0
4.869671319E0,-1.325025558E-1,-1.480558962E-1,9.906884193E0
4.872114861E0,-1.396810263E-1,-1.238285750E-1,9.902098656E0
4.874559236E0,-1.229312643E-1,-1.262213886E-1,9.863813400E0
4.877004340E0,-1.348953694E-1,-1.238285750E-1,9.887741089E0
4.879448559E0,-1.372881979E-1,-1.504487246E-1,9.885348320E0
4.881892100E0,-1.325025558E-1,-1.357926875E-1,9.880562782E0
4.884336475E0,-1.444666684E-1,-1.286142170E-1,9.887741089E0
4.886781580E0,-1.468594968E-1,-1.429711580E-1,9.909276962E0
4.889225798E0,-1.492523104E-1,-1.528415531E-1,9.914062500E0
4.891669340E0,-1.492523104E-1,-1.381855011E-1,9.859027863E0
4.894113715E0,-1.277169138E-1,-1.405783296E-1,9.885348320E0
