"Time (s)","Gyroscope x (rad/s)","Gyroscope y (rad/s)","Gyroscope z (rad/s)"
1.337380380E-1,1.527118147E-4,6.108472589E-4,-2.290677279E-3
1.361822570E-1,2.596100792E-3,-6.108472589E-4,1.527118147E-4
1.386257980E-1,2.596100792E-3,6.108472589E-4,1.527118147E-4
1.410701730E-1,-1.068982761E-3,-6.108472589E-4,-1.068982761E-3
1.435152780E-1,-1.068982761E-3,-6.108472589E-4,-2.290677279E-3
1.459595480E-1,-1.068982761E-3,-6.108472589E-4,-7.177455351E-3
1.484030380E-1,1.527118147E-4,6.108472589E-4,-2.290677279E-3
1.508474130E-1,1.527118147E-4,1.832541777E-3,-1.068982761E-3
1.532925170E-1,1.527118147E-4,-6.108472589E-4,1.374406274E-3
1.557367880E-1,1.527118147E-4,-6.108472589E-4,1.374406274E-3
1.581803300E-1,1.527118147E-4,6.108472589E-4,-3.512371797E-3
1.606247050E-1,1.374406274E-3,-6.108472589E-4,1.527118147E-4
1.630698090E-1,-1.068982761E-3,6.108472589E-4,-3.512371797E-3
1.655140800E-1,-1.068982761E-3,6.108472589E-4,-2.290677279E-3
1.679575690E-1,1.527118147E-4,6.108472589E-4,1.527118147E-4
1.704019440E-1,1.374406274E-3,-6.108472589E-4,2.596100792E-3
1.728470480E-1,1.527118147E-4,-6.108472589E-4,1.374406274E-3
1.752913190E-1,2.596100792E-3,-6.108472589E-4,1.374406274E-3
1.777348610E-1,1.527118147E-4,-3.054236295E-3,1.527118147E-4
1.801791320E-1,1.527118147E-4,-6.108472589E-4,-3.512371797E-3
1.826242880E-1,-1.068982761E-3,-6.108472589E-4,-1.068982761E-3
1.850685590E-1,1.374406274E-3,-1.832541777E-3,1.527118147E-4
1.875121000E-1,1.374406274E-3,6.108472589E-4,1.374406274E-3
1.899564750E-1,-1.068982761E-3,1.832541777E-3,-1.068982761E-3
1.924015800E-1,1.527118147E-4,-6.108472589E-4,-2.290677279E-3
1.948458500E-1,-1.068982761E-3,6.108472589E-4,-1.068982761E-3
1.972893400E-1,-1.068982761E-3,6.108472589E-4,-4.734066315E-3
1.997337150E-1,1.374406274E-3,-6.108472589E-4,1.374406274E-3
2.021788190E-1,1.374406274E-3,6.108472589E-4,-2.290677279E-3
2.046230900E-1,1.527118147E-4,-6.108472589E-4,1.527118147E-4
2.070666320E-1,1.527118147E-4,1.832541777E-3,2.596100792E-3
2.095110070E-1,1.527118147E-4,-6.108472589E-4,-1.068982761E-3
2.119561110E-1,-2.290677279E-3,-6.108472589E-4,-5.955760833E-3
2.144003300E-1,1.527118147E-4,6.108472589E-4,1.527118147E-4
2.168438710E-1,-1.068982761E-3,6.108472589E-4,1.527118147E-4
2.192882460E-1,-1.068982761E-3,6.108472589E-4,-4.734066315E-3
2.217333500E-1,-1.068982761E-3,-6.108472589E-4,-2.290677279E-3
2.241776210E-1,1.527118147E-4,6.108472589E-4,1.527118147E-4
2.266211110E-1,1.527118147E-4,6.108472589E-4,1.374406274E-3
2.290654860E-1,-1.068982761E-3,6.108472589E-4,-2.290677279E-3
2.315105900E-1,1.527118147E-4,-6.108472589E-4,-3.512371797E-3
2.339548610E-1,1.374406274E-3,-6.108472589E-4,1.527118147E-4
2.363984030E-1,1.527118147E-4,1.832541777E-3,-1.068982761E-3
2.388427780E-1,1.527118147E-4,-6.108472589E-4,1.527118147E-4
2.412878820E-1,1.527118147E-4,6.108472589E-4,-1.068982761E-3
2.437321530E-1,-1.068982761E-3,6.108472589E-4,1.527118147E-4
2.461756420E-1,1.527118147E-4,6.108472589E-4,-1.068982761E-3
2.486200170E-1,1.374406274E-3,-6.108472589E-4,-1.068982761E-3
2.510651210E-1,1.527118147E-4,1.832541777E-3,1.527118147E-4
2.535093920E-1,1.527118147E-4,6.108472589E-4,-2.290677279E-3
2.559529340E-1,1.527118147E-4,6.108472589E-4,-1.068982761E-3
2.583972050E-1,-1.068982761E-3,-6.108472589E-4,-2.290677279E-3
2.608424130E-1,1.527118147E-4,6.108472589E-4,1.374406274E-3
2.632866320E-1,1.374406274E-3,6.108472589E-4,1.527118147E-4
2.657301730E-1,-2.290677279E-3,1.832541777E-3,-5.955760833E-3
2.681745480E-1,1.527118147E-4,-6.108472589E-4,-2.290677279E-3
2.706196530E-1,1.527118147E-4,-6.108472589E-4,1.374406274E-3
2.730639230E-1,-1.068982761E-3,6.108472589E-4,-3.512371797E-3
2.755074130E-1,1.527118147E-4,-6.108472589E-4,-1.068982761E-3
2.779517880E-1,1.527118147E-4,3.054236295E-3,1.374406274E-3
2.803968920E-1,-1.068982761E-3,1.832541777E-3,-1.068982761E-3
2.828411630E-1,1.527118147E-4,-1.832541777E-3,-1.068982761E-3
2.852847050E-1,1.527118147E-4,-1.832541777E-3,1.527118147E-4
2.877290800E-1,-1.068982761E-3,6.108472589E-4,2.596100792E-3
2.901741840E-1,1.527118147E-4,1.832541777E-3,-1.068982761E-3
2.926184550E-1,1.374406274E-3,6.108472589E-4,-3.512371797E-3
2.950619440E-1,-2.290677279E-3,-6.108472589E-4,-1.068982761E-3
2.975063190E-1,1.527118147E-4,-6.108472589E-4,2.596100792E-3
2.999514230E-1,1.527118147E-4,1.832541777E-3,-2.290677279E-3
3.023956940E-1,1.527118147E-4,-1.832541777E-3,-2.290677279E-3
3.048392360E-1,1.527118147E-4,-3.054236295E-3,-1.068982761E-3
3.072835070E-1,1.527118147E-4,-1.832541777E-3,1.527118147E-4
3.097287150E-1,-1.068982761E-3,6.108472589E-4,-1.068982761E-3
3.121729340E-1,1.374406274E-3,-1.832541777E-3,1.527118147E-4
3.146164750E-1,-1.068982761E-3,6.108472589E-4,-1.068982761E-3
3.170608500E-1,2.596100792E-3,-6.108472589E-4,1.374406274E-3
3.195059550E-1,1.374406274E-3,-1.832541777E-3,-3.512371797E-3
3.219502250E-1,1.527118147E-4,-6.108472589E-4,-1.068982761E-3
3.243937150E-1,1.527118147E-4,-1.832541777E-3,2.596100792E-3
3.268380900E-1,-1.068982761E-3,6.108472589E-4,1.527118147E-4
3.292831940E-1,1.527118147E-4,6.108472589E-4,-4.734066315E-3
3.317274650E-1,1.527118147E-4,-6.108472589E-4,1.374406274E-3
3.341710070E-1,1.374406274E-3,-6.108472589E-4,1.374406274E-3
3.366153820E-1,1.374406274E-3,-6.108472589E-4,-1.068982761E-3
3.390604860E-1,1.527118147E-4,6.108472589E-4,-3.512371797E-3
3.415047570E-1,1.527118147E-4,-1.832541777E-3,-3.512371797E-3
3.439482460E-1,1.527118147E-4,-6.108472589E-4,-1.068982761E-3
3.463926210E-1,1.527118147E-4,-6.108472589E-4,1.527118147E-4
3.488377250E-1,-1.068982761E-3,-1.832541777E-3,-1.068982761E-3
3.512819960E-1,-1.068982761E-3,6.108472589E-4,-4.734066315E-3
3.537254860E-1,1.527118147E-4,6.108472589E-4,-2.290677279E-3
3.561698610E-1,1.527118147E-4,6.108472589E-4,1.527118147E-4
3.586149650E-1,1.527118147E-4,-1.832541777E-3,-2.290677279E-3
3.610592360E-1,1.527118147E-4,-6.108472589E-4,-2.290677279E-3
3.635027780E-1,-1.068982761E-3,6.108472589E-4,1.374406274E-3
3.659471530E-1,-1.068982761E-3,1.832541777E-3,-1.068982761E-3
3.683922570E-1,1.527118147E-4,-6.108472589E-4,-2.290677279E-3
3.708365280E-1,1.374406274E-3,-6.108472589E-4,-1.068982761E-3
3.732800170E-1,-1.068982761E-3,6.108472589E-4,-2.290677279E-3
3.757243920E-1,-2.290677279E-3,1.832541777E-3,-2.290677279E-3
3.781694960E-1,1.527118147E-4,6.108472589E-4,-2.290677279E-3
3.806137670E-1,1.527118147E-4,6.108472589E-4,1.527118147E-4
3.830573090E-1,-2.290677279E-3,6.108472589E-4,1.374406274E-3
3.855015800E-1,1.527118147E-4,6.108472589E-4,-1.068982761E-3
3.879467880E-1,1.374406274E-3,-6.108472589E-4,1.527118147E-4
3.903910070E-1,1.527118147E-4,6.108472589E-4,-1.068982761E-3
3.928345480E-1,-2.290677279E-3,6.108472589E-4,-1.068982761E-3
3.952789230E-1,-1.068982761E-3,6.108472589E-4,1.527118147E-4
3.977240280E-1,1.374406274E-3,-1.832541777E-3,1.527118147E-4
4.001682980E-1,1.527118147E-4,-6.108472589E-4,1.374406274E-3
4.026117880E-1,-1.068982761E-3,-6.108472589E-4,-1.068982761E-3
4.050561630E-1,1.527118147E-4,1.832541777E-3,1.374406274E-3
4.075012670E-1,1.527118147E-4,-6.108472589E-4,-1.068982761E-3
4.099455380E-1,-1.068982761E-3,6.108472589E-4,-3.512371797E-3
4.123890800E-1,-2.290677279E-3,-6.108472589E-4,-3.512371797E-3
4.148334550E-1,1.527118147E-4,-1.832541777E-3,1.374406274E-3
4.172785590E-1,-1.068982761E-3,6.108472589E-4,1.527118147E-4
4.197228300E-1,1.527118147E-4,-6.108472589E-4,1.374406274E-3
4.221663190E-1,1.527118147E-4,-1.832541777E-3,1.527118147E-4
4.246106940E-1,1.374406274E-3,-6.108472589E-4,1.374406274E-3
4.270557980E-1,1.374406274E-3,6.108472589E-4,1.374406274E-3
4.295000690E-1,1.374406274E-3,6.108472589E-4,1.374406274E-3
4.319436110E-1,-1.068982761E-3,6.108472589E-4,-3.512371797E-3
4.343878820E-1,1.527118147E-4,-1.832541777E-3,2.596100792E-3
4.368330380E-1,-2.290677279E-3,6.108472589E-4,-1.068982761E-3
4.392773090E-1,-1.068982761E-3,1.832541777E-3,-1.068982761E-3
4.417208500E-1,1.527118147E-4,6.108472589E-4,-1.068982761E-3
4.441652250E-1,-1.068982761E-3,-1.832541777E-3,-4.734066315E-3
4.466103300E-1,1.374406274E-3,-6.108472589E-4,1.374406274E-3
4.490546000E-1,-1.068982761E-3,-6.108472589E-4,-2.290677279E-3
4.514980900E-1,2.596100792E-3,-1.832541777E-3,-2.290677279E-3
4.539424650E-1,1.527118147E-4,-6.108472589E-4,-2.290677279E-3
4.563875690E-1,1.527118147E-4,6.108472589E-4,3.817795310E-3
4.588318400E-1,1.374406274E-3,-6.108472589E-4,2.596100792E-3
4.612753820E-1,1.527118147E-4,6.108472589E-4,1.527118147E-4
4.637196530E-1,1.527118147E-4,-1.832541777E-3,1.527118147E-4
4.661648610E-1,-1.068982761E-3,-1.832541777E-3,-1.068982761E-3
4.686090800E-1,1.527118147E-4,6.108472589E-4,-2.290677279E-3
4.710526210E-1,1.374406274E-3,-6.108472589E-4,-3.512371797E-3
4.734969960E-1,1.374406274E-3,6.108472589E-4,-1.068982761E-3
4.759421000E-1,1.527118147E-4,1.832541777E-3,1.374406274E-3
4.783863710E-1,1.527118147E-4,-1.832541777E-3,1.527118147E-4
4.808298610E-1,1.527118147E-4,-6.108472589E-4,-1.068982761E-3
4.832742360E-1,1.374406274E-3,6.108472589E-4,1.527118147E-4
4.857193400E-1,5.039489828E-3,-6.108472589E-4,1.374406274E-3
4.881636110E-1,1.527118147E-4,-6.108472589E-4,1.527118147E-4
4.906071530E-1,1.374406274E-3,-6.108472589E-4,5.039489828E-3
4.930515280E-1,-1.068982761E-3,6.108472589E-4,-2.290677279E-3
4.954966320E-1,1.527118147E-4,-6.108472589E-4,-1.068982761E-3
4.979409030E-1,1.527118147E-4,-6.108472589E-4,-1.068982761E-3
5.003843920E-1,1.527118147E-4,6.108472589E-4,1.527118147E-4
5.028287670E-1,-1.068982761E-3,-6.108472589E-4,-1.068982761E-3
5.052738710E-1,-1.068982761E-3,-6.108472589E-4,-2.290677279E-3
5.077181420E-1,1.527118147E-4,-6.108472589E-4,1.374406274E-3
5.101616840E-1,1.527118147E-4,-1.832541777E-3,2.596100792E-3
5.126059550E-1,2.596100792E-3,-1.832541777E-3,1.527118147E-4
5.150511630E-1,-1.068982761E-3,6.108472589E-4,-1.068982761E-3
5.174953820E-1,-1.068982761E-3,1.832541777E-3,1.527118147E-4
5.199389230E-1,-1.068982761E-3,6.108472589E-4,-2.290677279E-3
5.223832980E-1,1.527118147E-4,6.108472589E-4,-1.068982761E-3
5.248284030E-1,1.374406274E-3,-1.832541777E-3,-2.290677279E-3
5.272726730E-1,1.374406274E-3,-6.108472589E-4,1.527118147E-4
5.297161630E-1,1.527118147E-4,6.108472589E-4,-1.068982761E-3
5.321605380E-1,1.527118147E-4,6.108472589E-4,-3.512371797E-3
5.346056420E-1,1.527118147E-4,6.108472589E-4,1.527118147E-4
5.370499130E-1,1.527118147E-4,-6.108472589E-4,1.527118147E-4
5.394934550E-1,1.527118147E-4,-1.832541777E-3,-1.068982761E-3
5.419378300E-1,1.374406274E-3,-6.108472589E-4,3.817795310E-3
5.443829340E-1,1.527118147E-4,-1.832541777E-3,3.817795310E-3
5.468271530E-1,1.374406274E-3,-6.108472589E-4,2.596100792E-3
5.492706940E-1,1.374406274E-3,-6.108472589E-4,-1.068982761E-3
5.517150690E-1,1.527118147E-4,6.108472589E-4,-1.068982761E-3
5.541601730E-1,1.374406274E-3,6.108472589E-4,-1.068982761E-3
5.566044440E-1,-2.290677279E-3,-3.054236295E-3,-1.068982761E-3
5.590479340E-1,-1.068982761E-3,-1.832541777E-3,-1.068982761E-3
5.614923090E-1,-1.068982761E-3,-1.832541777E-3,1.527118147E-4
5.639374130E-1,-1.068982761E-3,-1.832541777E-3,1.527118147E-4
5.663816840E-1,1.527118147E-4,6.108472589E-4,1.527118147E-4
5.688252250E-1,1.374406274E-3,6.108472589E-4,-1.068982761E-3
5.712696000E-1,-1.068982761E-3,6.108472589E-4,-1.068982761E-3
5.737147050E-1,1.527118147E-4,-6.108472589E-4,-2.290677279E-3
5.761589230E-1,1.527118147E-4,6.108472589E-4,-1.068982761E-3
5.786024650E-1,1.374406274E-3,1.832541777E-3,-2.290677279E-3
5.810468400E-1,1.374406274E-3,-1.832541777E-3,1.527118147E-4
5.834919440E-1,-1.068982761E-3,-6.108472589E-4,2.596100792E-3
5.859362150E-1,1.527118147E-4,-6.108472589E-4,-1.068982761E-3
5.883797050E-1,1.374406274E-3,-1.832541777E-3,1.527118147E-4
5.908240800E-1,1.374406274E-3,-3.054236295E-3,-1.068982761E-3
5.932691840E-1,1.527118147E-4,6.108472589E-4,1.374406274E-3
5.957134550E-1,1.527118147E-4,1.832541777E-3,1.527118147E-4
5.981569960E-1,1.527118147E-4,-1.832541777E-3,1.374406274E-3
6.006013710E-1,-1.068982761E-3,-6.108472589E-4,1.527118147E-4
6.030464750E-1,1.527118147E-4,6.108472589E-4,1.527118147E-4
6.054907460E-1,1.527118147E-4,6.108472589E-4,1.527118147E-4
6.079342360E-1,1.527118147E-4,-6.108472589E-4,1.527118147E-4
6.103786110E-1,1.527118147E-4,-1.832541777E-3,-1.068982761E-3
6.128237150E-1,-1.068982761E-3,-6.108472589E-4,1.527118147E-4
6.152679860E-1,1.527118147E-4,1.832541777E-3,1.527118147E-4
6.177115280E-1,1.374406274E-3,-6.108472589E-4,1.527118147E-4
6.201557980E-1,1.527118147E-4,-6.108472589E-4,-1.068982761E-3
6.226009550E-1,1.527118147E-4,-6.108472589E-4,-1.068982761E-3
6.250452250E-1,1.527118147E-4,6.108472589E-4,1.527118147E-4
6.274887670E-1,1.527118147E-4,1.832541777E-3,-1.068982761E-3
6.299331420E-1,1.527118147E-4,-6.108472589E-4,1.527118147E-4
6.323782460E-1,1.374406274E-3,-6.108472589E-4,1.527118147E-4
6.348225170E-1,-1.068982761E-3,1.832541777E-3,1.527118147E-4
6.372660070E-1,1.374406274E-3,-6.108472589E-4,1.527118147E-4
6.397103820E-1,2.596100792E-3,6.108472589E-4,1.527118147E-4
6.421554860E-1,1.527118147E-4,-6.108472589E-4,1.527118147E-4
6.445997570E-1,1.374406274E-3,-6.108472589E-4,-2.290677279E-3
6.470432980E-1,1.374406274E-3,6.108472589E-4,-1.068982761E-3
6.494875690E-1,1.527118147E-4,6.108472589E-4,1.527118147E-4
6.519327780E-1,1.374406274E-3,-6.108472589E-4,1.527118147E-4
6.543769960E-1,1.374406274E-3,-6.108472589E-4,1.527118147E-4
6.568205380E-1,1.527118147E-4,-6.108472589E-4,-1.068982761E-3
6.592649130E-1,1.374406274E-3,6.108472589E-4,1.527118147E-4
6.617100170E-1,1.527118147E-4,-6.108472589E-4,1.527118147E-4
6.641542880E-1,1.374406274E-3,-6.108472589E-4,-1.068982761E-3
6.665977780E-1,1.527118147E-4,1.832541777E-3,-1.068982761E-3
6.690421530E-1,1.527118147E-4,-6.108472589E-4,1.527118147E-4
6.714872570E-1,1.527118147E-4,-6.108472589E-4,1.527118147E-4
6.739315280E-1,1.527118147E-4,6.108472589E-4,-2.290677279E-3
6.763750690E-1,-1.068982761E-3,1.832541777E-3,-1.068982761E-3
6.788194440E-1,1.527118147E-4,6.108472589E-4,1.374406274E-3
6.812645480E-1,-1.068982761E-3,-6.108472589E-4,-1.068982761E-3
6.837088190E-1,-1.068982761E-3,-1.832541777E-3,-2.290677279E-3
6.861523090E-1,1.527118147E-4,-6.108472589E-4,1.527118147E-4
6.885966840E-1,1.374406274E-3,-3.054236295E-3,1.374406274E-3
6.910417880E-1,1.527118147E-4,-6.719320081E-3,1.527118147E-4
6.934860590E-1,1.527118147E-4,6.108472589E-4,-1.068982761E-3
6.959295480E-1,-2.290677279E-3,3.054236295E-3,-1.068982761E-3
6.983739230E-1,1.527118147E-4,6.108472589E-4,1.527118147E-4
7.008190280E-1,-1.068982761E-3,6.108472589E-4,-1.068982761E-3
7.032632980E-1,1.527118147E-4,6.108472589E-4,1.374406274E-3
7.057068400E-1,1.374406274E-3,-6.108472589E-4,1.527118147E-4
7.081512150E-1,1.527118147E-4,6.108472589E-4,1.374406274E-3
7.105963190E-1,2.596100792E-3,6.108472589E-4,1.374406274E-3
7.130405900E-1,-1.068982761E-3,1.832541777E-3,-1.068982761E-3
7.154840800E-1,1.527118147E-4,-6.108472589E-4,1.527118147E-4
7.179284550E-1,1.374406274E-3,6.108472589E-4,1.374406274E-3
7.203735590E-1,1.527118147E-4,6.108472589E-4,1.374406274E-3
7.228178300E-1,1.527118147E-4,1.832541777E-3,1.374406274E-3
7.252613710E-1,2.596100792E-3,-6.108472589E-4,1.527118147E-4
7.277056420E-1,1.374406274E-3,-6.108472589E-4,1.527118147E-4
7.301507980E-1,1.374406274E-3,-1.832541777E-3,-2.290677279E-3
7.325950690E-1,1.527118147E-4,-6.108472589E-4,-3.512371797E-3
7.350386110E-1,1.374406274E-3,6.108472589E-4,1.374406274E-3
7.374829860E-1,-1.068982761E-3,6.108472589E-4,1.527118147E-4
7.399280900E-1,-1.068982761E-3,6.108472589E-4,1.527118147E-4
7.423723610E-1,1.527118147E-4,-6.108472589E-4,-1.068982761E-3
7.448158500E-1,1.527118147E-4,6.108472589E-4,-2.290677279E-3
7.472602250E-1,1.527118147E-4,1.832541777E-3,1.374406274E-3
7.497053300E-1,1.527118147E-4,-6.108472589E-4,1.374406274E-3
7.521496000E-1,1.527118147E-4,-6.108472589E-4,1.527118147E-4
7.545930900E-1,1.527118147E-4,1.832541777E-3,1.527118147E-4
7.570374650E-1,1.527118147E-4,6.108472589E-4,-1.068982761E-3
7.594825690E-1,1.527118147E-4,6.108472589E-4,-1.068982761E-3
7.619268400E-1,-1.068982761E-3,6.108472589E-4,-1.068982761E-3
7.643703820E-1,1.527118147E-4,3.054236295E-3,-1.068982761E-3
7.668147570E-1,1.374406274E-3,6.108472589E-4,1.527118147E-4
7.692598610E-1,1.527118147E-4,6.108472589E-4,1.527118147E-4
7.717041320E-1,-1.068982761E-3,6.108472589E-4,1.527118147E-4
7.741476210E-1,1.527118147E-4,-6.108472589E-4,1.527118147E-4
7.765919960E-1,-1.068982761E-3,-6.108472589E-4,-1.068982761E-3
7.790371000E-1,-2.290677279E-3,1.832541777E-3,-1.068982761E-3
7.814813710E-1,1.527118147E-4,-1.832541777E-3,1.527118147E-4
7.839249130E-1,1.527118147E-4,-6.108472589E-4,1.527118147E-4
7.863692880E-1,-1.068982761E-3,-1.832541777E-3,-2.290677279E-3
7.888143920E-1,1.527118147E-4,-1.832541777E-3,-2.290677279E-3
7.912586110E-1,-2.290677279E-3,-4.275931045E-3,-1.068982761E-3
7.937021530E-1,1.527118147E-4,6.108472589E-4,-1.068982761E-3
7.961465280E-1,-1.068982761E-3,6.108472589E-4,1.527118147E-4
7.985916320E-1,1.374406274E-3,6.108472589E-4,2.596100792E-3
8.010359030E-1,1.527118147E-4,6.108472589E-4,-2.290677279E-3
8.034793920E-1,1.527118147E-4,-6.108472589E-4,1.374406274E-3
8.059237670E-1,1.527118147E-4,6.108472589E-4,1.527118147E-4
8.083688710E-1,-1.068982761E-3,6.108472589E-4,1.527118147E-4
8.108131420E-1,1.527118147E-4,1.832541777E-3,-1.068982761E-3
8.132566840E-1,1.374406274E-3,-6.108472589E-4,1.527118147E-4
8.157010590E-1,1.527118147E-4,-6.108472589E-4,-1.068982761E-3
8.181461630E-1,1.527118147E-4,6.108472589E-4,-1.068982761E-3
8.205903820E-1,-1.068982761E-3,1.832541777E-3,-3.512371797E-3
8.230339230E-1,-1.068982761E-3,6.108472589E-4,-1.068982761E-3
8.254782980E-1,1.527118147E-4,1.832541777E-3,1.527118147E-4
8.279234030E-1,-1.068982761E-3,6.108472589E-4,1.527118147E-4
8.303676730E-1,1.374406274E-3,-6.108472589E-4,-1.068982761E-3
8.328111630E-1,-1.068982761E-3,-6.108472589E-4,1.527118147E-4
8.352555380E-1,1.527118147E-4,-1.832541777E-3,1.527118147E-4
8.377006420E-1,1.527118147E-4,6.108472589E-4,-1.068982761E-3
8.401449130E-1,1.527118147E-4,6.108472589E-4,-1.068982761E-3
8.425884550E-1,1.527118147E-4,6.108472589E-4,-2.290677279E-3
8.450328300E-1,1.374406274E-3,-6.108472589E-4,1.527118147E-4
8.474779340E-1,2.596100792E-3,1.832541777E-3,-1.068982761E-3
8.499221530E-1,1.374406274E-3,6.108472589E-4,-1.068982761E-3
8.523656940E-1,1.374406274E-3,6.108472589E-4,-2.290677279E-3
8.548100690E-1,1.527118147E-4,-6.108472589E-4,-1.068982761E-3
8.572551730E-1,-1.068982761E-3,1.832541777E-3,-3.512371797E-3
8.596994440E-1,1.374406274E-3,3.054236295E-3,1.527118147E-4
8.621429860E-1,1.527118147E-4,6.108472589E-4,1.527118147E-4
8.645872570E-1,-1.068982761E-3,1.832541777E-3,1.527118147E-4
8.670324130E-1,-1.068982761E-3,6.108472589E-4,1.374406274E-3
8.694766840E-1,1.527118147E-4,6.108472589E-4,-1.068982761E-3
8.719202250E-1,1.527118147E-4,-6.108472589E-4,-2.290677279E-3
8.743646000E-1,-1.068982761E-3,-6.108472589E-4,-1.068982761E-3
8.768097050E-1,1.374406274E-3,-1.832541777E-3,1.374406274E-3
8.792539230E-1,1.374406274E-3,-1.832541777E-3,-1.068982761E-3
8.816974650E-1,-1.068982761E-3,-6.108472589E-4,-4.734066315E-3
8.841418400E-1,1.374406274E-3,-1.832541777E-3,-1.068982761E-3
8.865869440E-1,-1.068982761E-3,-1.832541777E-3,-2.290677279E-3
8.890312150E-1,1.374406274E-3,-3.054236295E-3,1.374406274E-3
8.914747050E-1,1.374406274E-3,6.108472589E-4,2.596100792E-3
8.939190800E-1,1.374406274E-3,1.832541777E-3,1.527118147E-4
8.963641840E-1,1.374406274E-3,-1.832541777E-3,-2.290677279E-3
8.988084550E-1,1.527118147E-4,6.108472589E-4,-2.290677279E-3
9.012519960E-1,1.527118147E-4,6.108472589E-4,-3.512371797E-3
9.036963710E-1,-1.068982761E-3,-6.108472589E-4,-1.068982761E-3
9.061414750E-1,-1.068982761E-3,3.054236295E-3,1.374406274E-3
9.085857460E-1,1.374406274E-3,6.108472589E-4,-1.068982761E-3
9.110292360E-1,1.527118147E-4,6.108472589E-4,1.374406274E-3
9.134736110E-1,1.527118147E-4,6.108472589E-4,-2.290677279E-3
9.159187150E-1,1.374406274E-3,-6.108472589E-4,2.596100792E-3
9.183629860E-1,1.527118147E-4,1.832541777E-3,2.596100792E-3
9.208064750E-1,-2.290677279E-3,-1.832541777E-3,-3.512371797E-3
9.232508500E-1,1.527118147E-4,6.108472589E-4,1.527118147E-4
9.256959550E-1,1.527118147E-4,6.108472589E-4,1.527118147E-4
9.281402250E-1,-1.068982761E-3,6.108472589E-4,1.374406274E-3
9.305837670E-1,1.527118147E-4,6.108472589E-4,-1.068982761E-3
9.330281420E-1,-1.068982761E-3,-6.108472589E-4,-4.734066315E-3
9.354732460E-1,1.527118147E-4,6.108472589E-4,1.374406274E-3
9.379175170E-1,-1.068982761E-3,1.832541777E-3,1.527118147E-4
9.403610070E-1,1.527118147E-4,6.108472589E-4,1.527118147E-4
9.428053820E-1,1.374406274E-3,6.719320081E-3,-3.512371797E-3
9.452504860E-1,6.261184346E-3,-6.108472589E-4,-4.734066315E-3
9.476947570E-1,6.261184346E-3,-3.054236295E-3,1.527118147E-4
9.501382460E-1,3.817795310E-3,3.054236295E-3,2.596100792E-3
9.525826210E-1,1.527118147E-4,-6.108472589E-4,-1.068982761E-3
9.550277250E-1,-1.068982761E-3,-6.108472589E-4,-3.512371797E-3
9.574719960E-1,1.527118147E-4,-6.108472589E-4,2.596100792E-3
9.599155380E-1,1.374406274E-3,6.108472589E-4,1.374406274E-3
9.623599130E-1,1.374406274E-3,-1.832541777E-3,-1.068982761E-3
9.648050170E-1,-1.068982761E-3,-6.108472589E-4,1.527118147E-4
9.672492880E-1,-1.068982761E-3,6.108472589E-4,-1.068982761E-3
9.696927780E-1,-2.290677279E-3,1.832541777E-3,-2.290677279E-3
9.721371530E-1,1.374406274E-3,6.108472589E-4,-1.068982761E-3
9.745822570E-1,1.374406274E-3,-6.108472589E-4,-1.068982761E-3
9.770265280E-1,-1.068982761E-3,1.832541777E-3,1.374406274E-3
9.794700690E-1,-2.290677279E-3,1.832541777E-3,-1.068982761E-3
9.819143400E-1,1.527118147E-4,6.108472589E-4,-2.290677279E-3
9.843594960E-1,-1.068982761E-3,-6.108472589E-4,-1.068982761E-3
9.868037670E-1,-1.068982761E-3,6.108472589E-4,1.527118147E-4
9.892473090E-1,1.527118147E-4,1.832541777E-3,2.596100792E-3
9.916916840E-1,1.374406274E-3,-1.832541777E-3,2.596100792E-3
9.941367880E-1,-1.068982761E-3,-6.108472589E-4,1.374406274E-3
9.965810590E-1,-2.290677279E-3,6.108472589E-4,-1.068982761E-3
9.990245480E-1,1.527118147E-4,6.108472589E-4,-2.290677279E-3
1.001468923E0,1.527118147E-4,-6.108472589E-4,1.527118147E-4
1.003914028E0,1.527118147E-4,6.108472589E-4,1.527118147E-4
1.006358298E0,1.527118147E-4,-1.832541777E-3,1.527118147E-4
1.008801788E0,1.374406274E-3,-1.832541777E-3,-2.290677279E-3
1.011246163E0,1.374406274E-3,-6.108472589E-4,-1.068982761E-3
1.013691267E0,1.527118147E-4,-1.832541777E-3,1.527118147E-4
1.016135538E0,1.527118147E-4,-3.054236295E-3,2.596100792E-3
1.018579080E0,-2.290677279E-3,6.108472589E-4,-1.068982761E-3
1.021023455E0,-2.290677279E-3,1.832541777E-3,-3.512371797E-3
1.023468559E0,-2.290677279E-3,6.108472589E-4,-4.734066315E-3
1.025912830E0,1.527118147E-4,-6.108472589E-4,-1.068982761E-3
1.028356319E0,1.527118147E-4,-6.108472589E-4,1.527118147E-4
1.030800694E0,-1.068982761E-3,-6.108472589E-4,1.527118147E-4
1.033245798E0,1.374406274E-3,6.108472589E-4,-1.068982761E-3
1.035690069E0,1.527118147E-4,-6.108472589E-4,-1.068982761E-3
1.038133611E0,2.596100792E-3,6.108472589E-4,1.527118147E-4
1.040577882E0,-1.068982761E-3,-6.108472589E-4,1.527118147E-4
1.043023038E0,1.374406274E-3,-6.108472589E-4,1.527118147E-4
1.045467309E0,-1.068982761E-3,-6.108472589E-4,-1.068982761E-3
1.047910850E0,-1.068982761E-3,-6.108472589E-4,1.374406274E-3
1.050355225E0,1.527118147E-4,-6.108472589E-4,-1.068982761E-3
1.052800330E0,1.374406274E-3,-6.108472589E-4,-1.068982761E-3
1.055244600E0,1.527118147E-4,-6.108472589E-4,1.527118147E-4
1.057688090E0,1.374406274E-3,-1.832541777E-3,-1.068982761E-3
1.060132465E0,-1.068982761E-3,6.108472589E-4,-2.290677279E-3
1.062577569E0,-1.068982761E-3,-6.108472589E-4,1.527118147E-4
1.065021840E0,1.374406274E-3,1.832541777E-3,-1.068982761E-3
1.067465330E0,1.527118147E-4,1.832541777E-3,1.527118147E-4
1.069909705E0,1.527118147E-4,1.832541777E-3,-1.068982761E-3
1.072354809E0,-1.068982761E-3,6.108472589E-4,-4.734066315E-3
1.074799080E0,-1.068982761E-3,-1.832541777E-3,-3.512371797E-3
1.077242621E0,1.527118147E-4,-6.108472589E-4,-1.068982761E-3
1.079686996E0,1.527118147E-4,6.108472589E-4,1.527118147E-4
1.082132100E0,1.527118147E-4,1.832541777E-3,-2.290677279E-3
1.084576319E0,-1.068982761E-3,-6.108472589E-4,-3.512371797E-3
1.087019861E0,1.527118147E-4,6.108472589E-4,1.374406274E-3
1.089464236E0,1.527118147E-4,-6.108472589E-4,-1.068982761E-3
1.091909340E0,1.374406274E-3,-3.054236295E-3,1.527118147E-4
1.094353611E0,1.374406274E-3,-6.108472589E-4,1.374406274E-3
1.096797100E0,-1.068982761E-3,-1.832541777E-3,-1.068982761E-3
1.099241475E0,-4.734066315E-3,-1.832541777E-3,2.596100792E-3
1.101686580E0,1.527118147E-4,-1.832541777E-3,1.374406274E-3
1.104130850E0,1.374406274E-3,-6.108472589E-4,-1.068982761E-3
1.106574392E0,1.527118147E-4,-6.108472589E-4,1.527118147E-4
1.109018663E0,1.527118147E-4,-3.054236295E-3,-1.068982761E-3
1.111463871E0,1.527118147E-4,-6.108472589E-4,-2.290677279E-3
1.113908090E0,1.527118147E-4,6.108472589E-4,1.527118147E-4
1.116351632E0,1.527118147E-4,6.108472589E-4,-1.068982761E-3
1.118796007E0,-1.068982761E-3,6.108472589E-4,-1.068982761E-3
1.121241111E0,1.527118147E-4,6.108472589E-4,-3.512371797E-3
1.123685382E0,1.527118147E-4,-6.108472589E-4,-2.290677279E-3
1.126128871E0,1.527118147E-4,6.108472589E-4,-2.290677279E-3
1.128573246E0,1.374406274E-3,-6.108472589E-4,1.374406274E-3
1.131018350E0,1.374406274E-3,-1.832541777E-3,5.039489828E-3
1.133462621E0,1.374406274E-3,-6.108472589E-4,-1.068982761E-3
1.135906163E0,1.527118147E-4,-6.108472589E-4,1.527118147E-4
1.138350434E0,2.596100792E-3,6.108472589E-4,1.527118147E-4
1.140795642E0,1.527118147E-4,-1.832541777E-3,1.374406274E-3
1.143239861E0,-1.068982761E-3,6.108472589E-4,-3.512371797E-3
1.145683403E0,-1.068982761E-3,6.108472589E-4,-5.955760833E-3
1.148127778E0,1.527118147E-4,-6.108472589E-4,1.374406274E-3
1.150572882E0,1.527118147E-4,-1.832541777E-3,2.596100792E-3
1.153017153E0,-1.068982761E-3,-6.108472589E-4,-1.068982761E-3
1.155460642E0,-1.068982761E-3,1.832541777E-3,-4.734066315E-3
1.157905017E0,1.374406274E-3,6.108472589E-4,1.527118147E-4
1.160350121E0,1.374406274E-3,-6.108472589E-4,1.374406274E-3
1.162794392E0,1.527118147E-4,1.832541777E-3,1.527118147E-4
1.165237934E0,-1.068982761E-3,3.054236295E-3,-2.290677279E-3
1.167682205E0,1.374406274E-3,6.108472589E-4,1.374406274E-3
1.170127361E0,1.374406274E-3,6.108472589E-4,2.596100792E-3
1.172571632E0,1.527118147E-4,-1.832541777E-3,1.527118147E-4
1.175015173E0,1.374406274E-3,6.108472589E-4,-2.290677279E-3
1.177459548E0,1.527118147E-4,-1.832541777E-3,1.527118147E-4
1.179904653E0,-1.068982761E-3,-6.108472589E-4,-3.512371797E-3
1.182348923E0,1.374406274E-3,-1.832541777E-3,2.596100792E-3
1.184792413E0,1.374406274E-3,-6.108472589E-4,1.527118147E-4
1.187236788E0,-1.068982761E-3,6.108472589E-4,-2.290677279E-3
1.189681892E0,-1.068982761E-3,6.108472589E-4,1.527118147E-4
1.192126163E0,1.374406274E-3,-6.108472589E-4,-1.068982761E-3
1.194569705E0,-1.068982761E-3,-1.832541777E-3,-4.734066315E-3
1.197013975E0,-1.068982761E-3,1.832541777E-3,-7.177455351E-3
1.199459184E0,-1.068982761E-3,6.108472589E-4,-1.068982761E-3
1.201903403E0,1.527118147E-4,6.108472589E-4,1.527118147E-4
1.204346944E0,1.374406274E-3,-6.108472589E-4,-1.068982761E-3
1.206791319E0,1.374406274E-3,1.832541777E-3,-2.290677279E-3
1.209236423E0,1.374406274E-3,-6.108472589E-4,1.374406274E-3
1.211680694E0,1.527118147E-4,-6.108472589E-4,3.817795310E-3
1.214124184E0,-1.068982761E-3,-6.108472589E-4,-5.955760833E-3
1.216568559E0,-1.068982761E-3,-6.108472589E-4,-7.177455351E-3
1.219013663E0,1.374406274E-3,-6.108472589E-4,1.527118147E-4
1.221457934E0,1.527118147E-4,-6.108472589E-4,3.817795310E-3
1.223901423E0,1.374406274E-3,-6.108472589E-4,-1.068982761E-3
1.226345798E0,1.527118147E-4,-6.108472589E-4,-2.290677279E-3
1.228790903E0,-2.290677279E-3,1.832541777E-3,-3.512371797E-3
1.231235173E0,-1.068982761E-3,-6.108472589E-4,-1.068982761E-3
1.233678715E0,-1.068982761E-3,-6.108472589E-4,-2.290677279E-3
1.236123090E0,-1.068982761E-3,6.108472589E-4,-2.290677279E-3
1.238568194E0,1.527118147E-4,-6.108472589E-4,-2.290677279E-3
1.241012413E0,-1.068982761E-3,-1.832541777E-3,1.374406274E-3
1.243455955E0,-1.068982761E-3,-6.108472589E-4,1.527118147E-4
1.245900330E0,-2.290677279E-3,6.108472589E-4,-5.955760833E-3
1.248345434E0,1.527118147E-4,6.108472589E-4,-1.068982761E-3
1.250789705E0,1.374406274E-3,-6.108472589E-4,2.596100792E-3
1.253233194E0,1.527118147E-4,-6.108472589E-4,-1.068982761E-3
1.255677569E0,1.374406274E-3,6.108472589E-4,-1.068982761E-3
1.258122673E0,1.527118147E-4,6.108472589E-4,-2.290677279E-3
1.260566944E0,-1.068982761E-3,-6.108472589E-4,-3.512371797E-3
1.263010486E0,1.527118147E-4,-1.832541777E-3,1.374406274E-3
1.265454861E0,-1.068982761E-3,-1.832541777E-3,-2.290677279E-3
1.267899965E0,-1.068982761E-3,6.108472589E-4,-2.290677279E-3
1.270344184E0,1.527118147E-4,6.108472589E-4,-1.068982761E-3
1.272787725E0,-1.068982761E-3,-6.108472589E-4,1.527118147E-4
1.275232100E0,1.527118147E-4,6.108472589E-4,-2.290677279E-3
1.277677205E0,-1.068982761E-3,-6.108472589E-4,1.527118147E-4
1.280121475E0,1.527118147E-4,-6.108472589E-4,-2.290677279E-3
1.282564965E0,1.527118147E-4,-1.832541777E-3,1.527118147E-4
1.285009340E0,1.527118147E-4,-1.832541777E-3,1.527118147E-4
1.287454444E0,1.527118147E-4,6.108472589E-4,-1.068982761E-3
1.289898715E0,1.527118147E-4,-3.054236295E-3,1.527118147E-4
1.292342257E0,-1.068982761E-3,-1.832541777E-3,-2.290677279E-3
1.294786528E0,-1.068982761E-3,-6.108472589E-4,-2.290677279E-3
1.297231736E0,2.596100792E-3,-6.108472589E-4,1.527118147E-4
1.299675955E0,1.374406274E-3,6.108472589E-4,-1.068982761E-3
1.302119496E0,1.527118147E-4,-6.108472589E-4,-2.290677279E-3
1.304563871E0,-1.068982761E-3,1.832541777E-3,-1.068982761E-3
1.307008975E0,1.527118147E-4,6.108472589E-4,1.374406274E-3
1.309453246E0,-1.068982761E-3,6.108472589E-4,-2.290677279E-3
1.311896736E0,1.527118147E-4,-6.108472589E-4,-2.290677279E-3
1.314341111E0,1.527118147E-4,1.832541777E-3,-1.068982761E-3
1.316786215E0,3.817795310E-3,6.108472589E-4,6.261184346E-3
1.319230486E0,2.596100792E-3,-6.108472589E-4,5.039489828E-3
1.321674028E0,1.374406274E-3,-6.108472589E-4,1.374406274E-3
1.324118298E0,1.527118147E-4,-6.108472589E-4,1.527118147E-4
1.326563455E0,-1.068982761E-3,-1.832541777E-3,1.527118147E-4
1.329007725E0,1.527118147E-4,-6.108472589E-4,2.596100792E-3
1.331451267E0,-1.068982761E-3,-6.108472589E-4,-1.068982761E-3
1.333895642E0,-2.290677279E-3,6.108472589E-4,-4.734066315E-3
1.336340746E0,-1.068982761E-3,-6.108472589E-4,-4.734066315E-3
1.338785017E0,1.527118147E-4,-6.108472589E-4,-2.290677279E-3
1.341228507E0,1.527118147E-4,-1.832541777E-3,1.527118147E-4
1.343672882E0,-2.290677279E-3,3.054236295E-3,1.527118147E-4
1.346117986E0,-1.068982761E-3,-6.108472589E-4,-2.290677279E-3
1.348562257E0,1.527118147E-4,-6.108472589E-4,1.374406274E-3
1.351005746E0,1.374406274E-3,6.108472589E-4,3.817795310E-3
1.353450121E0,1.527118147E-4,-6.108472589E-4,1.374406274E-3
1.355895225E0,1.527118147E-4,-6.108472589E-4,-3.512371797E-3
1.358339496E0,1.527118147E-4,-6.108472589E-4,-1.068982761E-3
1.360783038E0,-1.068982761E-3,1.832541777E-3,3.817795310E-3
1.363227413E0,1.527118147E-4,6.108472589E-4,1.527118147E-4
1.365672517E0,-1.068982761E-3,1.832541777E-3,-5.955760833E-3
1.368116736E0,-2.290677279E-3,-6.108472589E-4,-4.734066315E-3
1.370560278E0,1.374406274E-3,-6.108472589E-4,2.596100792E-3
1.373004653E0,-1.068982761E-3,-6.108472589E-4,-2.290677279E-3
1.375449757E0,-1.068982761E-3,6.108472589E-4,-3.512371797E-3
1.377894028E0,-1.068982761E-3,-1.832541777E-3,-5.955760833E-3
1.380337517E0,1.527118147E-4,-6.108472589E-4,-1.068982761E-3
1.382781892E0,1.527118147E-4,6.108472589E-4,-3.512371797E-3
1.385226996E0,-1.068982761E-3,6.108472589E-4,-2.290677279E-3
1.387671267E0,1.527118147E-4,-6.108472589E-4,-2.290677279E-3
1.390114809E0,1.374406274E-3,-6.108472589E-4,1.527118147E-4
1.392559080E0,2.596100792E-3,-3.054236295E-3,1.374406274E-3
1.395004236E0,1.527118147E-4,-6.108472589E-4,-3.512371797E-3
1.397448507E0,1.527118147E-4,1.832541777E-3,1.527118147E-4
1.399892048E0,1.374406274E-3,-6.108472589E-4,2.596100792E-3
1.402336423E0,1.527118147E-4,-6.108472589E-4,-1.068982761E-3
1.404781528E0,1.527118147E-4,1.832541777E-3,-2.290677279E-3
1.407225798E0,2.596100792E-3,4.275931045E-3,-2.290677279E-3
1.409669288E0,1.527118147E-4,-6.108472589E-4,-1.068982761E-3
1.412113663E0,1.374406274E-3,-6.108472589E-4,1.527118147E-4
1.414558767E0,-1.068982761E-3,6.108472589E-4,2.596100792E-3
1.417003038E0,-1.068982761E-3,-6.108472589E-4,-3.512371797E-3
1.419446580E0,1.527118147E-4,6.108472589E-4,-1.068982761E-3
1.421890850E0,-1.068982761E-3,1.832541777E-3,1.374406274E-3
1.424336007E0,-1.068982761E-3,6.108472589E-4,1.527118147E-4
1.426780278E0,-1.068982761E-3,1.832541777E-3,-2.290677279E-3
1.429223819E0,-1.068982761E-3,6.108472589E-4,-3.512371797E-3
1.431668194E0,1.527118147E-4,-6.108472589E-4,-1.068982761E-3
1.434113298E0,1.527118147E-4,6.108472589E-4,1.374406274E-3
1.436557517E0,1.527118147E-4,-6.108472589E-4,2.596100792E-3
1.439001059E0,1.527118147E-4,-1.832541777E-3,1.527118147E-4
1.441445434E0,1.527118147E-4,-6.108472589E-4,1.527118147E-4
1.443890538E0,-1.068982761E-3,6.108472589E-4,1.527118147E-4
1.446334809E0,-1.068982761E-3,-1.832541777E-3,-1.068982761E-3
1.448778298E0,1.374406274E-3,-1.832541777E-3,-3.512371797E-3
1.451222673E0,1.374406274E-3,6.108472589E-4,3.817795310E-3
1.453667778E0,-2.290677279E-3,6.108472589E-4,-1.068982761E-3
1.456112048E0,1.527118147E-4,-1.832541777E-3,-1.068982761E-3
1.458555590E0,-1.068982761E-3,-6.108472589E-4,-1.068982761E-3
1.460999965E0,-1.068982761E-3,-6.108472589E-4,1.374406274E-3
1.463445069E0,-1.068982761E-3,-6.108472589E-4,-2.290677279E-3
1.465889288E0,-1.068982761E-3,6.108472589E-4,-2.290677279E-3
1.468332830E0,1.527118147E-4,6.108472589E-4,-2.290677279E-3
1.470777205E0,1.527118147E-4,-6.108472589E-4,3.817795310E-3
1.473222309E0,-1.068982761E-3,6.108472589E-4,1.527118147E-4
1.475666580E0,1.527118147E-4,-6.108472589E-4,-2.290677279E-3
1.478110069E0,1.527118147E-4,-6.108472589E-4,1.527118147E-4
1.480554444E0,1.527118147E-4,-6.108472589E-4,-1.068982761E-3
1.482999548E0,1.374406274E-3,6.108472589E-4,-1.068982761E-3
1.485443819E0,1.527118147E-4,6.108472589E-4,-1.068982761E-3
1.487887361E0,1.527118147E-4,6.108472589E-4,-1.068982761E-3
1.490331632E0,1.527118147E-4,6.108472589E-4,-1.068982761E-3
1.492776788E0,1.527118147E-4,1.832541777E-3,-2.290677279E-3
1.495221059E0,-2.290677279E-3,3.054236295E-3,-1.068982761E-3
1.497664600E0,-2.290677279E-3,3.054236295E-3,1.527118147E-4
1.500108975E0,1.527118147E-4,1.832541777E-3,1.374406274E-3
1.502554080E0,1.374406274E-3,6.108472589E-4,-2.290677279E-3
1.504998350E0,-1.068982761E-3,-6.108472589E-4,-2.290677279E-3
1.507441840E0,1.374406274E-3,3.054236295E-3,1.527118147E-4
1.509886215E0,2.596100792E-3,-1.832541777E-3,-1.068982761E-3
1.512331319E0,1.527118147E-4,-1.832541777E-3,-1.068982761E-3
1.514775590E0,2.596100792E-3,-1.832541777E-3,2.596100792E-3
1.517219080E0,-1.068982761E-3,1.832541777E-3,-2.290677279E-3
1.519663455E0,-1.068982761E-3,1.832541777E-3,-3.512371797E-3
1.522108559E0,1.374406274E-3,1.832541777E-3,-1.068982761E-3
1.524552830E0,-1.068982761E-3,6.108472589E-4,-1.068982761E-3
1.526996371E0,1.527118147E-4,6.108472589E-4,1.527118147E-4
1.529440746E0,2.596100792E-3,-1.832541777E-3,1.374406274E-3
1.531885798E0,-1.068982761E-3,6.108472589E-4,1.527118147E-4
1.534330069E0,1.527118147E-4,-6.108472589E-4,-1.068982761E-3
1.536773611E0,-1.068982761E-3,-6.108472589E-4,-2.290677279E-3
1.539217986E0,1.527118147E-4,-6.108472589E-4,-2.290677279E-3
1.541663090E0,1.527118147E-4,6.108472589E-4,1.374406274E-3
1.544107361E0,1.527118147E-4,6.108472589E-4,1.374406274E-3
1.546550850E0,-1.068982761E-3,-1.832541777E-3,-2.290677279E-3
1.548995225E0,1.374406274E-3,-1.832541777E-3,-2.290677279E-3
1.551440330E0,1.374406274E-3,-6.108472589E-4,1.527118147E-4
1.553884600E0,1.374406274E-3,-6.108472589E-4,1.527118147E-4
1.556328142E0,1.527118147E-4,6.108472589E-4,-2.290677279E-3
1.558772413E0,-1.068982761E-3,6.108472589E-4,1.527118147E-4
1.561217569E0,1.527118147E-4,6.108472589E-4,-1.068982761E-3
1.563661840E0,1.374406274E-3,-6.108472589E-4,1.374406274E-3
1.566105382E0,1.374406274E-3,-1.832541777E-3,3.817795310E-3
1.568549757E0,1.374406274E-3,-6.108472589E-4,1.374406274E-3
1.570994861E0,1.374406274E-3,6.108472589E-4,1.527118147E-4
1.573439132E0,2.596100792E-3,-1.832541777E-3,1.527118147E-4
1.575882621E0,1.527118147E-4,-6.108472589E-4,1.527118147E-4
1.578326996E0,-1.068982761E-3,6.108472589E-4,-1.068982761E-3
1.580772100E0,1.527118147E-4,1.832541777E-3,-1.068982761E-3
1.583216371E0,1.527118147E-4,-6.108472589E-4,1.527118147E-4
1.585659861E0,1.527118147E-4,-6.108472589E-4,-1.068982761E-3
1.588104236E0,1.527118147E-4,-1.832541777E-3,2.596100792E-3
1.590549340E0,-1.068982761E-3,-6.108472589E-4,1.374406274E-3
1.592993611E0,-1.068982761E-3,1.832541777E-3,-1.068982761E-3
1.595437153E0,2.596100792E-3,-1.832541777E-3,1.527118147E-4
1.597881423E0,-1.068982761E-3,-6.108472589E-4,-1.068982761E-3
1.600326632E0,1.527118147E-4,-6.108472589E-4,1.527118147E-4
1.602770850E0,-2.290677279E-3,-6.108472589E-4,-4.734066315E-3
1.605214392E0,-2.290677279E-3,-6.108472589E-4,1.527118147E-4
1.607658767E0,1.527118147E-4,1.832541777E-3,1.374406274E-3
1.610103871E0,-3.512371797E-3,-3.054236295E-3,-1.068982761E-3
1.612548142E0,-1.068982761E-3,-1.832541777E-3,-1.068982761E-3
1.614991632E0,1.374406274E-3,-6.108472589E-4,1.527118147E-4
1.617436007E0,1.374406274E-3,-1.832541777E-3,1.374406274E-3
1.619881111E0,3.817795310E-3,-6.108472589E-4,3.817795310E-3
1.622325382E0,1.374406274E-3,-1.832541777E-3,1.527118147E-4
1.624768871E0,1.527118147E-4,-1.832541777E-3,-1.068982761E-3
1.627213246E0,1.527118147E-4,-6.108472589E-4,1.527118147E-4
1.629658350E0,1.527118147E-4,6.108472589E-4,2.596100792E-3
1.632102621E0,-1.068982761E-3,-1.832541777E-3,1.374406274E-3
1.634546163E0,1.527118147E-4,-6.108472589E-4,-1.068982761E-3
1.636990538E0,1.527118147E-4,-6.108472589E-4,-2.290677279E-3
1.639435642E0,1.527118147E-4,-6.108472589E-4,2.596100792E-3
1.641879861E0,-1.068982761E-3,6.108472589E-4,1.527118147E-4
1.644323403E0,1.374406274E-3,-6.108472589E-4,-1.068982761E-3
1.646767778E0,-2.290677279E-3,6.108472589E-4,-1.068982761E-3
1.649212882E0,-1.068982761E-3,-6.108472589E-4,1.527118147E-4
1.651657153E0,1.527118147E-4,-6.108472589E-4,1.374406274E-3
1.654100642E0,2.596100792E-3,-1.832541777E-3,1.374406274E-3
1.656545017E0,1.527118147E-4,6.108472589E-4,-1.068982761E-3
1.658990121E0,1.527118147E-4,-6.108472589E-4,1.374406274E-3
1.661434392E0,-1.068982761E-3,-1.832541777E-3,1.527118147E-4
1.663877882E0,-1.068982761E-3,-1.832541777E-3,-1.068982761E-3
1.666322257E0,-1.068982761E-3,-1.832541777E-3,-1.068982761E-3
1.668767361E0,1.527118147E-4,-6.108472589E-4,2.596100792E-3
1.671211632E0,1.527118147E-4,6.108472589E-4,1.374406274E-3
1.673655173E0,1.374406274E-3,6.108472589E-4,1.527118147E-4
1.676099548E0,1.527118147E-4,-6.108472589E-4,1.527118147E-4
1.678544653E0,-1.068982761E-3,-6.108472589E-4,-1.068982761E-3
1.680988923E0,-1.068982761E-3,-6.108472589E-4,-3.512371797E-3
1.683432413E0,1.527118147E-4,-6.108472589E-4,-2.290677279E-3
1.685876788E0,-1.068982761E-3,6.108472589E-4,-1.068982761E-3
1.688321892E0,1.527118147E-4,1.832541777E-3,-2.290677279E-3
1.690766163E0,1.527118147E-4,-6.108472589E-4,-1.068982761E-3
1.693209653E0,1.527118147E-4,-3.054236295E-3,1.527118147E-4
1.695654028E0,-1.068982761E-3,6.108472589E-4,-1.068982761E-3
1.698099132E0,-1.068982761E-3,6.108472589E-4,1.374406274E-3
1.700543403E0,1.527118147E-4,-6.108472589E-4,-1.068982761E-3
1.702986944E0,-2.290677279E-3,1.832541777E-3,-2.290677279E-3
1.705431215E0,-3.512371797E-3,6.108472589E-4,-4.734066315E-3
1.707876371E0,-1.068982761E-3,-6.108472589E-4,1.527118147E-4
1.710320642E0,1.527118147E-4,6.108472589E-4,1.527118147E-4
1.712764184E0,1.527118147E-4,6.108472589E-4,-1.068982761E-3
1.715208559E0,-1.068982761E-3,-3.054236295E-3,1.374406274E-3
1.717653663E0,1.527118147E-4,1.832541777E-3,1.374406274E-3
1.720097934E0,-1.068982761E-3,1.832541777E-3,-3.512371797E-3
1.722541423E0,1.527118147E-4,6.108472589E-4,-3.512371797E-3
1.724985798E0,-1.068982761E-3,6.108472589E-4,-5.955760833E-3
1.727430903E0,-1.068982761E-3,6.108472589E-4,-3.512371797E-3
1.729875173E0,1.374406274E-3,-6.108472589E-4,1.527118147E-4
1.732318663E0,-1.068982761E-3,-1.832541777E-3,-3.512371797E-3
1.734763038E0,-1.068982761E-3,-6.108472589E-4,-4.734066315E-3
1.737208142E0,1.374406274E-3,6.108472589E-4,1.374406274E-3
1.739652413E0,1.527118147E-4,1.832541777E-3,1.527118147E-4
1.742095955E0,1.527118147E-4,-6.108472589E-4,-1.068982761E-3
1.744540225E0,1.374406274E-3,-1.832541777E-3,-1.068982761E-3
1.746985434E0,1.527118147E-4,-6.108472589E-4,1.374406274E-3
1.749429653E0,1.527118147E-4,-6.108472589E-4,2.596100792E-3
1.751873194E0,1.374406274E-3,6.108472589E-4,1.374406274E-3
1.754317569E0,-2.290677279E-3,-6.108472589E-4,-5.955760833E-3
1.756762673E0,1.527118147E-4,6.108472589E-4,1.527118147E-4
1.759206944E0,1.527118147E-4,-6.108472589E-4,1.527118147E-4
1.761650434E0,1.374406274E-3,-6.108472589E-4,1.374406274E-3
1.764094809E0,1.527118147E-4,-1.832541777E-3,-2.290677279E-3
1.766539913E0,1.374406274E-3,6.108472589E-4,2.596100792E-3
1.768984184E0,1.527118147E-4,6.108472589E-4,1.374406274E-3
1.771427673E0,-1.068982761E-3,1.832541777E-3,1.527118147E-4
1.773872048E0,-1.068982761E-3,1.832541777E-3,-4.734066315E-3
1.776317153E0,-2.290677279E-3,1.832541777E-3,-3.512371797E-3
1.778761423E0,1.527118147E-4,6.108472589E-4,-2.290677279E-3
1.781204965E0,1.374406274E-3,6.108472589E-4,2.596100792E-3
1.783649236E0,1.527118147E-4,6.108472589E-4,1.374406274E-3
1.786094392E0,-1.068982761E-3,6.108472589E-4,-3.512371797E-3
1.788538663E0,1.527118147E-4,-6.108472589E-4,-2.290677279E-3
1.790982205E0,1.527118147E-4,-6.108472589E-4,1.527118147E-4
1.793426580E0,1.527118147E-4,-1.832541777E-3,1.527118147E-4
1.795871684E0,1.374406274E-3,-6.108472589E-4,-1.068982761E-3
1.798315955E0,-1.068982761E-3,6.108472589E-4,1.527118147E-4
1.800759444E0,1.527118147E-4,6.108472589E-4,2.596100792E-3
1.803203819E0,-1.068982761E-3,-6.108472589E-4,-3.512371797E-3
1.805648923E0,1.527118147E-4,-1.832541777E-3,-1.068982761E-3
1.808093194E0,-1.068982761E-3,6.108472589E-4,-2.290677279E-3
1.810536684E0,-1.068982761E-3,-6.108472589E-4,-2.290677279E-3
1.812981059E0,1.374406274E-3,6.108472589E-4,-1.068982761E-3
1.815426163E0,1.527118147E-4,6.108472589E-4,-1.068982761E-3
1.817870434E0,1.374406274E-3,-6.108472589E-4,1.374406274E-3
1.820313975E0,1.527118147E-4,6.108472589E-4,1.374406274E-3
1.822758246E0,1.527118147E-4,-1.832541777E-3,1.527118147E-4
1.825203455E0,1.527118147E-4,-1.832541777E-3,-3.512371797E-3
1.827647673E0,-1.068982761E-3,6.108472589E-4,1.527118147E-4
1.830091215E0,-1.068982761E-3,1.832541777E-3,-2.290677279E-3
1.832535590E0,1.374406274E-3,-1.832541777E-3,1.374406274E-3
1.834980694E0,1.374406274E-3,-6.108472589E-4,1.527118147E-4
1.837424965E0,1.527118147E-4,6.108472589E-4,-1.068982761E-3
1.839868455E0,1.374406274E-3,-1.832541777E-3,1.374406274E-3
1.842312830E0,2.596100792E-3,-1.832541777E-3,2.596100792E-3
1.844757934E0,1.527118147E-4,6.108472589E-4,-3.512371797E-3
1.847202205E0,1.527118147E-4,6.108472589E-4,1.527118147E-4
1.849645694E0,1.527118147E-4,-6.108472589E-4,1.374406274E-3
1.852090069E0,1.527118147E-4,6.108472589E-4,1.527118147E-4
1.854535173E0,1.527118147E-4,-6.108472589E-4,1.527118147E-4
1.856979444E0,-1.068982761E-3,6.108472589E-4,-2.290677279E-3
1.859422986E0,-1.068982761E-3,6.108472589E-4,-2.290677279E-3
1.861867257E0,1.527118147E-4,6.108472589E-4,1.527118147E-4
1.864312465E0,1.374406274E-3,-6.108472589E-4,-2.290677279E-3
1.866756684E0,-1.068982761E-3,-6.108472589E-4,-4.734066315E-3
1.869200225E0,-1.068982761E-3,-1.832541777E-3,-2.290677279E-3
1.871644600E0,-1.068982761E-3,-6.108472589E-4,-1.068982761E-3
1.874089705E0,-1.068982761E-3,6.108472589E-4,-1.068982761E-3
1.876533975E0,1.527118147E-4,1.832541777E-3,-2.290677279E-3
1.878977465E0,1.527118147E-4,-6.108472589E-4,1.374406274E-3
1.881421840E0,-1.068982761E-3,6.108472589E-4,2.596100792E-3
1.883866944E0,-1.068982761E-3,-6.108472589E-4,-1.068982761E-3
1.886311215E0,-1.068982761E-3,-6.108472589E-4,-4.734066315E-3
1.888754705E0,1.527118147E-4,6.108472589E-4,-2.290677279E-3
1.891199080E0,-1.068982761E-3,-6.108472589E-4,1.527118147E-4
1.893644184E0,1.527118147E-4,-6.108472589E-4,-1.068982761E-3
1.896088455E0,-1.068982761E-3,-6.108472589E-4,-2.290677279E-3
1.898531996E0,1.527118147E-4,-6.108472589E-4,-2.290677279E-3
1.900976371E0,1.374406274E-3,-6.108472589E-4,3.817795310E-3
1.903421475E0,1.527118147E-4,-1.832541777E-3,3.817795310E-3
1.905865694E0,1.374406274E-3,6.108472589E-4,1.374406274E-3
1.908309236E0,-1.068982761E-3,6.108472589E-4,-3.512371797E-3
1.910753611E0,1.527118147E-4,-1.832541777E-3,-1.068982761E-3
1.913198715E0,-1.068982761E-3,6.108472589E-4,-1.068982761E-3
1.915642986E0,1.527118147E-4,-6.108472589E-4,1.374406274E-3
1.918086475E0,-3.512371797E-3,-6.108472589E-4,-2.290677279E-3
1.920530850E0,1.527118147E-4,-6.108472589E-4,1.527118147E-4
1.922975955E0,-1.068982761E-3,6.108472589E-4,1.374406274E-3
1.925420225E0,1.527118147E-4,6.108472589E-4,1.527118147E-4
1.927863715E0,-1.068982761E-3,6.108472589E-4,-2.290677279E-3
1.930308090E0,-1.068982761E-3,6.108472589E-4,-1.068982761E-3
1.932753194E0,1.527118147E-4,-1.832541777E-3,1.527118147E-4
1.935197465E0,1.527118147E-4,-3.054236295E-3,3.817795310E-3
1.937641007E0,-1.068982761E-3,6.108472589E-4,-2.290677279E-3
1.940085278E0,-1.068982761E-3,-6.108472589E-4,-1.068982761E-3
1.942530434E0,1.527118147E-4,6.108472589E-4,-1.068982761E-3
1.944974705E0,1.527118147E-4,-6.108472589E-4,-1.068982761E-3
1.947418246E0,1.527118147E-4,6.108472589E-4,1.374406274E-3
1.949862621E0,1.527118147E-4,6.108472589E-4,1.374406274E-3
1.952307725E0,1.374406274E-3,6.108472589E-4,1.527118147E-4
1.954751996E0,-1.068982761E-3,6.108472589E-4,-3.512371797E-3
1.957195486E0,-1.068982761E-3,6.108472589E-4,1.527118147E-4
1.959639861E0,1.527118147E-4,-6.108472589E-4,1.374406274E-3
1.962084965E0,1.527118147E-4,-6.108472589E-4,-1.068982761E-3
1.964529236E0,1.527118147E-4,-1.832541777E-3,-4.734066315E-3
1.966972725E0,1.374406274E-3,6.108472589E-4,2.596100792E-3
1.969417100E0,1.374406274E-3,6.108472589E-4,1.374406274E-3
1.971862205E0,1.374406274E-3,-6.108472589E-4,-2.290677279E-3
1.974306475E0,1.527118147E-4,-6.108472589E-4,-3.512371797E-3
1.976750017E0,-1.068982761E-3,-6.108472589E-4,-1.068982761E-3
1.979194288E0,-1.068982761E-3,6.108472589E-4,1.374406274E-3
1.981639444E0,-1.068982761E-3,6.108472589E-4,-1.068982761E-3
1.984083715E0,1.527118147E-4,6.108472589E-4,1.527118147E-4
1.986527257E0,1.527118147E-4,-1.832541777E-3,1.374406274E-3
1.988971632E0,-1.068982761E-3,1.832541777E-3,-1.068982761E-3
1.991416736E0,1.527118147E-4,-6.108472589E-4,-1.068982761E-3
1.993860955E0,1.527118147E-4,-6.108472589E-4,-1.068982761E-3
1.996304496E0,1.527118147E-4,6.108472589E-4,-1.068982761E-3
1.998748871E0,-1.068982761E-3,1.832541777E-3,-1.068982761E-3
2.001193975E0,-1.068982761E-3,1.832541777E-3,-5.955760833E-3
2.003638246E0,1.527118147E-4,6.108472589E-4,-1.068982761E-3
2.006081736E0,1.374406274E-3,-6.108472589E-4,1.527118147E-4
2.008526111E0,1.527118147E-4,-6.108472589E-4,2.596100792E-3
2.010971215E0,1.527118147E-4,-6.108472589E-4,1.527118147E-4
2.013415486E0,-1.068982761E-3,6.108472589E-4,-3.512371797E-3
2.015858975E0,1.527118147E-4,1.832541777E-3,-3.512371797E-3
2.018303350E0,1.527118147E-4,1.832541777E-3,1.527118147E-4
2.020748455E0,-1.068982761E-3,6.108472589E-4,1.527118147E-4
2.023192725E0,-2.290677279E-3,-6.108472589E-4,-3.512371797E-3
2.025636267E0,-1.068982761E-3,6.108472589E-4,-3.512371797E-3
2.028080642E0,1.527118147E-4,-6.108472589E-4,-2.290677279E-3
2.030525746E0,1.527118147E-4,-1.832541777E-3,1.374406274E-3
2.032969965E0,-1.068982761E-3,-1.832541777E-3,1.374406274E-3
2.035413507E0,1.374406274E-3,-6.108472589E-4,-1.068982761E-3
2.037857882E0,1.527118147E-4,6.108472589E-4,-1.068982761E-3
2.040302986E0,1.527118147E-4,-6.108472589E-4,1.527118147E-4
2.042747257E0,-2.290677279E-3,-6.108472589E-4,1.527118147E-4
2.045190746E0,-1.068982761E-3,-6.108472589E-4,-4.734066315E-3
2.047635121E0,-1.068982761E-3,6.108472589E-4,-3.512371797E-3
2.050080225E0,-1.068982761E-3,-6.108472589E-4,1.374406274E-3
2.052524496E0,1.374406274E-3,-6.108472589E-4,5.039489828E-3
2.054967986E0,-1.068982761E-3,-1.832541777E-3,-1.068982761E-3
2.057412361E0,1.527118147E-4,-6.108472589E-4,-1.068982761E-3
2.059857465E0,1.374406274E-3,-6.108472589E-4,1.527118147E-4
2.062301736E0,1.374406274E-3,-6.108472589E-4,6.261184346E-3
2.064745278E0,-1.068982761E-3,-6.108472589E-4,-2.290677279E-3
2.067189548E0,-1.068982761E-3,1.832541777E-3,-3.512371797E-3
2.069634705E0,1.527118147E-4,6.108472589E-4,1.374406274E-3
2.072078975E0,-1.068982761E-3,6.108472589E-4,1.527118147E-4
2.074522517E0,1.374406274E-3,-6.108472589E-4,-1.068982761E-3
2.076966892E0,1.527118147E-4,-1.832541777E-3,-4.734066315E-3
2.079411996E0,1.527118147E-4,-1.832541777E-3,-2.290677279E-3
2.081856267E0,1.374406274E-3,-1.832541777E-3,2.596100792E-3
2.084299757E0,1.527118147E-4,-1.832541777E-3,-1.068982761E-3
2.086744132E0,1.527118147E-4,-6.108472589E-4,-2.290677279E-3
2.089189236E0,1.527118147E-4,-6.108472589E-4,2.596100792E-3
2.091633507E0,1.527118147E-4,-1.832541777E-3,3.817795310E-3
2.094076996E0,-1.068982761E-3,6.108472589E-4,-1.068982761E-3
2.096521371E0,1.527118147E-4,-6.108472589E-4,-2.290677279E-3
2.098966475E0,1.527118147E-4,-1.832541777E-3,-1.068982761E-3
2.101410746E0,1.374406274E-3,6.108472589E-4,6.261184346E-3
2.103854288E0,1.374406274E-3,-1.832541777E-3,1.527118147E-4
2.106298559E0,-1.068982761E-3,6.108472589E-4,-4.734066315E-3
2.108743767E0,-2.290677279E-3,6.108472589E-4,-2.290677279E-3
2.111187986E0,1.527118147E-4,6.108472589E-4,5.039489828E-3
2.113631528E0,-1.068982761E-3,3.054236295E-3,1.527118147E-4
2.116075903E0,-1.068982761E-3,-6.108472589E-4,-4.734066315E-3
2.118521007E0,-1.068982761E-3,-1.832541777E-3,-1.068982761E-3
2.120965225E0,-1.068982761E-3,-6.108472589E-4,3.817795310E-3
2.123408767E0,1.527118147E-4,-1.832541777E-3,1.374406274E-3
2.125853142E0,1.527118147E-4,-6.108472589E-4,-3.512371797E-3
2.128298246E0,-1.068982761E-3,6.108472589E-4,-3.512371797E-3
2.130742517E0,1.527118147E-4,-1.832541777E-3,2.596100792E-3
2.133186007E0,1.527118147E-4,-6.108472589E-4,1.527118147E-4
2.135630382E0,-1.068982761E-3,1.832541777E-3,-3.512371797E-3
2.138075486E0,-1.068982761E-3,6.108472589E-4,-4.734066315E-3
2.140519757E0,-1.068982761E-3,-6.108472589E-4,-2.290677279E-3
2.142963298E0,-1.068982761E-3,6.108472589E-4,1.527118147E-4
2.145407569E0,-1.068982761E-3,1.832541777E-3,-5.955760833E-3
2.147852725E0,-2.290677279E-3,6.108472589E-4,-5.955760833E-3
2.150296996E0,-1.068982761E-3,-6.108472589E-4,-1.068982761E-3
2.152740538E0,1.527118147E-4,-6.108472589E-4,1.527118147E-4
2.155184809E0,1.527118147E-4,1.832541777E-3,-1.068982761E-3
2.157630017E0,1.527118147E-4,1.832541777E-3,-1.068982761E-3
2.160074236E0,1.374406274E-3,-6.108472589E-4,1.527118147E-4
2.162517778E0,1.374406274E-3,-1.832541777E-3,2.596100792E-3
2.164962153E0,-2.290677279E-3,-6.108472589E-4,-3.512371797E-3
2.167407257E0,-2.290677279E-3,6.108472589E-4,-2.290677279E-3
2.169851528E0,-2.290677279E-3,-6.108472589E-4,1.527118147E-4
2.172295017E0,1.527118147E-4,-6.108472589E-4,1.527118147E-4
2.174739392E0,1.374406274E-3,-6.108472589E-4,-2.290677279E-3
2.177184496E0,1.374406274E-3,-3.054236295E-3,-2.290677279E-3
2.179628767E0,1.374406274E-3,-1.832541777E-3,1.527118147E-4
2.182072257E0,1.374406274E-3,3.054236295E-3,1.527118147E-4
2.184516632E0,1.374406274E-3,6.108472589E-4,-1.068982761E-3
2.186961736E0,1.527118147E-4,-6.108472589E-4,1.374406274E-3
2.189406007E0,1.527118147E-4,-6.108472589E-4,-2.290677279E-3
2.191849548E0,1.374406274E-3,6.108472589E-4,1.527118147E-4
2.194293819E0,-1.068982761E-3,1.832541777E-3,-1.068982761E-3
2.196738975E0,1.527118147E-4,6.108472589E-4,-1.068982761E-3
2.199183246E0,-1.068982761E-3,6.108472589E-4,-2.290677279E-3
2.201626788E0,1.374406274E-3,-6.108472589E-4,1.374406274E-3
2.204071163E0,1.374406274E-3,6.108472589E-4,1.374406274E-3
2.206516267E0,1.527118147E-4,6.108472589E-4,1.374406274E-3
2.208960486E0,1.527118147E-4,-6.108472589E-4,-1.068982761E-3
2.211404028E0,1.527118147E-4,1.832541777E-3,1.527118147E-4
2.213848403E0,-1.068982761E-3,6.108472589E-4,-2.290677279E-3
2.216293507E0,1.527118147E-4,6.108472589E-4,1.527118147E-4
2.218737778E0,-1.068982761E-3,-6.108472589E-4,-1.068982761E-3
2.221181267E0,1.527118147E-4,6.108472589E-4,-2.290677279E-3
2.223625642E0,1.374406274E-3,-1.832541777E-3,1.527118147E-4
2.226070746E0,-1.068982761E-3,-3.054236295E-3,1.527118147E-4
2.228515017E0,1.527118147E-4,6.108472589E-4,-1.068982761E-3
2.230958507E0,-3.512371797E-3,1.832541777E-3,-8.399149403E-3
2.233402882E0,1.527118147E-4,6.108472589E-4,1.527118147E-4
2.235847986E0,1.527118147E-4,-6.108472589E-4,-1.068982761E-3
2.238292257E0,1.527118147E-4,-6.108472589E-4,1.527118147E-4
2.240735798E0,1.527118147E-4,-6.108472589E-4,1.527118147E-4
2.243180069E0,1.527118147E-4,-6.108472589E-4,-1.068982761E-3
2.245625225E0,1.527118147E-4,6.108472589E-4,-1.068982761E-3
2.248069496E0,-2.290677279E-3,-6.108472589E-4,-3.512371797E-3
2.250513038E0,-2.290677279E-3,6.108472589E-4,-4.734066315E-3
2.252957413E0,1.527118147E-4,6.108472589E-4,2.596100792E-3
2.255402517E0,1.527118147E-4,3.054236295E-3,-1.068982761E-3
2.257846788E0,1.527118147E-4,1.832541777E-3,1.527118147E-4
2.260290278E0,1.527118147E-4,-1.832541777E-3,1.527118147E-4
2.262734653E0,-1.068982761E-3,6.108472589E-4,-1.068982761E-3
2.265179757E0,1.527118147E-4,6.108472589E-4,-1.068982761E-3
2.267624028E0,1.527118147E-4,-6.108472589E-4,1.374406274E-3
2.270067517E0,1.527118147E-4,-6.108472589E-4,1.374406274E-3
2.272511892E0,1.374406274E-3,-6.108472589E-4,-1.068982761E-3
2.274956996E0,1.527118147E-4,-6.108472589E-4,1.527118147E-4
2.277401267E0,1.527118147E-4,6.108472589E-4,1.527118147E-4
2.279844757E0,1.527118147E-4,-1.832541777E-3,1.527118147E-4
2.282289132E0,1.527118147E-4,-6.108472589E-4,-2.290677279E-3
2.284734236E0,-1.068982761E-3,6.108472589E-4,-2.290677279E-3
2.287178507E0,-1.068982761E-3,1.832541777E-3,1.527118147E-4
2.289622048E0,-1.068982761E-3,-1.832541777E-3,-3.512371797E-3
2.292066319E0,1.527118147E-4,1.832541777E-3,-3.512371797E-3
2.294511475E0,1.527118147E-4,-6.108472589E-4,-2.290677279E-3
2.296955746E0,1.527118147E-4,-1.832541777E-3,-1.068982761E-3
2.299399288E0,-1.068982761E-3,6.108472589E-4,-5.955760833E-3
2.301843663E0,-1.068982761E-3,-6.108472589E-4,-2.290677279E-3
2.304288767E0,-1.068982761E-3,6.108472589E-4,-2.290677279E-3
2.306733038E0,1.527118147E-4,-6.108472589E-4,-3.512371797E-3
2.309176528E0,1.374406274E-3,-6.108472589E-4,3.817795310E-3
2.311620903E0,1.374406274E-3,-6.108472589E-4,1.527118147E-4
2.314066007E0,-1.068982761E-3,-6.108472589E-4,-1.068982761E-3
2.316510278E0,-1.068982761E-3,-6.108472589E-4,1.527118147E-4
2.318953767E0,1.527118147E-4,-6.108472589E-4,-1.068982761E-3
2.321398142E0,1.527118147E-4,6.108472589E-4,-1.068982761E-3
2.323843246E0,-1.068982761E-3,-6.108472589E-4,-1.068982761E-3
2.326287517E0,-1.068982761E-3,-3.054236295E-3,1.374406274E-3
2.328731059E0,-1.068982761E-3,-6.108472589E-4,-1.068982761E-3
2.331175330E0,1.527118147E-4,3.054236295E-3,-3.512371797E-3
2.333620486E0,-1.068982761E-3,6.108472589E-4,1.527118147E-4
2.336064757E0,-1.068982761E-3,6.108472589E-4,-1.068982761E-3
2.338508298E0,-1.068982761E-3,-6.108472589E-4,1.374406274E-3
2.340952673E0,-1.068982761E-3,-6.108472589E-4,1.527118147E-4
2.343397778E0,1.527118147E-4,-6.108472589E-4,-1.068982761E-3
2.345841996E0,-1.068982761E-3,6.108472589E-4,-1.068982761E-3
2.348285538E0,1.527118147E-4,-6.108472589E-4,1.374406274E-3
2.350729913E0,1.527118147E-4,-1.832541777E-3,-1.068982761E-3
2.353175017E0,1.374406274E-3,-1.832541777E-3,1.527118147E-4
2.355619288E0,1.527118147E-4,-6.108472589E-4,1.527118147E-4
2.358062778E0,1.527118147E-4,-6.108472589E-4,-1.068982761E-3
2.360507153E0,1.374406274E-3,-6.108472589E-4,-3.512371797E-3
2.362952257E0,1.527118147E-4,6.108472589E-4,-2.290677279E-3
2.365396528E0,-1.068982761E-3,6.108472589E-4,-1.068982761E-3
2.367840017E0,1.527118147E-4,-6.108472589E-4,1.374406274E-3
2.370284392E0,1.527118147E-4,-1.832541777E-3,1.527118147E-4
2.372729496E0,-1.068982761E-3,-6.108472589E-4,-2.290677279E-3
2.375173767E0,1.527118147E-4,-6.108472589E-4,1.527118147E-4
2.377617257E0,-1.068982761E-3,6.108472589E-4,1.527118147E-4
2.380061632E0,-3.512371797E-3,6.108472589E-4,-2.290677279E-3
2.382506736E0,-1.068982761E-3,6.108472589E-4,-1.068982761E-3
2.384951007E0,-1.068982761E-3,6.108472589E-4,1.527118147E-4
2.387394548E0,-1.068982761E-3,-6.108472589E-4,-1.068982761E-3
2.389838923E0,-1.068982761E-3,-1.832541777E-3,2.596100792E-3
2.392283975E0,-1.068982761E-3,-1.832541777E-3,1.374406274E-3
2.394728246E0,-1.068982761E-3,6.108472589E-4,-2.290677279E-3
2.397171788E0,1.527118147E-4,-1.832541777E-3,-4.734066315E-3
2.399616163E0,-1.068982761E-3,-6.108472589E-4,1.527118147E-4
2.402061267E0,1.374406274E-3,-1.832541777E-3,5.039489828E-3
2.404505538E0,1.527118147E-4,6.108472589E-4,1.527118147E-4
2.406949028E0,1.527118147E-4,-6.108472589E-4,-3.512371797E-3
2.409393403E0,-2.290677279E-3,-6.108472589E-4,-3.512371797E-3
2.411838507E0,1.374406274E-3,-6.108472589E-4,1.527118147E-4
2.414282778E0,1.374406274E-3,-6.108472589E-4,-2.290677279E-3
2.416726267E0,1.374406274E-3,-6.108472589E-4,3.817795310E-3
2.419170642E0,-1.068982761E-3,1.832541777E-3,-1.068982761E-3
2.421615746E0,1.527118147E-4,-6.108472589E-4,1.527118147E-4
2.424060017E0,1.527118147E-4,6.108472589E-4,1.527118147E-4
2.426503559E0,-1.068982761E-3,6.108472589E-4,1.527118147E-4
2.428947830E0,1.527118147E-4,-1.832541777E-3,-2.290677279E-3
2.431392986E0,1.527118147E-4,-6.108472589E-4,-1.068982761E-3
2.433837257E0,1.527118147E-4,-1.832541777E-3,-1.068982761E-3
2.436280798E0,-1.068982761E-3,6.108472589E-4,2.596100792E-3
2.438725173E0,1.527118147E-4,-6.108472589E-4,-1.068982761E-3
2.441170278E0,-1.068982761E-3,-6.108472589E-4,1.374406274E-3
2.443614496E0,1.374406274E-3,-1.832541777E-3,3.817795310E-3
2.446058038E0,-1.068982761E-3,6.108472589E-4,1.527118147E-4
2.448502413E0,1.527118147E-4,1.832541777E-3,-3.512371797E-3
2.450947517E0,-1.068982761E-3,6.108472589E-4,-3.512371797E-3
2.453391788E0,1.374406274E-3,-1.832541777E-3,-2.290677279E-3
2.455835278E0,1.374406274E-3,-1.832541777E-3,1.527118147E-4
2.458279653E0,-1.068982761E-3,-6.108472589E-4,-2.290677279E-3
2.460724757E0,1.527118147E-4,6.108472589E-4,1.527118147E-4
2.463169028E0,1.374406274E-3,1.832541777E-3,1.374406274E-3
2.465612517E0,1.527118147E-4,1.832541777E-3,1.527118147E-4
2.468056892E0,1.527118147E-4,-6.108472589E-4,-1.068982761E-3
2.470501996E0,1.374406274E-3,-6.108472589E-4,1.374406274E-3
2.472946267E0,1.374406274E-3,1.832541777E-3,1.527118147E-4
2.475389809E0,1.527118147E-4,6.108472589E-4,1.527118147E-4
2.477834080E0,1.527118147E-4,-6.108472589E-4,-1.068982761E-3
2.480279236E0,-1.068982761E-3,-6.108472589E-4,1.374406274E-3
2.482723507E0,-1.068982761E-3,6.108472589E-4,1.527118147E-4
2.485167048E0,-1.068982761E-3,1.832541777E-3,-3.512371797E-3
2.487611319E0,-2.290677279E-3,1.832541777E-3,-3.512371797E-3
2.490056528E0,1.527118147E-4,-6.108472589E-4,1.374406274E-3
2.492500746E0,-1.068982761E-3,-6.108472589E-4,-1.068982761E-3
2.494944288E0,-2.290677279E-3,-6.108472589E-4,-1.068982761E-3
2.497388663E0,1.527118147E-4,6.108472589E-4,-4.734066315E-3
2.499833767E0,1.527118147E-4,-1.832541777E-3,1.527118147E-4
2.502278038E0,1.527118147E-4,-6.108472589E-4,1.374406274E-3
2.504721528E0,1.527118147E-4,-1.832541777E-3,1.374406274E-3
2.507165903E0,1.374406274E-3,-1.832541777E-3,1.374406274E-3
2.509611007E0,1.374406274E-3,-1.832541777E-3,1.374406274E-3
2.512055278E0,1.527118147E-4,-6.108472589E-4,-1.068982761E-3
2.514498767E0,-1.068982761E-3,-6.108472589E-4,-3.512371797E-3
2.516943142E0,-1.068982761E-3,6.108472589E-4,1.374406274E-3
2.519388246E0,1.527118147E-4,-6.108472589E-4,2.596100792E-3
2.521832517E0,1.527118147E-4,-6.108472589E-4,1.374406274E-3
2.524276007E0,-1.068982761E-3,-1.832541777E-3,-3.512371797E-3
2.526720382E0,-1.068982761E-3,6.108472589E-4,-3.512371797E-3
2.529165486E0,1.527118147E-4,6.108472589E-4,-1.068982761E-3
2.531609757E0,1.527118147E-4,6.108472589E-4,-1.068982761E-3
2.534053298E0,1.527118147E-4,-1.832541777E-3,-2.290677279E-3
2.536497569E0,-1.068982761E-3,-6.108472589E-4,-2.290677279E-3
2.538942778E0,1.374406274E-3,-1.832541777E-3,3.817795310E-3
2.541386996E0,1.527118147E-4,-6.108472589E-4,1.374406274E-3
2.543830538E0,-1.068982761E-3,1.832541777E-3,-1.068982761E-3
2.546274913E0,-1.068982761E-3,1.832541777E-3,1.527118147E-4
2.548720017E0,1.527118147E-4,6.108472589E-4,1.374406274E-3
2.551164236E0,2.596100792E-3,-6.108472589E-4,1.374406274E-3
2.553607778E0,1.527118147E-4,-6.108472589E-4,-2.290677279E-3
2.556052153E0,-1.068982761E-3,6.108472589E-4,-2.290677279E-3
2.558497257E0,1.527118147E-4,6.108472589E-4,1.527118147E-4
2.560941528E0,1.527118147E-4,-6.108472589E-4,1.374406274E-3
2.563385017E0,1.527118147E-4,-6.108472589E-4,1.374406274E-3
2.565829392E0,1.374406274E-3,-3.054236295E-3,-2.290677279E-3
2.568274496E0,1.527118147E-4,-6.108472589E-4,-1.068982761E-3
2.570718767E0,1.374406274E-3,-6.108472589E-4,-1.068982761E-3
2.573162257E0,-1.068982761E-3,-6.108472589E-4,-1.068982761E-3
2.575606632E0,-1.068982761E-3,6.108472589E-4,-2.290677279E-3
2.578051736E0,-1.068982761E-3,6.108472589E-4,-1.068982761E-3
2.580496007E0,1.527118147E-4,-6.108472589E-4,-2.290677279E-3
2.582939548E0,1.527118147E-4,-1.832541777E-3,1.527118147E-4
2.585383819E0,1.527118147E-4,-6.108472589E-4,1.527118147E-4
2.587828975E0,-1.068982761E-3,6.108472589E-4,-1.068982761E-3
2.590273246E0,1.527118147E-4,-6.108472589E-4,1.527118147E-4
2.592716788E0,1.527118147E-4,-6.108472589E-4,-1.068982761E-3
2.595161059E0,-1.068982761E-3,-6.108472589E-4,1.374406274E-3
2.597606267E0,1.527118147E-4,-6.108472589E-4,1.527118147E-4
2.600050486E0,-1.068982761E-3,6.108472589E-4,1.527118147E-4
2.602494028E0,1.374406274E-3,-6.108472589E-4,1.527118147E-4
2.604938403E0,1.527118147E-4,6.108472589E-4,-2.290677279E-3
2.607383507E0,-2.290677279E-3,6.108472589E-4,-4.734066315E-3
2.609827725E0,1.527118147E-4,-1.832541777E-3,1.527118147E-4
2.612271267E0,1.527118147E-4,-6.108472589E-4,1.527118147E-4
2.614715642E0,-1.068982761E-3,-1.832541777E-3,-3.512371797E-3
2.617160746E0,-1.068982761E-3,6.108472589E-4,1.527118147E-4
2.619605017E0,1.374406274E-3,-1.832541777E-3,2.596100792E-3
2.622048507E0,1.527118147E-4,-6.108472589E-4,1.374406274E-3
2.624492882E0,1.527118147E-4,-6.108472589E-4,-2.290677279E-3
2.626937986E0,1.527118147E-4,-6.108472589E-4,1.527118147E-4
2.629382257E0,-1.068982761E-3,-6.108472589E-4,1.527118147E-4
2.631825746E0,1.374406274E-3,1.832541777E-3,1.374406274E-3
2.634270121E0,-1.068982761E-3,-1.832541777E-3,-1.068982761E-3
2.636715225E0,1.527118147E-4,6.108472589E-4,-1.068982761E-3
2.639159496E0,-1.068982761E-3,6.108472589E-4,1.527118147E-4
2.641603038E0,1.527118147E-4,-6.108472589E-4,2.596100792E-3
2.644047309E0,2.596100792E-3,-6.108472589E-4,1.527118147E-4
2.646492465E0,1.527118147E-4,-6.108472589E-4,-2.290677279E-3
2.648936736E0,1.527118147E-4,-6.108472589E-4,2.596100792E-3
2.651380278E0,1.527118147E-4,-6.108472589E-4,-1.068982761E-3
2.653824653E0,1.527118147E-4,1.832541777E-3,-2.290677279E-3
2.656269757E0,1.527118147E-4,-6.108472589E-4,1.374406274E-3
2.658713975E0,-2.290677279E-3,-3.054236295E-3,-1.068982761E-3
2.661157517E0,1.527118147E-4,6.108472589E-4,-2.290677279E-3
2.663601892E0,-1.068982761E-3,6.108472589E-4,-1.068982761E-3
2.666046996E0,-1.068982761E-3,6.108472589E-4,1.527118147E-4
2.668491267E0,1.527118147E-4,6.108472589E-4,1.374406274E-3
2.670934757E0,1.527118147E-4,1.832541777E-3,-2.290677279E-3
2.673379132E0,1.527118147E-4,-6.108472589E-4,-3.512371797E-3
2.675824236E0,1.527118147E-4,6.108472589E-4,1.374406274E-3
2.678268507E0,1.527118147E-4,6.108472589E-4,2.596100792E-3
2.680711996E0,2.596100792E-3,-1.832541777E-3,3.817795310E-3
2.683156371E0,2.596100792E-3,-6.108472589E-4,1.527118147E-4
2.685601475E0,1.527118147E-4,6.108472589E-4,-2.290677279E-3
2.688045746E0,1.527118147E-4,6.108472589E-4,-1.068982761E-3
2.690489236E0,-1.068982761E-3,1.832541777E-3,1.374406274E-3
2.692933611E0,1.527118147E-4,-6.108472589E-4,-1.068982761E-3
2.695378715E0,1.527118147E-4,-6.108472589E-4,-2.290677279E-3
2.697822986E0,1.374406274E-3,1.832541777E-3,1.374406274E-3
2.700266528E0,1.527118147E-4,-6.108472589E-4,1.374406274E-3
2.702710798E0,1.374406274E-3,-6.108472589E-4,1.374406274E-3
2.705155955E0,-1.068982761E-3,6.108472589E-4,-1.068982761E-3
2.707600225E0,-2.290677279E-3,6.108472589E-4,-2.290677279E-3
2.710043767E0,1.527118147E-4,-3.054236295E-3,-2.290677279E-3
2.712488142E0,-1.068982761E-3,-1.832541777E-3,-2.290677279E-3
2.714933246E0,1.374406274E-3,6.108472589E-4,2.596100792E-3
2.717377517E0,1.527118147E-4,-6.108472589E-4,-1.068982761E-3
2.719821007E0,1.374406274E-3,-1.832541777E-3,1.527118147E-4
2.722265382E0,1.527118147E-4,6.108472589E-4,1.374406274E-3
2.724710486E0,1.527118147E-4,6.108472589E-4,1.374406274E-3
2.727154705E0,-1.068982761E-3,6.108472589E-4,1.527118147E-4
2.729598246E0,-1.068982761E-3,-1.832541777E-3,1.527118147E-4
2.732042621E0,1.527118147E-4,6.108472589E-4,-1.068982761E-3
2.734487725E0,1.374406274E-3,6.108472589E-4,2.596100792E-3
2.736931996E0,1.527118147E-4,3.054236295E-3,1.527118147E-4
2.739375486E0,1.527118147E-4,6.108472589E-4,-1.068982761E-3
2.741819861E0,-1.068982761E-3,-6.108472589E-4,-1.068982761E-3
2.744264965E0,1.527118147E-4,-6.108472589E-4,2.596100792E-3
2.746709236E0,1.527118147E-4,6.108472589E-4,1.527118147E-4
2.749152778E0,1.527118147E-4,-6.108472589E-4,1.527118147E-4
2.751597048E0,1.374406274E-3,-1.832541777E-3,1.374406274E-3
2.754042205E0,1.527118147E-4,-6.108472589E-4,1.374406274E-3
2.756486475E0,-1.068982761E-3,-1.832541777E-3,1.527118147E-4
2.758930017E0,1.527118147E-4,6.108472589E-4,-1.068982761E-3
2.761374288E0,1.374406274E-3,-6.108472589E-4,1.527118147E-4
2.763819496E0,1.374406274E-3,-3.054236295E-3,-1.068982761E-3
2.766263715E0,1.527118147E-4,6.108472589E-4,1.527118147E-4
2.768707257E0,1.527118147E-4,6.108472589E-4,1.374406274E-3
2.771151632E0,-1.068982761E-3,1.832541777E-3,1.527118147E-4
2.773596736E0,-1.068982761E-3,6.108472589E-4,-3.512371797E-3
2.776040955E0,-2.290677279E-3,6.108472589E-4,-3.512371797E-3
2.778484496E0,1.527118147E-4,-6.108472589E-4,-1.068982761E-3
2.780928871E0,1.527118147E-4,-6.108472589E-4,1.374406274E-3
2.783373975E0,-1.068982761E-3,6.108472589E-4,-1.068982761E-3
2.785818246E0,1.527118147E-4,-6.108472589E-4,1.374406274E-3
2.788261736E0,2.596100792E-3,-6.108472589E-4,2.596100792E-3
2.790706111E0,2.596100792E-3,-1.832541777E-3,1.374406274E-3
2.793151215E0,1.527118147E-4,-6.108472589E-4,1.527118147E-4
2.795595486E0,2.596100792E-3,-1.832541777E-3,3.817795310E-3
2.798038975E0,1.527118147E-4,6.108472589E-4,1.527118147E-4
2.800483350E0,-1.068982761E-3,-1.832541777E-3,1.527118147E-4
2.802928455E0,2.596100792E-3,-1.832541777E-3,-1.068982761E-3
2.805372725E0,2.596100792E-3,-1.832541777E-3,1.527118147E-4
2.807816215E0,1.374406274E-3,-1.832541777E-3,2.596100792E-3
2.810260590E0,1.527118147E-4,-3.054236295E-3,1.527118147E-4
2.812705694E0,1.527118147E-4,-6.108472589E-4,1.527118147E-4
2.815149965E0,1.374406274E-3,-1.832541777E-3,1.527118147E-4
2.817593507E0,1.374406274E-3,-1.832541777E-3,1.527118147E-4
2.820037778E0,1.527118147E-4,-6.108472589E-4,1.374406274E-3
2.822482986E0,1.374406274E-3,-6.108472589E-4,-2.290677279E-3
2.824927205E0,1.527118147E-4,6.108472589E-4,-1.068982761E-3
2.827370746E0,1.374406274E-3,-1.832541777E-3,2.596100792E-3
2.829815121E0,-2.290677279E-3,-6.108472589E-4,2.596100792E-3
2.832260225E0,1.527118147E-4,-1.832541777E-3,1.527118147E-4
2.834704444E0,1.527118147E-4,6.108472589E-4,1.527118147E-4
2.837147986E0,1.374406274E-3,-6.108472589E-4,2.596100792E-3
2.839592361E0,1.527118147E-4,-3.054236295E-3,-2.290677279E-3
2.842037465E0,1.527118147E-4,-6.108472589E-4,-2.290677279E-3
2.844481736E0,-1.068982761E-3,-6.108472589E-4,-4.734066315E-3
2.846925225E0,1.527118147E-4,-3.054236295E-3,2.596100792E-3
2.849369600E0,-1.068982761E-3,-1.832541777E-3,-2.290677279E-3
2.851814705E0,1.374406274E-3,-6.108472589E-4,-1.068982761E-3
2.854258975E0,1.527118147E-4,6.108472589E-4,-2.290677279E-3
2.856702465E0,1.374406274E-3,-1.832541777E-3,1.527118147E-4
2.859146840E0,1.374406274E-3,6.108472589E-4,-1.068982761E-3
2.861591944E0,1.374406274E-3,6.108472589E-4,1.527118147E-4
2.864036215E0,1.527118147E-4,-6.108472589E-4,1.527118147E-4
2.866479757E0,1.527118147E-4,6.108472589E-4,1.527118147E-4
2.868924028E0,1.527118147E-4,6.108472589E-4,1.527118147E-4
2.871369184E0,1.374406274E-3,-6.108472589E-4,-1.068982761E-3
2.873813455E0,1.527118147E-4,-6.108472589E-4,-1.068982761E-3
2.876256996E0,-1.068982761E-3,1.832541777E-3,-3.512371797E-3
2.878701267E0,1.527118147E-4,6.108472589E-4,1.527118147E-4
2.881146423E0,1.527118147E-4,4.275931045E-3,1.374406274E-3
2.883590694E0,1.374406274E-3,-6.108472589E-4,-1.068982761E-3
2.886034236E0,1.374406274E-3,6.108472589E-4,-1.068982761E-3
2.888478611E0,-1.068982761E-3,6.108472589E-4,-3.512371797E-3
2.890923715E0,-1.068982761E-3,-6.108472589E-4,-3.512371797E-3
2.893367934E0,1.527118147E-4,6.108472589E-4,1.527118147E-4
2.895811475E0,-2.290677279E-3,1.832541777E-3,1.527118147E-4
2.898255850E0,1.527118147E-4,6.108472589E-4,2.596100792E-3
2.900700955E0,1.527118147E-4,-6.108472589E-4,2.596100792E-3
2.903145173E0,-2.290677279E-3,1.832541777E-3,-3.512371797E-3
2.905588715E0,1.527118147E-4,-1.832541777E-3,-1.068982761E-3
2.908033090E0,1.374406274E-3,-1.832541777E-3,-1.068982761E-3
2.910478194E0,1.374406274E-3,-6.108472589E-4,1.527118147E-4
2.912922465E0,1.527118147E-4,-6.108472589E-4,1.527118147E-4
2.915365955E0,1.527118147E-4,-1.832541777E-3,-1.068982761E-3
2.917810330E0,2.596100792E-3,-3.054236295E-3,1.527118147E-4
2.920255434E0,1.374406274E-3,-6.108472589E-4,-1.068982761E-3
2.922699705E0,1.374406274E-3,-3.054236295E-3,2.596100792E-3
2.925143194E0,1.527118147E-4,-1.832541777E-3,1.527118147E-4
2.927587569E0,-1.068982761E-3,6.108472589E-4,1.527118147E-4
2.930032673E0,-1.068982761E-3,1.832541777E-3,-1.068982761E-3
2.932476944E0,-1.068982761E-3,6.108472589E-4,-2.290677279E-3
2.934920434E0,-1.068982761E-3,-6.108472589E-4,-1.068982761E-3
2.937364809E0,1.374406274E-3,-6.108472589E-4,-1.068982761E-3
2.939809913E0,1.527118147E-4,-6.108472589E-4,-1.068982761E-3
2.942254184E0,-1.068982761E-3,6.108472589E-4,-1.068982761E-3
2.944697725E0,-2.290677279E-3,1.832541777E-3,-1.068982761E-3
2.947142100E0,-1.068982761E-3,-1.832541777E-3,-1.068982761E-3
2.949587205E0,1.527118147E-4,-1.832541777E-3,-1.068982761E-3
2.952031423E0,-1.068982761E-3,-1.832541777E-3,1.374406274E-3
2.954474965E0,-1.068982761E-3,-1.832541777E-3,1.374406274E-3
2.956919340E0,-2.290677279E-3,-6.108472589E-4,-1.068982761E-3
2.959364444E0,1.527118147E-4,1.832541777E-3,-2.290677279E-3
2.961808663E0,1.527118147E-4,-6.108472589E-4,1.527118147E-4
2.964252205E0,-1.068982761E-3,-6.108472589E-4,-1.068982761E-3
2.966696580E0,1.527118147E-4,-6.108472589E-4,1.527118147E-4
2.969141684E0,1.527118147E-4,-1.832541777E-3,1.374406274E-3
2.971585955E0,1.374406274E-3,6.108472589E-4,2.596100792E-3
2.974029444E0,-2.290677279E-3,6.108472589E-4,-4.734066315E-3
2.976473819E0,1.527118147E-4,6.108472589E-4,-2.290677279E-3
2.978918923E0,-1.068982761E-3,-6.108472589E-4,-3.512371797E-3
2.981363194E0,1.527118147E-4,-1.832541777E-3,-1.068982761E-3
2.983806684E0,1.527118147E-4,-6.108472589E-4,-1.068982761E-3
2.986251059E0,1.527118147E-4,1.832541777E-3,1.374406274E-3
2.988696163E0,1.374406274E-3,6.108472589E-4,-1.068982761E-3
2.991140434E0,1.527118147E-4,-1.832541777E-3,1.527118147E-4
2.993583923E0,1.527118147E-4,6.108472589E-4,1.527118147E-4
2.996028298E0,1.527118147E-4,-6.108472589E-4,1.374406274E-3
2.998473403E0,-1.068982761E-3,-6.108472589E-4,-1.068982761E-3
3.000917673E0,1.374406274E-3,6.108472589E-4,-3.512371797E-3
3.003361215E0,1.527118147E-4,-6.108472589E-4,1.527118147E-4
3.005805486E0,1.527118147E-4,-6.108472589E-4,1.527118147E-4
3.008250642E0,-2.290677279E-3,6.108472589E-4,-5.955760833E-3
3.010694913E0,1.527118147E-4,-6.108472589E-4,1.374406274E-3
3.013138455E0,1.527118147E-4,6.108472589E-4,2.596100792E-3
3.015582830E0,1.527118147E-4,1.832541777E-3,-1.068982761E-3
3.018027934E0,1.374406274E-3,-6.108472589E-4,1.527118147E-4
3.020472153E0,1.527118147E-4,-6.108472589E-4,-1.068982761E-3
3.022915694E0,1.527118147E-4,-1.832541777E-3,-1.068982761E-3
3.025360069E0,1.527118147E-4,-6.108472589E-4,1.527118147E-4
3.027805173E0,-1.068982761E-3,6.108472589E-4,-2.290677279E-3
3.030249392E0,1.527118147E-4,-6.108472589E-4,1.374406274E-3
3.032692934E0,-1.068982761E-3,-6.108472589E-4,-1.068982761E-3
3.035137309E0,1.527118147E-4,-6.108472589E-4,1.527118147E-4
3.037582413E0,1.374406274E-3,1.832541777E-3,-1.068982761E-3
3.040026684E0,1.374406274E-3,6.108472589E-4,1.527118147E-4
3.042470173E0,1.527118147E-4,-1.832541777E-3,-2.290677279E-3
3.044914548E0,-1.068982761E-3,-6.108472589E-4,-1.068982761E-3
3.047359653E0,-1.068982761E-3,3.054236295E-3,-1.068982761E-3
3.049803923E0,-1.068982761E-3,-1.832541777E-3,-2.290677279E-3
3.052247413E0,-1.068982761E-3,6.108472589E-4,-2.290677279E-3
3.054691788E0,1.527118147E-4,6.108472589E-4,-2.290677279E-3
3.057136892E0,1.527118147E-4,-6.108472589E-4,1.527118147E-4
3.059581163E0,1.527118147E-4,-6.108472589E-4,1.527118147E-4
3.062024653E0,1.527118147E-4,-6.108472589E-4,1.527118147E-4
3.064469028E0,1.527118147E-4,-1.832541777E-3,1.374406274E-3
3.066914132E0,1.527118147E-4,-6.108472589E-4,-2.290677279E-3
3.069358403E0,1.374406274E-3,-6.108472589E-4,1.527118147E-4
3.071801944E0,1.527118147E-4,-6.108472589E-4,1.374406274E-3
3.074246215E0,1.527118147E-4,-6.108472589E-4,1.527118147E-4
3.076691371E0,-1.068982761E-3,-6.108472589E-4,1.527118147E-4
3.079135642E0,1.527118147E-4,-6.108472589E-4,1.527118147E-4
3.081579184E0,1.527118147E-4,-6.108472589E-4,1.527118147E-4
3.084023559E0,1.374406274E-3,-6.108472589E-4,1.527118147E-4
3.086468663E0,-1.068982761E-3,-6.108472589E-4,1.527118147E-4
3.088912882E0,-1.068982761E-3,-1.832541777E-3,1.527118147E-4
3.091356423E0,1.527118147E-4,6.108472589E-4,-1.068982761E-3
3.093800798E0,1.374406274E-3,-1.832541777E-3,1.527118147E-4
3.096245903E0,-1.068982761E-3,-6.108472589E-4,1.527118147E-4
3.098690121E0,-1.068982761E-3,6.108472589E-4,1.527118147E-4
3.101133663E0,1.374406274E-3,6.108472589E-4,1.527118147E-4
3.103578038E0,-1.068982761E-3,1.832541777E-3,1.527118147E-4
3.106023142E0,-2.290677279E-3,6.108472589E-4,-1.068982761E-3
3.108467413E0,1.527118147E-4,6.108472589E-4,-1.068982761E-3
3.110910903E0,1.374406274E-3,-6.108472589E-4,-1.068982761E-3
3.113355278E0,1.374406274E-3,-3.054236295E-3,1.527118147E-4
3.115800382E0,1.374406274E-3,6.108472589E-4,-1.068982761E-3
3.118244653E0,1.374406274E-3,6.108472589E-4,2.596100792E-3
3.120688142E0,2.596100792E-3,6.108472589E-4,1.374406274E-3
3.123132517E0,1.527118147E-4,-6.108472589E-4,-3.512371797E-3
3.125577621E0,-1.068982761E-3,6.108472589E-4,1.374406274E-3
3.128021892E0,1.527118147E-4,1.832541777E-3,1.527118147E-4
3.130465382E0,-1.068982761E-3,6.108472589E-4,-3.512371797E-3
3.132909757E0,-1.068982761E-3,1.832541777E-3,-1.068982761E-3
3.135354861E0,1.527118147E-4,-6.108472589E-4,1.527118147E-4
3.137799132E0,1.527118147E-4,-1.832541777E-3,-4.734066315E-3
3.140242673E0,1.374406274E-3,-6.108472589E-4,1.374406274E-3
3.142686944E0,1.527118147E-4,-6.108472589E-4,1.527118147E-4
3.145132100E0,-1.068982761E-3,-6.108472589E-4,1.374406274E-3
3.147576371E0,1.527118147E-4,1.832541777E-3,-2.290677279E-3
3.150019913E0,1.527118147E-4,-1.832541777E-3,-2.290677279E-3
3.152464288E0,1.527118147E-4,-6.108472589E-4,-1.068982761E-3
3.154909392E0,1.527118147E-4,-6.108472589E-4,1.527118147E-4
3.157353611E0,1.527118147E-4,6.108472589E-4,-1.068982761E-3
3.159797153E0,1.527118147E-4,-1.832541777E-3,-1.068982761E-3
3.162241528E0,1.527118147E-4,-1.832541777E-3,-1.068982761E-3
3.164686632E0,1.527118147E-4,6.108472589E-4,2.596100792E-3
3.167130850E0,1.527118147E-4,-1.832541777E-3,2.596100792E-3
3.169574392E0,1.374406274E-3,-3.054236295E-3,2.596100792E-3
3.172018767E0,-1.068982761E-3,6.108472589E-4,1.374406274E-3
3.174463871E0,1.527118147E-4,-1.832541777E-3,1.374406274E-3
3.176908142E0,1.527118147E-4,-6.108472589E-4,1.374406274E-3
3.179351632E0,1.374406274E-3,-6.108472589E-4,-2.290677279E-3
3.181796007E0,1.374406274E-3,-6.108472589E-4,-1.068982761E-3
3.184241111E0,1.527118147E-4,-6.108472589E-4,-1.068982761E-3
3.186685382E0,1.527118147E-4,-6.108472589E-4,2.596100792E-3
3.189128871E0,1.527118147E-4,6.108472589E-4,-2.290677279E-3
3.191573246E0,1.527118147E-4,6.108472589E-4,-1.068982761E-3
3.194018350E0,1.374406274E-3,-6.108472589E-4,1.527118147E-4
3.196462621E0,1.527118147E-4,-6.108472589E-4,1.374406274E-3
3.198906111E0,1.374406274E-3,6.108472589E-4,1.527118147E-4
3.201350486E0,1.527118147E-4,6.108472589E-4,1.374406274E-3
3.203795590E0,1.527118147E-4,6.108472589E-4,1.374406274E-3
3.206239861E0,1.527118147E-4,6.108472589E-4,1.527118147E-4
3.208683403E0,1.374406274E-3,-6.108472589E-4,1.527118147E-4
3.211127673E0,1.527118147E-4,-1.832541777E-3,1.527118147E-4
3.213572830E0,-1.068982761E-3,6.108472589E-4,1.527118147E-4
3.216017100E0,-1.068982761E-3,-6.108472589E-4,-2.290677279E-3
3.218460642E0,-1.068982761E-3,6.108472589E-4,-1.068982761E-3
3.220904913E0,-1.068982761E-3,-6.108472589E-4,-1.068982761E-3
3.223350069E0,1.527118147E-4,-6.108472589E-4,1.527118147E-4
3.225794340E0,1.374406274E-3,6.108472589E-4,2.596100792E-3
3.228237882E0,1.374406274E-3,-6.108472589E-4,1.527118147E-4
3.230682257E0,1.527118147E-4,-1.832541777E-3,-2.290677279E-3
3.233127361E0,-2.290677279E-3,6.108472589E-4,-1.068982761E-3
3.235571580E0,-2.290677279E-3,6.108472589E-4,-2.290677279E-3
3.238015121E0,1.527118147E-4,-6.108472589E-4,-1.068982761E-3
3.240459496E0,1.374406274E-3,-6.108472589E-4,2.596100792E-3
3.242904600E0,-1.068982761E-3,-6.108472589E-4,1.527118147E-4
3.245348871E0,1.527118147E-4,-6.108472589E-4,3.817795310E-3
3.247792361E0,-1.068982761E-3,6.108472589E-4,1.527118147E-4
3.250236736E0,-1.068982761E-3,6.108472589E-4,1.527118147E-4
3.252681840E0,-1.068982761E-3,-6.108472589E-4,1.527118147E-4
3.255126111E0,1.527118147E-4,-1.832541777E-3,-1.068982761E-3
3.257569600E0,1.527118147E-4,6.108472589E-4,1.527118147E-4
3.260013975E0,1.527118147E-4,6.108472589E-4,-1.068982761E-3
3.262459080E0,-1.068982761E-3,6.108472589E-4,-2.290677279E-3
3.264903350E0,-1.068982761E-3,6.108472589E-4,-3.512371797E-3
3.267346840E0,-1.068982761E-3,1.832541777E-3,1.527118147E-4
3.269791215E0,-2.290677279E-3,6.108472589E-4,-1.068982761E-3
3.272236319E0,-1.068982761E-3,6.108472589E-4,-2.290677279E-3
3.274680590E0,1.527118147E-4,6.108472589E-4,1.527118147E-4
3.277124132E0,1.527118147E-4,-1.832541777E-3,-1.068982761E-3
3.279568403E0,1.527118147E-4,-6.108472589E-4,1.527118147E-4
3.282013559E0,1.527118147E-4,-6.108472589E-4,1.374406274E-3
3.284457830E0,1.374406274E-3,-1.832541777E-3,-2.290677279E-3
3.286901371E0,1.374406274E-3,-6.108472589E-4,1.527118147E-4
3.289345642E0,1.527118147E-4,-6.108472589E-4,-1.068982761E-3
3.291790798E0,1.374406274E-3,-6.108472589E-4,1.374406274E-3
3.294235069E0,1.527118147E-4,-6.108472589E-4,1.374406274E-3
3.296678611E0,-1.068982761E-3,-6.108472589E-4,1.374406274E-3
3.299122986E0,1.527118147E-4,1.832541777E-3,1.527118147E-4
3.301568090E0,-1.068982761E-3,6.108472589E-4,1.527118147E-4
3.304012309E0,-1.068982761E-3,-6.108472589E-4,1.527118147E-4
3.306455850E0,1.527118147E-4,6.108472589E-4,1.374406274E-3
3.308900225E0,-1.068982761E-3,-6.108472589E-4,-3.512371797E-3
3.311345330E0,1.527118147E-4,-1.832541777E-3,-4.734066315E-3
3.313789548E0,1.374406274E-3,-6.108472589E-4,1.527118147E-4
3.316233090E0,1.374406274E-3,1.832541777E-3,2.596100792E-3
3.318677465E0,-1.068982761E-3,-6.108472589E-4,1.527118147E-4
3.321122569E0,-1.068982761E-3,-6.108472589E-4,-3.512371797E-3
3.323566840E0,1.527118147E-4,-6.108472589E-4,-2.290677279E-3
3.326010330E0,-1.068982761E-3,-6.108472589E-4,1.374406274E-3
3.328454705E0,1.527118147E-4,1.832541777E-3,1.527118147E-4
3.330899809E0,1.527118147E-4,1.832541777E-3,1.374406274E-3
3.333344080E0,1.527118147E-4,-6.108472589E-4,1.527118147E-4
3.335787569E0,1.527118147E-4,6.108472589E-4,-1.068982761E-3
3.338231944E0,-2.290677279E-3,1.832541777E-3,1.374406274E-3
3.340677048E0,1.527118147E-4,-1.832541777E-3,1.374406274E-3
3.343121319E0,-1.068982761E-3,-6.108472589E-4,-2.290677279E-3
3.345564809E0,1.527118147E-4,-6.108472589E-4,-2.290677279E-3
3.348009184E0,1.527118147E-4,-1.832541777E-3,-1.068982761E-3
3.350454288E0,-2.290677279E-3,-1.832541777E-3,-1.068982761E-3
3.352898559E0,1.527118147E-4,6.108472589E-4,1.527118147E-4
3.355342100E0,1.374406274E-3,-6.108472589E-4,1.374406274E-3
3.357786371E0,1.527118147E-4,-6.108472589E-4,1.374406274E-3
3.360231528E0,2.596100792E-3,-1.832541777E-3,2.596100792E-3
3.362675798E0,1.374406274E-3,-1.832541777E-3,1.374406274E-3
3.365119340E0,1.527118147E-4,-3.054236295E-3,1.374406274E-3
3.367563611E0,1.527118147E-4,-1.832541777E-3,-1.068982761E-3
3.370008767E0,1.527118147E-4,6.108472589E-4,1.374406274E-3
3.372453038E0,-3.512371797E-3,-6.108472589E-4,-2.290677279E-3
3.374896580E0,-1.068982761E-3,-1.832541777E-3,-3.512371797E-3
3.377340955E0,1.527118147E-4,6.108472589E-4,-1.068982761E-3
3.379786059E0,1.527118147E-4,-6.108472589E-4,1.374406274E-3
3.382230278E0,1.374406274E-3,-1.832541777E-3,-1.068982761E-3
3.384673819E0,1.374406274E-3,-1.832541777E-3,3.817795310E-3
3.387118194E0,1.374406274E-3,1.832541777E-3,1.374406274E-3
3.389563298E0,1.527118147E-4,-6.108472589E-4,-2.290677279E-3
3.392007517E0,1.527118147E-4,-6.108472589E-4,-1.068982761E-3
3.394451059E0,1.527118147E-4,6.108472589E-4,3.817795310E-3
3.396895434E0,2.596100792E-3,-1.832541777E-3,1.527118147E-4
3.399340538E0,1.527118147E-4,-6.108472589E-4,-3.512371797E-3
3.401784809E0,1.527118147E-4,-6.108472589E-4,1.527118147E-4
3.404228298E0,-1.068982761E-3,-6.108472589E-4,-1.068982761E-3
3.406672673E0,1.527118147E-4,-6.108472589E-4,1.527118147E-4
3.409117778E0,-1.068982761E-3,6.108472589E-4,1.374406274E-3
3.411562048E0,1.527118147E-4,6.108472589E-4,-1.068982761E-3
3.414005538E0,1.527118147E-4,6.108472589E-4,1.527118147E-4
3.416449913E0,-1.068982761E-3,-6.108472589E-4,-1.068982761E-3
3.418895017E0,1.527118147E-4,-6.108472589E-4,-1.068982761E-3
3.421339288E0,1.527118147E-4,6.108472589E-4,1.374406274E-3
3.423782778E0,1.527118147E-4,6.108472589E-4,-1.068982761E-3
3.426227153E0,1.527118147E-4,6.108472589E-4,1.527118147E-4
3.428672257E0,1.374406274E-3,6.108472589E-4,-1.068982761E-3
3.431116528E0,1.374406274E-3,1.832541777E-3,-1.068982761E-3
3.433560017E0,1.527118147E-4,-6.108472589E-4,1.374406274E-3
3.436004392E0,1.374406274E-3,-6.108472589E-4,1.374406274E-3
3.438449496E0,1.527118147E-4,6.108472589E-4,1.527118147E-4
3.440893767E0,2.596100792E-3,-6.108472589E-4,3.817795310E-3
3.443337257E0,1.374406274E-3,1.832541777E-3,-2.290677279E-3
3.445781632E0,1.374406274E-3,-6.108472589E-4,1.374406274E-3
3.448226736E0,-1.068982761E-3,6.108472589E-4,-2.290677279E-3
3.450671007E0,-2.290677279E-3,1.832541777E-3,-3.512371797E-3
3.453114548E0,1.527118147E-4,-6.108472589E-4,1.527118147E-4
3.455558819E0,1.374406274E-3,-6.108472589E-4,1.527118147E-4
3.458003975E0,1.527118147E-4,-6.108472589E-4,-2.290677279E-3
3.460448246E0,1.374406274E-3,-3.054236295E-3,1.527118147E-4
3.462891788E0,1.527118147E-4,6.108472589E-4,1.527118147E-4
3.465336163E0,-1.068982761E-3,6.108472589E-4,1.374406274E-3
3.467781267E0,-1.068982761E-3,6.108472589E-4,1.527118147E-4
3.470225486E0,-1.068982761E-3,-6.108472589E-4,-4.734066315E-3
3.472669028E0,-2.290677279E-3,6.108472589E-4,-4.734066315E-3
3.475113403E0,1.527118147E-4,-6.108472589E-4,-2.290677279E-3
3.477558507E0,1.527118147E-4,-6.108472589E-4,1.374406274E-3
3.480002725E0,1.527118147E-4,-1.832541777E-3,1.527118147E-4
3.482446267E0,-1.068982761E-3,-1.832541777E-3,-1.068982761E-3
3.484890642E0,-2.290677279E-3,1.832541777E-3,-1.068982761E-3
3.487335746E0,1.527118147E-4,-6.108472589E-4,1.374406274E-3
3.489780017E0,1.527118147E-4,6.108472589E-4,1.527118147E-4
3.492223507E0,1.527118147E-4,6.108472589E-4,-1.068982761E-3
3.494667882E0,1.527118147E-4,-1.832541777E-3,-1.068982761E-3
3.497112986E0,1.374406274E-3,-3.054236295E-3,-1.068982761E-3
3.499557257E0,1.374406274E-3,6.108472589E-4,-1.068982761E-3
3.502000746E0,1.374406274E-3,-1.832541777E-3,-3.512371797E-3
3.504445121E0,1.374406274E-3,-6.108472589E-4,-1.068982761E-3
3.506890225E0,1.374406274E-3,-1.832541777E-3,3.817795310E-3
3.509334496E0,1.374406274E-3,-6.108472589E-4,1.527118147E-4
3.511777986E0,1.374406274E-3,6.108472589E-4,1.527118147E-4
3.514222361E0,-1.068982761E-3,6.108472589E-4,-3.512371797E-3
3.516667465E0,1.374406274E-3,-6.108472589E-4,1.527118147E-4
3.519111736E0,1.527118147E-4,-1.832541777E-3,1.527118147E-4
3.521555278E0,-1.068982761E-3,-6.108472589E-4,1.527118147E-4
3.523999548E0,1.527118147E-4,6.108472589E-4,1.527118147E-4
3.526444705E0,-1.068982761E-3,1.832541777E-3,-1.068982761E-3
3.528888975E0,1.527118147E-4,-1.832541777E-3,-2.290677279E-3
3.531332517E0,1.527118147E-4,-6.108472589E-4,-3.512371797E-3
3.533776788E0,1.374406274E-3,-1.832541777E-3,1.527118147E-4
3.536221944E0,1.374406274E-3,-1.832541777E-3,1.374406274E-3
3.538666215E0,-1.068982761E-3,-3.054236295E-3,1.374406274E-3
3.541109757E0,-1.068982761E-3,-1.832541777E-3,-1.068982761E-3
3.543554028E0,1.374406274E-3,-1.832541777E-3,1.527118147E-4
3.545999236E0,1.527118147E-4,-6.108472589E-4,1.527118147E-4
3.548443455E0,1.527118147E-4,-1.832541777E-3,-1.068982761E-3
3.550886996E0,1.374406274E-3,1.832541777E-3,1.374406274E-3
3.553331371E0,1.527118147E-4,-6.108472589E-4,1.527118147E-4
3.555776475E0,1.527118147E-4,-6.108472589E-4,-1.068982761E-3
3.558220694E0,1.374406274E-3,-3.054236295E-3,-1.068982761E-3
3.560664236E0,1.374406274E-3,1.832541777E-3,1.527118147E-4
3.563108611E0,-1.068982761E-3,3.054236295E-3,1.527118147E-4
3.565553715E0,-1.068982761E-3,-6.108472589E-4,-2.290677279E-3
3.567997986E0,-1.068982761E-3,6.108472589E-4,1.374406274E-3
3.570441475E0,1.527118147E-4,-6.108472589E-4,1.374406274E-3
3.572885850E0,1.527118147E-4,-1.832541777E-3,1.527118147E-4
3.575330955E0,-1.068982761E-3,-6.108472589E-4,-3.512371797E-3
3.577775225E0,-1.068982761E-3,6.108472589E-4,-2.290677279E-3
3.580218715E0,1.527118147E-4,-6.108472589E-4,1.374406274E-3
3.582663090E0,1.527118147E-4,-3.054236295E-3,1.374406274E-3
3.585108194E0,-1.068982761E-3,-1.832541777E-3,-1.068982761E-3
3.587552465E0,1.374406274E-3,1.832541777E-3,1.374406274E-3
3.589995955E0,1.527118147E-4,6.108472589E-4,1.527118147E-4
3.592440330E0,1.527118147E-4,6.108472589E-4,-1.068982761E-3
3.594885434E0,3.817795310E-3,1.832541777E-3,1.527118147E-4
3.597329705E0,1.374406274E-3,-1.832541777E-3,1.527118147E-4
3.599773194E0,1.527118147E-4,-3.054236295E-3,-2.290677279E-3
3.602217569E0,-4.734066315E-3,-3.054236295E-3,-1.068982761E-3
3.604662673E0,-2.290677279E-3,5.497625098E-3,1.374406274E-3
3.607106944E0,-1.068982761E-3,6.108472589E-4,-1.068982761E-3
3.609550434E0,1.527118147E-4,-6.108472589E-4,-1.068982761E-3
3.611994809E0,1.527118147E-4,-1.832541777E-3,1.527118147E-4
3.614439913E0,1.527118147E-4,-6.108472589E-4,1.527118147E-4
3.616884184E0,1.374406274E-3,6.108472589E-4,1.527118147E-4
3.619327725E0,1.527118147E-4,-6.108472589E-4,-1.068982761E-3
3.621771996E0,1.374406274E-3,-1.832541777E-3,-1.068982761E-3
3.624217153E0,1.374406274E-3,-6.108472589E-4,1.527118147E-4
3.626661423E0,1.527118147E-4,6.108472589E-4,1.527118147E-4
3.629104965E0,1.527118147E-4,-6.108472589E-4,-1.068982761E-3
3.631549236E0,-1.068982761E-3,-6.108472589E-4,-3.512371797E-3
3.633994392E0,1.527118147E-4,1.832541777E-3,-1.068982761E-3
3.636438663E0,1.374406274E-3,6.108472589E-4,1.527118147E-4
3.638882205E0,1.527118147E-4,6.108472589E-4,1.374406274E-3
3.641326580E0,1.527118147E-4,-6.108472589E-4,1.374406274E-3
3.643771684E0,1.527118147E-4,-6.108472589E-4,2.596100792E-3
3.646215903E0,1.374406274E-3,6.108472589E-4,3.817795310E-3
3.648659444E0,1.374406274E-3,6.108472589E-4,1.527118147E-4
3.651103819E0,1.374406274E-3,6.108472589E-4,1.374406274E-3
3.653548923E0,1.527118147E-4,6.108472589E-4,1.527118147E-4
3.655993142E0,-1.068982761E-3,6.108472589E-4,-3.512371797E-3
3.658436684E0,-1.068982761E-3,1.832541777E-3,-1.068982761E-3
3.660881059E0,1.527118147E-4,-6.108472589E-4,1.527118147E-4
3.663326163E0,-1.068982761E-3,-6.108472589E-4,1.374406274E-3
3.665770434E0,-1.068982761E-3,6.108472589E-4,2.596100792E-3
3.668213923E0,-1.068982761E-3,-6.108472589E-4,-2.290677279E-3
3.670658298E0,1.374406274E-3,-1.832541777E-3,-3.512371797E-3
3.673103403E0,1.374406274E-3,-6.108472589E-4,1.527118147E-4
3.675547673E0,1.374406274E-3,6.108472589E-4,3.817795310E-3
3.677991163E0,1.527118147E-4,-6.108472589E-4,-1.068982761E-3
3.680435538E0,1.374406274E-3,-6.108472589E-4,-1.068982761E-3
3.682880642E0,1.527118147E-4,1.832541777E-3,-1.068982761E-3
3.685324913E0,1.527118147E-4,6.108472589E-4,-1.068982761E-3
3.687768403E0,1.527118147E-4,-1.832541777E-3,1.374406274E-3
3.690212778E0,-1.068982761E-3,-6.108472589E-4,1.374406274E-3
3.692657882E0,1.527118147E-4,-6.108472589E-4,1.527118147E-4
3.695102153E0,1.374406274E-3,-6.108472589E-4,-1.068982761E-3
3.697545642E0,1.374406274E-3,-1.832541777E-3,2.596100792E-3
3.699990017E0,1.374406274E-3,6.108472589E-4,1.374406274E-3
3.702435121E0,1.374406274E-3,-6.108472589E-4,-1.068982761E-3
3.704879392E0,-1.068982761E-3,6.108472589E-4,-1.068982761E-3
3.707322882E0,1.527118147E-4,1.832541777E-3,2.596100792E-3
3.709767257E0,1.527118147E-4,-6.108472589E-4,1.374406274E-3
3.712212361E0,1.527118147E-4,-1.832541777E-3,-2.290677279E-3
3.714656632E0,1.527118147E-4,-1.832541777E-3,-2.290677279E-3
3.717100173E0,1.527118147E-4,-6.108472589E-4,1.527118147E-4
3.719544444E0,1.527118147E-4,6.108472589E-4,-1.068982761E-3
3.721989600E0,1.527118147E-4,-1.832541777E-3,-2.290677279E-3
3.724433871E0,1.527118147E-4,1.832541777E-3,-1.068982761E-3
3.726877413E0,1.374406274E-3,-6.108472589E-4,3.817795310E-3
3.729321684E0,1.527118147E-4,-1.832541777E-3,1.374406274E-3
3.731766892E0,1.374406274E-3,-1.832541777E-3,-1.068982761E-3
3.734211111E0,-2.290677279E-3,1.832541777E-3,-1.068982761E-3
3.736654653E0,1.527118147E-4,-6.108472589E-4,1.374406274E-3
3.739099028E0,1.527118147E-4,6.108472589E-4,-2.290677279E-3
3.741544132E0,-1.068982761E-3,-1.832541777E-3,-1.068982761E-3
3.743988350E0,-1.068982761E-3,6.108472589E-4,-3.512371797E-3
3.746431892E0,1.527118147E-4,6.108472589E-4,1.374406274E-3
3.748876267E0,1.527118147E-4,-6.108472589E-4,1.527118147E-4
3.751321371E0,1.527118147E-4,-6.108472589E-4,-1.068982761E-3
3.753765590E0,1.374406274E-3,-6.108472589E-4,1.527118147E-4
3.756209132E0,-1.068982761E-3,6.108472589E-4,-2.290677279E-3
3.758653507E0,1.527118147E-4,1.832541777E-3,1.374406274E-3
3.761098611E0,-1.068982761E-3,-3.054236295E-3,1.374406274E-3
3.763542882E0,-2.290677279E-3,-6.108472589E-4,-2.290677279E-3
3.765986371E0,1.527118147E-4,1.832541777E-3,-2.290677279E-3
3.768430746E0,1.527118147E-4,-6.108472589E-4,1.527118147E-4
3.770875850E0,1.527118147E-4,-6.108472589E-4,-2.290677279E-3
3.773320121E0,1.527118147E-4,6.108472589E-4,2.596100792E-3
3.775763611E0,1.527118147E-4,6.108472589E-4,-2.290677279E-3
3.778207986E0,1.374406274E-3,-1.832541777E-3,2.596100792E-3
3.780653090E0,1.527118147E-4,-6.108472589E-4,1.374406274E-3
3.783097361E0,2.596100792E-3,6.108472589E-4,5.039489828E-3
3.785540850E0,-1.068982761E-3,6.108472589E-4,-1.068982761E-3
3.787985225E0,-1.068982761E-3,-6.108472589E-4,-3.512371797E-3
3.790430330E0,1.374406274E-3,-6.108472589E-4,2.596100792E-3
3.792874600E0,1.374406274E-3,-6.108472589E-4,3.817795310E-3
3.795318090E0,-1.068982761E-3,6.108472589E-4,-3.512371797E-3
3.797762465E0,-1.068982761E-3,6.108472589E-4,-1.068982761E-3
3.800207569E0,1.527118147E-4,-1.832541777E-3,-1.068982761E-3
3.802651840E0,-1.068982761E-3,-6.108472589E-4,-2.290677279E-3
3.805095330E0,-1.068982761E-3,6.108472589E-4,-2.290677279E-3
3.807539705E0,1.527118147E-4,-6.108472589E-4,-1.068982761E-3
3.809984809E0,1.527118147E-4,6.108472589E-4,-1.068982761E-3
3.812429080E0,1.374406274E-3,6.108472589E-4,-1.068982761E-3
3.814872621E0,-1.068982761E-3,6.108472589E-4,-3.512371797E-3
3.817316892E0,-1.068982761E-3,-6.108472589E-4,-1.068982761E-3
3.819762048E0,-1.068982761E-3,-6.108472589E-4,-2.290677279E-3
3.822206319E0,-1.068982761E-3,-1.832541777E-3,-3.512371797E-3
3.824649861E0,1.527118147E-4,6.108472589E-4,1.527118147E-4
3.827094132E0,1.374406274E-3,-1.832541777E-3,1.527118147E-4
3.829539340E0,1.527118147E-4,-6.108472589E-4,1.374406274E-3
3.831983559E0,-1.068982761E-3,6.108472589E-4,-3.512371797E-3
3.834427100E0,1.527118147E-4,-1.832541777E-3,1.527118147E-4
3.836871475E0,2.596100792E-3,6.108472589E-4,1.527118147E-4
3.839316580E0,1.527118147E-4,6.108472589E-4,1.527118147E-4
3.841760798E0,1.527118147E-4,-6.108472589E-4,-3.512371797E-3
3.844204340E0,1.527118147E-4,-6.108472589E-4,1.527118147E-4
3.846648715E0,-1.068982761E-3,-6.108472589E-4,1.527118147E-4
3.849093819E0,1.527118147E-4,-3.054236295E-3,-1.068982761E-3
3.851538090E0,-1.068982761E-3,-6.108472589E-4,-2.290677279E-3
3.853981580E0,1.527118147E-4,6.108472589E-4,1.374406274E-3
3.856425955E0,1.527118147E-4,-6.108472589E-4,1.374406274E-3
3.858871059E0,1.527118147E-4,-6.108472589E-4,1.527118147E-4
3.861315330E0,-1.068982761E-3,6.108472589E-4,-1.068982761E-3
3.863758819E0,3.817795310E-3,6.108472589E-4,1.527118147E-4
3.866203194E0,-1.068982761E-3,6.108472589E-4,-3.512371797E-3
3.868648298E0,1.527118147E-4,6.108472589E-4,-4.734066315E-3
3.871092569E0,1.527118147E-4,6.108472589E-4,1.527118147E-4
3.873536059E0,-1.068982761E-3,1.832541777E-3,1.527118147E-4
3.875980434E0,-2.290677279E-3,6.108472589E-4,-2.290677279E-3
3.878425538E0,1.527118147E-4,-6.108472589E-4,-2.290677279E-3
3.880869809E0,-1.068982761E-3,6.108472589E-4,-2.290677279E-3
3.883313298E0,-2.290677279E-3,6.108472589E-4,-1.068982761E-3
3.885757673E0,-1.068982761E-3,6.108472589E-4,-2.290677279E-3
3.888202778E0,-1.068982761E-3,-6.108472589E-4,-1.068982761E-3
3.890647048E0,1.527118147E-4,6.108472589E-4,1.374406274E-3
3.893090538E0,1.527118147E-4,-1.832541777E-3,1.374406274E-3
3.895534913E0,1.527118147E-4,-6.108472589E-4,-2.290677279E-3
3.897980017E0,-1.068982761E-3,6.108472589E-4,-2.290677279E-3
3.900424288E0,-1.068982761E-3,-6.108472589E-4,-2.290677279E-3
3.902867778E0,1.527118147E-4,-6.108472589E-4,-2.290677279E-3
3.905312153E0,1.527118147E-4,6.108472589E-4,1.527118147E-4
3.907757257E0,1.527118147E-4,-1.832541777E-3,1.374406274E-3
3.910201528E0,1.374406274E-3,-1.832541777E-3,1.527118147E-4
3.912645017E0,1.374406274E-3,6.108472589E-4,1.527118147E-4
3.915089392E0,-1.068982761E-3,6.108472589E-4,-2.290677279E-3
3.917534496E0,1.527118147E-4,-6.108472589E-4,1.527118147E-4
3.919978767E0,1.527118147E-4,6.108472589E-4,-2.290677279E-3
3.922422309E0,1.527118147E-4,6.108472589E-4,1.527118147E-4
3.924866580E0,1.527118147E-4,6.108472589E-4,-1.068982761E-3
3.927311736E0,-1.068982761E-3,-6.108472589E-4,1.527118147E-4
3.929756007E0,1.527118147E-4,1.832541777E-3,2.596100792E-3
3.932199548E0,1.527118147E-4,6.108472589E-4,1.374406274E-3
3.934643819E0,1.374406274E-3,6.108472589E-4,1.374406274E-3
3.937088975E0,-2.290677279E-3,1.832541777E-3,-3.512371797E-3
3.939533246E0,-1.068982761E-3,-6.108472589E-4,-3.512371797E-3
3.941976788E0,1.527118147E-4,6.108472589E-4,1.374406274E-3
3.944421163E0,-2.290677279E-3,-6.108472589E-4,-2.290677279E-3
3.946866267E0,-2.290677279E-3,1.832541777E-3,-2.290677279E-3
3.949310486E0,1.374406274E-3,-6.108472589E-4,-1.068982761E-3
3.951754028E0,1.374406274E-3,-6.108472589E-4,-2.290677279E-3
3.954198403E0,1.374406274E-3,-3.054236295E-3,-1.068982761E-3
3.956643507E0,1.527118147E-4,-6.108472589E-4,1.527118147E-4
3.959087725E0,1.527118147E-4,6.108472589E-4,-1.068982761E-3
3.961531267E0,-1.068982761E-3,-6.108472589E-4,-1.068982761E-3
3.963975642E0,1.527118147E-4,3.054236295E-3,1.374406274E-3
3.966420746E0,2.596100792E-3,-1.832541777E-3,1.527118147E-4
3.968865017E0,1.374406274E-3,-3.054236295E-3,1.374406274E-3
3.971308507E0,-2.290677279E-3,1.832541777E-3,-4.734066315E-3
3.973752882E0,1.527118147E-4,6.108472589E-4,1.374406274E-3
3.976197986E0,1.527118147E-4,6.108472589E-4,3.817795310E-3
3.978642257E0,2.596100792E-3,-6.108472589E-4,3.817795310E-3
3.981085746E0,1.527118147E-4,-1.832541777E-3,-1.068982761E-3
3.983530121E0,-1.068982761E-3,-6.108472589E-4,-3.512371797E-3
3.985975225E0,-2.290677279E-3,-6.108472589E-4,1.527118147E-4
3.988419496E0,-1.068982761E-3,6.108472589E-4,-2.290677279E-3
3.990862986E0,1.527118147E-4,-6.108472589E-4,-1.068982761E-3
3.993307361E0,1.527118147E-4,-6.108472589E-4,2.596100792E-3
3.995752465E0,2.596100792E-3,-1.832541777E-3,3.817795310E-3
3.998196736E0,2.596100792E-3,-6.108472589E-4,1.527118147E-4
4.000640225E0,2.596100792E-3,-4.275931045E-3,1.527118147E-4
4.003084600E0,2.596100792E-3,-6.108472589E-4,3.817795310E-3
4.005529705E0,1.527118147E-4,6.108472589E-4,1.374406274E-3
4.007973975E0,1.374406274E-3,-1.832541777E-3,-1.068982761E-3
4.010417465E0,1.374406274E-3,-6.108472589E-4,2.596100792E-3
4.012861840E0,1.374406274E-3,6.108472589E-4,1.374406274E-3
4.015306944E0,1.527118147E-4,-1.832541777E-3,1.374406274E-3
4.017751215E0,1.527118147E-4,6.108472589E-4,-2.290677279E-3
4.020194705E0,-1.068982761E-3,6.108472589E-4,-1.068982761E-3
4.022639080E0,1.527118147E-4,-6.108472589E-4,1.374406274E-3
4.025084184E0,1.527118147E-4,6.108472589E-4,1.527118147E-4
4.027528455E0,1.527118147E-4,6.108472589E-4,-2.290677279E-3
4.029971996E0,1.374406274E-3,-6.108472589E-4,1.527118147E-4
4.032416267E0,1.527118147E-4,-1.832541777E-3,1.527118147E-4
4.034861423E0,1.527118147E-4,1.832541777E-3,-3.512371797E-3
4.037305694E0,1.374406274E-3,-6.108472589E-4,-3.512371797E-3
4.039749236E0,1.374406274E-3,-6.108472589E-4,-1.068982761E-3
4.042193507E0,1.527118147E-4,-1.832541777E-3,1.374406274E-3
4.044638663E0,1.374406274E-3,-1.832541777E-3,1.374406274E-3
4.047082934E0,1.374406274E-3,-6.108472589E-4,1.527118147E-4
4.049526475E0,1.374406274E-3,6.108472589E-4,-1.068982761E-3
4.051970746E0,1.374406274E-3,-1.832541777E-3,5.039489828E-3
4.054415955E0,1.527118147E-4,-6.108472589E-4,-1.068982761E-3
4.056860173E0,1.527118147E-4,-6.108472589E-4,-3.512371797E-3
4.059303715E0,1.527118147E-4,-6.108472589E-4,-1.068982761E-3
4.061748090E0,1.527118147E-4,6.108472589E-4,1.374406274E-3
4.064193194E0,2.596100792E-3,-6.108472589E-4,3.817795310E-3
4.066637413E0,2.596100792E-3,-1.832541777E-3,1.527118147E-4
4.069080955E0,1.374406274E-3,-4.275931045E-3,-2.290677279E-3
4.071525330E0,1.374406274E-3,-1.832541777E-3,1.374406274E-3
4.073970434E0,1.527118147E-4,-1.832541777E-3,1.374406274E-3
4.076414653E0,-1.068982761E-3,-6.108472589E-4,-1.068982761E-3
4.078858194E0,-1.068982761E-3,-6.108472589E-4,-3.512371797E-3
4.081302569E0,1.374406274E-3,-6.108472589E-4,1.374406274E-3
4.083747673E0,1.527118147E-4,-6.108472589E-4,3.817795310E-3
4.086191944E0,1.527118147E-4,6.108472589E-4,-2.290677279E-3
4.088635434E0,-1.068982761E-3,6.108472589E-4,-2.290677279E-3
4.091079809E0,1.527118147E-4,6.108472589E-4,-1.068982761E-3
4.093524913E0,1.527118147E-4,1.832541777E-3,1.527118147E-4
4.095969184E0,-1.068982761E-3,6.108472589E-4,-4.734066315E-3
4.098412673E0,-1.068982761E-3,-6.108472589E-4,1.527118147E-4
4.100857048E0,-1.068982761E-3,6.108472589E-4,-1.068982761E-3
4.103302153E0,1.527118147E-4,6.108472589E-4,-2.290677279E-3
4.105746423E0,-1.068982761E-3,-6.108472589E-4,-3.512371797E-3
4.108189913E0,-1.068982761E-3,-6.108472589E-4,-2.290677279E-3
4.110634288E0,-1.068982761E-3,6.108472589E-4,-1.068982761E-3
4.113079392E0,1.527118147E-4,-1.832541777E-3,1.527118147E-4
4.115523663E0,-2.290677279E-3,6.108472589E-4,-3.512371797E-3
4.117967153E0,1.527118147E-4,-3.054236295E-3,1.374406274E-3
4.120411528E0,-1.068982761E-3,-1.832541777E-3,1.527118147E-4
4.122856632E0,1.374406274E-3,-6.108472589E-4,1.527118147E-4
4.125300903E0,1.527118147E-4,-6.108472589E-4,1.527118147E-4
4.127744392E0,-1.068982761E-3,6.108472589E-4,1.527118147E-4
4.130188767E0,-1.068982761E-3,6.108472589E-4,1.527118147E-4
4.132633871E0,-1.068982761E-3,6.108472589E-4,-2.290677279E-3
4.135078142E0,1.374406274E-3,6.108472589E-4,1.527118147E-4
4.137521632E0,1.527118147E-4,6.108472589E-4,3.817795310E-3
4.139966007E0,-2.290677279E-3,6.108472589E-4,-1.068982761E-3
4.142411111E0,-1.068982761E-3,-6.108472589E-4,-1.068982761E-3
4.144855382E0,1.527118147E-4,6.108472589E-4,-1.068982761E-3
4.147298923E0,-2.290677279E-3,1.832541777E-3,-3.512371797E-3
4.149743194E0,1.374406274E-3,-6.108472589E-4,-1.068982761E-3
4.152188350E0,1.374406274E-3,-6.108472589E-4,-1.068982761E-3
4.154632621E0,2.596100792E-3,1.832541777E-3,1.374406274E-3
4.157076163E0,1.527118147E-4,6.108472589E-4,1.374406274E-3
4.159520434E0,-1.068982761E-3,-6.108472589E-4,-3.512371797E-3
4.161965590E0,1.374406274E-3,6.108472589E-4,1.527118147E-4
4.164409861E0,1.374406274E-3,-6.108472589E-4,3.817795310E-3
4.166853403E0,1.527118147E-4,-6.108472589E-4,-2.290677279E-3
4.169297673E0,1.527118147E-4,6.108472589E-4,-2.290677279E-3
4.171742830E0,-1.068982761E-3,-6.108472589E-4,1.374406274E-3
4.174187100E0,1.374406274E-3,6.108472589E-4,1.527118147E-4
4.176630642E0,-1.068982761E-3,-6.108472589E-4,1.527118147E-4
4.179074913E0,1.527118147E-4,6.108472589E-4,-3.512371797E-3
4.181520121E0,-1.068982761E-3,3.054236295E-3,-4.734066315E-3
4.183964340E0,1.527118147E-4,-6.108472589E-4,1.527118147E-4
4.186407882E0,1.374406274E-3,-3.054236295E-3,1.374406274E-3
4.188852257E0,1.374406274E-3,-3.054236295E-3,1.527118147E-4
4.191297361E0,1.374406274E-3,-6.108472589E-4,1.374406274E-3
4.193741580E0,1.374406274E-3,6.108472589E-4,1.374406274E-3
4.196185121E0,-1.068982761E-3,6.108472589E-4,-1.068982761E-3
4.198629496E0,-2.290677279E-3,6.108472589E-4,-4.734066315E-3
4.201074600E0,-1.068982761E-3,3.054236295E-3,-3.512371797E-3
4.203518819E0,-1.068982761E-3,-6.108472589E-4,-2.290677279E-3
4.205962361E0,1.374406274E-3,6.108472589E-4,1.374406274E-3
4.208406736E0,1.527118147E-4,1.832541777E-3,1.527118147E-4
4.210851840E0,1.527118147E-4,-6.108472589E-4,-1.068982761E-3
4.213296111E0,1.374406274E-3,-1.832541777E-3,-1.068982761E-3
4.215739600E0,1.374406274E-3,1.832541777E-3,1.527118147E-4
4.218183975E0,-1.068982761E-3,-1.832541777E-3,-3.512371797E-3
4.220629080E0,-1.068982761E-3,-3.054236295E-3,-2.290677279E-3
4.223073298E0,1.527118147E-4,1.832541777E-3,-3.512371797E-3
4.225516840E0,-1.068982761E-3,-6.108472589E-4,1.527118147E-4
4.227961215E0,1.527118147E-4,-1.832541777E-3,-1.068982761E-3
4.230406319E0,1.527118147E-4,-1.832541777E-3,-3.512371797E-3
4.232850590E0,-1.068982761E-3,-3.054236295E-3,-1.068982761E-3
4.235294080E0,1.527118147E-4,6.108472589E-4,2.596100792E-3
4.237738455E0,1.527118147E-4,6.108472589E-4,1.374406274E-3
4.240183559E0,1.527118147E-4,-1.832541777E-3,-1.068982761E-3
4.242627830E0,1.527118147E-4,1.832541777E-3,-1.068982761E-3
4.245071319E0,1.374406274E-3,1.832541777E-3,-1.068982761E-3
4.247515694E0,1.527118147E-4,-6.108472589E-4,-2.290677279E-3
4.249960798E0,-1.068982761E-3,6.108472589E-4,-4.734066315E-3
4.252405069E0,-1.068982761E-3,6.108472589E-4,-1.068982761E-3
4.254848559E0,-1.068982761E-3,6.108472589E-4,1.374406274E-3
4.257292934E0,1.527118147E-4,6.108472589E-4,-2.290677279E-3
4.259738038E0,-1.068982761E-3,-6.108472589E-4,-2.290677279E-3
4.262182309E0,-1.068982761E-3,6.108472589E-4,-2.290677279E-3
4.264625798E0,1.527118147E-4,6.108472589E-4,1.374406274E-3
4.267070173E0,1.374406274E-3,-6.108472589E-4,3.817795310E-3
4.269515278E0,-1.068982761E-3,6.108472589E-4,-2.290677279E-3
4.271959548E0,-1.068982761E-3,6.108472589E-4,1.527118147E-4
4.274403038E0,1.374406274E-3,6.108472589E-4,1.527118147E-4
4.276847413E0,1.527118147E-4,6.108472589E-4,1.374406274E-3
4.279292517E0,-1.068982761E-3,6.108472589E-4,1.374406274E-3
4.281736788E0,1.527118147E-4,6.108472589E-4,-2.290677279E-3
4.284180330E0,1.527118147E-4,-1.832541777E-3,1.374406274E-3
4.286624600E0,1.527118147E-4,-6.108472589E-4,1.527118147E-4
4.289069757E0,1.527118147E-4,1.832541777E-3,1.527118147E-4
4.291514028E0,1.527118147E-4,6.108472589E-4,-3.512371797E-3
4.293957569E0,-1.068982761E-3,6.108472589E-4,-4.734066315E-3
4.296401840E0,1.527118147E-4,6.108472589E-4,-2.290677279E-3
4.298846996E0,1.374406274E-3,6.108472589E-4,2.596100792E-3
4.301291267E0,1.374406274E-3,-1.832541777E-3,1.527118147E-4
4.303734809E0,1.527118147E-4,6.108472589E-4,-2.290677279E-3
4.306179080E0,1.527118147E-4,-6.108472589E-4,-1.068982761E-3
4.308624236E0,1.527118147E-4,-3.054236295E-3,-2.290677279E-3
4.311068507E0,1.374406274E-3,6.108472589E-4,2.596100792E-3
4.313512048E0,1.374406274E-3,-6.108472589E-4,2.596100792E-3
4.315956423E0,1.527118147E-4,-6.108472589E-4,1.374406274E-3
4.318401528E0,-1.068982761E-3,-6.108472589E-4,1.527118147E-4
4.320845746E0,1.527118147E-4,6.108472589E-4,1.527118147E-4
4.323289288E0,1.527118147E-4,-6.108472589E-4,1.374406274E-3
4.325733663E0,1.527118147E-4,-6.108472589E-4,2.596100792E-3
4.328178767E0,1.527118147E-4,-6.108472589E-4,1.374406274E-3
4.330622986E0,-1.068982761E-3,6.108472589E-4,1.527118147E-4
4.333066528E0,1.374406274E-3,-6.108472589E-4,2.596100792E-3
4.335510903E0,1.527118147E-4,6.108472589E-4,1.527118147E-4
4.337956007E0,1.527118147E-4,-6.108472589E-4,-1.068982761E-3
4.340400225E0,1.527118147E-4,1.832541777E-3,-2.290677279E-3
4.342843767E0,1.527118147E-4,-6.108472589E-4,-3.512371797E-3
4.345288142E0,1.527118147E-4,6.108472589E-4,-1.068982761E-3
4.347733246E0,1.527118147E-4,-6.108472589E-4,-1.068982761E-3
4.350177517E0,1.527118147E-4,-6.108472589E-4,-2.290677279E-3
4.352621007E0,1.374406274E-3,-3.054236295E-3,1.527118147E-4
4.355065382E0,1.527118147E-4,6.108472589E-4,1.374406274E-3
4.357510486E0,1.527118147E-4,-6.108472589E-4,1.527118147E-4
4.359954757E0,1.527118147E-4,6.108472589E-4,1.374406274E-3
4.362398246E0,-1.068982761E-3,6.108472589E-4,-1.068982761E-3
4.364842621E0,1.374406274E-3,-6.108472589E-4,1.374406274E-3
4.367287725E0,-1.068982761E-3,6.108472589E-4,1.374406274E-3
4.369731996E0,1.527118147E-4,-6.108472589E-4,2.596100792E-3
4.372175486E0,-1.068982761E-3,-6.108472589E-4,1.527118147E-4
4.374619861E0,-1.068982761E-3,1.832541777E-3,-3.512371797E-3
4.377064965E0,1.527118147E-4,4.275931045E-3,-1.068982761E-3
4.379509236E0,1.527118147E-4,6.108472589E-4,1.527118147E-4
4.381952725E0,1.374406274E-3,-6.108472589E-4,1.527118147E-4
4.384397100E0,2.596100792E-3,-6.108472589E-4,1.527118147E-4
4.386842205E0,1.527118147E-4,-1.832541777E-3,-1.068982761E-3
4.389286475E0,-1.068982761E-3,6.108472589E-4,-2.290677279E-3
4.391729965E0,1.374406274E-3,-6.108472589E-4,1.374406274E-3
4.394174340E0,1.527118147E-4,1.832541777E-3,-1.068982761E-3
4.396619444E0,-1.068982761E-3,-6.108472589E-4,-3.512371797E-3
4.399063715E0,1.527118147E-4,-6.108472589E-4,-1.068982761E-3
4.401507205E0,-1.068982761E-3,-6.108472589E-4,-3.512371797E-3
4.403951580E0,-1.068982761E-3,-6.108472589E-4,1.527118147E-4
4.406396684E0,-2.290677279E-3,1.832541777E-3,-2.290677279E-3
4.408840955E0,1.527118147E-4,6.108472589E-4,1.374406274E-3
4.411284444E0,-1.068982761E-3,-6.108472589E-4,-4.734066315E-3
4.413728819E0,1.374406274E-3,6.108472589E-4,1.527118147E-4
4.416173923E0,1.527118147E-4,-6.108472589E-4,3.817795310E-3
4.418618194E0,-1.068982761E-3,6.108472589E-4,2.596100792E-3
4.421061684E0,1.527118147E-4,-6.108472589E-4,2.596100792E-3
4.423506059E0,1.374406274E-3,-1.832541777E-3,-1.068982761E-3
4.425951163E0,-1.068982761E-3,-6.108472589E-4,-1.068982761E-3
4.428395434E0,-1.068982761E-3,6.108472589E-4,1.527118147E-4
4.430838923E0,1.527118147E-4,-3.054236295E-3,1.527118147E-4
4.433283298E0,-1.068982761E-3,6.108472589E-4,-2.290677279E-3
4.435728403E0,-2.290677279E-3,1.832541777E-3,1.527118147E-4
4.438172673E0,1.527118147E-4,-6.108472589E-4,1.527118147E-4
4.440616215E0,1.527118147E-4,-6.108472589E-4,1.527118147E-4
4.443060486E0,-2.290677279E-3,-6.108472589E-4,-3.512371797E-3
4.445505642E0,1.527118147E-4,6.108472589E-4,1.374406274E-3
4.447949913E0,1.527118147E-4,-1.832541777E-3,1.374406274E-3
4.450393455E0,-1.068982761E-3,-6.108472589E-4,-1.068982761E-3
4.452837725E0,1.374406274E-3,6.108472589E-4,-1.068982761E-3
4.455282882E0,1.374406274E-3,-6.108472589E-4,1.374406274E-3
4.457727153E0,1.527118147E-4,-1.832541777E-3,-1.068982761E-3
4.460170694E0,1.527118147E-4,-6.108472589E-4,1.527118147E-4
4.462615069E0,-1.068982761E-3,-6.108472589E-4,-1.068982761E-3
4.465060121E0,-2.290677279E-3,6.108472589E-4,-4.734066315E-3
4.467504392E0,1.374406274E-3,-6.108472589E-4,1.374406274E-3
4.469947934E0,1.527118147E-4,6.108472589E-4,-1.068982761E-3
4.472392205E0,-1.068982761E-3,-6.108472589E-4,-2.290677279E-3
4.474837413E0,1.527118147E-4,-6.108472589E-4,-2.290677279E-3
4.477281632E0,1.527118147E-4,6.108472589E-4,-2.290677279E-3
4.479725173E0,1.527118147E-4,-3.054236295E-3,1.527118147E-4
4.482169548E0,-1.068982761E-3,-6.108472589E-4,-5.955760833E-3
4.484614653E0,1.527118147E-4,6.108472589E-4,-2.290677279E-3
4.487058871E0,1.374406274E-3,-6.108472589E-4,-1.068982761E-3
4.489502413E0,1.527118147E-4,6.108472589E-4,-1.068982761E-3
4.491946788E0,1.527118147E-4,-6.108472589E-4,1.527118147E-4
4.494391892E0,1.527118147E-4,6.108472589E-4,-1.068982761E-3
4.496836111E0,1.527118147E-4,-6.108472589E-4,1.527118147E-4
4.499279653E0,1.527118147E-4,-1.832541777E-3,3.817795310E-3
4.501724028E0,1.374406274E-3,-1.832541777E-3,2.596100792E-3
4.504169132E0,1.527118147E-4,-6.108472589E-4,-3.512371797E-3
4.506613403E0,1.374406274E-3,-6.108472589E-4,-1.068982761E-3
4.509056892E0,1.374406274E-3,1.832541777E-3,1.374406274E-3
4.511501267E0,2.596100792E-3,1.832541777E-3,2.596100792E-3
4.513946371E0,2.596100792E-3,-6.108472589E-4,1.527118147E-4
4.516390642E0,-1.068982761E-3,-6.108472589E-4,-3.512371797E-3
4.518834132E0,-1.068982761E-3,6.108472589E-4,1.527118147E-4
4.521278507E0,1.527118147E-4,6.108472589E-4,1.374406274E-3
4.523723611E0,-2.290677279E-3,1.832541777E-3,-3.512371797E-3
4.526167882E0,-2.290677279E-3,1.832541777E-3,-2.290677279E-3
4.528611371E0,1.374406274E-3,6.108472589E-4,1.374406274E-3
4.531055746E0,1.527118147E-4,1.832541777E-3,-1.068982761E-3
4.533500850E0,1.374406274E-3,-1.832541777E-3,-1.068982761E-3
4.535945121E0,1.527118147E-4,-1.832541777E-3,1.527118147E-4
4.538388611E0,1.374406274E-3,6.108472589E-4,-2.290677279E-3
4.540832986E0,1.527118147E-4,6.108472589E-4,-2.290677279E-3
4.543278090E0,1.527118147E-4,1.832541777E-3,1.374406274E-3
4.545722361E0,-1.068982761E-3,6.108472589E-4,-1.068982761E-3
4.548165850E0,-1.068982761E-3,6.108472589E-4,-3.512371797E-3
4.550610225E0,2.596100792E-3,-6.108472589E-4,1.374406274E-3
4.553055330E0,1.527118147E-4,-1.832541777E-3,-2.290677279E-3
4.555499600E0,1.374406274E-3,-6.108472589E-4,1.374406274E-3
4.557943090E0,-1.068982761E-3,1.832541777E-3,-4.734066315E-3
4.560387465E0,1.527118147E-4,1.832541777E-3,3.817795310E-3
4.562832569E0,1.374406274E-3,-6.108472589E-4,1.374406274E-3
4.565276840E0,1.527118147E-4,-6.108472589E-4,1.374406274E-3
4.567720330E0,1.527118147E-4,6.108472589E-4,-1.068982761E-3
4.570164705E0,1.527118147E-4,6.108472589E-4,1.527118147E-4
4.572609809E0,1.374406274E-3,-1.832541777E-3,1.527118147E-4
4.575054080E0,1.374406274E-3,1.832541777E-3,3.817795310E-3
4.577497569E0,2.596100792E-3,-6.108472589E-4,1.527118147E-4
4.579941944E0,1.374406274E-3,3.054236295E-3,-1.068982761E-3
4.582387048E0,-1.068982761E-3,-1.832541777E-3,1.527118147E-4
4.584831319E0,-1.068982761E-3,-6.108472589E-4,-2.290677279E-3
4.587274809E0,1.527118147E-4,-1.832541777E-3,-1.068982761E-3
4.589719184E0,-1.068982761E-3,1.832541777E-3,1.527118147E-4
4.592164288E0,1.527118147E-4,-6.108472589E-4,1.374406274E-3
4.594608559E0,1.527118147E-4,-6.108472589E-4,2.596100792E-3
4.597052100E0,1.527118147E-4,-6.108472589E-4,-1.068982761E-3
4.599496371E0,1.527118147E-4,-6.108472589E-4,1.374406274E-3
4.601941528E0,-1.068982761E-3,6.108472589E-4,1.527118147E-4
4.604385798E0,-1.068982761E-3,6.108472589E-4,-1.068982761E-3
4.606829340E0,1.374406274E-3,-6.108472589E-4,-1.068982761E-3
4.609273611E0,1.527118147E-4,1.832541777E-3,-2.290677279E-3
4.611718767E0,1.374406274E-3,-6.108472589E-4,1.374406274E-3
4.614163038E0,1.527118147E-4,6.108472589E-4,2.596100792E-3
4.616606580E0,2.596100792E-3,-1.832541777E-3,1.374406274E-3
4.619050850E0,1.527118147E-4,-3.054236295E-3,-2.290677279E-3
4.621496007E0,-1.068982761E-3,-6.108472589E-4,1.374406274E-3
4.623940278E0,-1.068982761E-3,-6.108472589E-4,-1.068982761E-3
4.626383819E0,-1.068982761E-3,6.108472589E-4,-2.290677279E-3
4.628828090E0,1.527118147E-4,-6.108472589E-4,-1.068982761E-3
4.631273298E0,-1.068982761E-3,-6.108472589E-4,1.527118147E-4
4.633717517E0,1.374406274E-3,-6.108472589E-4,1.374406274E-3
4.636161059E0,1.374406274E-3,-3.054236295E-3,1.527118147E-4
4.638605434E0,1.527118147E-4,-6.108472589E-4,-1.068982761E-3
4.641050486E0,1.527118147E-4,6.108472589E-4,-1.068982761E-3
4.643494757E0,1.527118147E-4,-6.108472589E-4,2.596100792E-3
4.645938298E0,1.374406274E-3,-1.832541777E-3,1.527118147E-4
4.648382569E0,-1.068982761E-3,6.108472589E-4,-2.290677279E-3
4.650827778E0,1.374406274E-3,6.108472589E-4,2.596100792E-3
4.653271996E0,1.374406274E-3,1.832541777E-3,1.374406274E-3
4.655715538E0,-1.068982761E-3,3.054236295E-3,-3.512371797E-3
4.658159913E0,1.374406274E-3,6.108472589E-4,1.374406274E-3
4.660605017E0,1.527118147E-4,6.108472589E-4,-1.068982761E-3
4.663049236E0,1.527118147E-4,-6.108472589E-4,2.596100792E-3
4.665492778E0,1.374406274E-3,-6.108472589E-4,2.596100792E-3
4.667937153E0,1.374406274E-3,-1.832541777E-3,3.817795310E-3
4.670382257E0,1.527118147E-4,-1.832541777E-3,2.596100792E-3
4.672826475E0,1.374406274E-3,-6.108472589E-4,2.596100792E-3
4.675270017E0,1.374406274E-3,6.108472589E-4,1.527118147E-4
4.677714392E0,1.527118147E-4,1.832541777E-3,1.527118147E-4
4.680159496E0,2.596100792E-3,-6.108472589E-4,-1.068982761E-3
4.682603715E0,1.527118147E-4,1.832541777E-3,-3.512371797E-3
4.685047257E0,1.374406274E-3,1.832541777E-3,-1.068982761E-3
4.687491632E0,1.527118147E-4,-6.108472589E-4,1.527118147E-4
4.689936736E0,-1.068982761E-3,6.108472589E-4,1.527118147E-4
4.692381007E0,1.527118147E-4,6.108472589E-4,-2.290677279E-3
4.694824496E0,-1.068982761E-3,6.108472589E-4,-3.512371797E-3
4.697268871E0,-1.068982761E-3,-1.832541777E-3,1.374406274E-3
4.699713975E0,-1.068982761E-3,-6.108472589E-4,-2.290677279E-3
4.702158246E0,-1.068982761E-3,6.108472589E-4,1.527118147E-4
4.704601736E0,1.527118147E-4,6.108472589E-4,1.374406274E-3
4.707046111E0,1.527118147E-4,-6.108472589E-4,1.374406274E-3
4.709491215E0,1.527118147E-4,6.108472589E-4,1.374406274E-3
4.711935486E0,1.374406274E-3,-6.108472589E-4,1.527118147E-4
4.714378975E0,1.527118147E-4,6.108472589E-4,1.527118147E-4
4.716823350E0,1.527118147E-4,1.832541777E-3,-2.290677279E-3
4.719268455E0,-1.068982761E-3,6.108472589E-4,-1.068982761E-3
4.721712725E0,1.527118147E-4,6.108472589E-4,-2.290677279E-3
4.724156215E0,-1.068982761E-3,6.108472589E-4,1.374406274E-3
4.726600590E0,1.527118147E-4,-6.108472589E-4,-1.068982761E-3
4.729045694E0,-1.068982761E-3,-6.108472589E-4,1.527118147E-4
4.731489965E0,1.527118147E-4,6.108472589E-4,1.527118147E-4
4.733933455E0,1.527118147E-4,-6.108472589E-4,-1.068982761E-3
4.736377830E0,1.527118147E-4,6.108472589E-4,1.374406274E-3
4.738822934E0,-1.068982761E-3,-6.108472589E-4,-2.290677279E-3
4.741267205E0,1.374406274E-3,6.108472589E-4,1.374406274E-3
4.743710694E0,1.374406274E-3,-1.832541777E-3,-1.068982761E-3
4.746155069E0,1.527118147E-4,-6.108472589E-4,-1.068982761E-3
4.748600173E0,1.374406274E-3,-1.832541777E-3,-2.290677279E-3
4.751044444E0,1.527118147E-4,-1.832541777E-3,-1.068982761E-3
4.753487934E0,-2.290677279E-3,6.108472589E-4,-2.290677279E-3
4.755932309E0,1.527118147E-4,6.108472589E-4,-2.290677279E-3
4.758377413E0,1.527118147E-4,-6.108472589E-4,3.817795310E-3
4.760821684E0,2.596100792E-3,-1.832541777E-3,1.374406274E-3
4.763265173E0,-1.068982761E-3,1.832541777E-3,1.527118147E-4
4.765709548E0,1.527118147E-4,3.054236295E-3,1.374406274E-3
4.768154653E0,1.527118147E-4,-6.108472589E-4,-1.068982761E-3
4.770598923E0,1.527118147E-4,6.108472589E-4,-1.068982761E-3
4.773042413E0,1.374406274E-3,-6.108472589E-4,-2.290677279E-3
4.775486788E0,-1.068982761E-3,6.108472589E-4,-2.290677279E-3
4.777931892E0,1.527118147E-4,-6.108472589E-4,1.374406274E-3
4.780376163E0,1.527118147E-4,-6.108472589E-4,-1.068982761E-3
4.782819653E0,-1.068982761E-3,-6.108472589E-4,-3.512371797E-3
4.785264028E0,-1.068982761E-3,6.108472589E-4,-2.290677279E-3
4.787709132E0,1.527118147E-4,6.108472589E-4,1.527118147E-4
4.790153403E0,1.527118147E-4,-6.108472589E-4,-1.068982761E-3
4.792596944E0,1.527118147E-4,-1.832541777E-3,2.596100792E-3
4.795041215E0,1.527118147E-4,6.108472589E-4,1.374406274E-3
4.797486371E0,1.527118147E-4,-6.108472589E-4,1.374406274E-3
4.799930642E0,-1.068982761E-3,1.832541777E-3,-1.068982761E-3
4.802374184E0,-1.068982761E-3,1.832541777E-3,-3.512371797E-3
4.804818455E0,1.527118147E-4,6.108472589E-4,-3.512371797E-3
4.807263611E0,-1.068982761E-3,6.108472589E-4,1.374406274E-3
4.809707882E0,1.527118147E-4,-6.108472589E-4,2.596100792E-3
4.812151423E0,1.374406274E-3,-6.108472589E-4,1.527118147E-4
4.814595694E0,1.527118147E-4,6.108472589E-4,1.527118147E-4
4.817040850E0,1.374406274E-3,6.108472589E-4,1.374406274E-3
4.819485121E0,1.527118147E-4,6.108472589E-4,2.596100792E-3
4.821928663E0,1.374406274E-3,-6.108472589E-4,-2.290677279E-3
4.824372934E0,1.527118147E-4,-6.108472589E-4,-1.068982761E-3
4.826818090E0,1.527118147E-4,-1.832541777E-3,1.374406274E-3
4.829262361E0,1.527118147E-4,-6.108472589E-4,1.374406274E-3
4.831705903E0,1.527118147E-4,-1.832541777E-3,-1.068982761E-3
4.834150278E0,-2.290677279E-3,6.108472589E-4,1.527118147E-4
4.836595330E0,-1.068982761E-3,-6.108472589E-4,-2.290677279E-3
4.839039600E0,1.527118147E-4,6.108472589E-4,-1.068982761E-3
4.841483142E0,1.374406274E-3,-6.108472589E-4,-1.068982761E-3
4.843927517E0,-1.068982761E-3,6.108472589E-4,-2.290677279E-3
4.846372569E0,-3.512371797E-3,6.108472589E-4,-4.734066315E-3
4.848816840E0,-1.068982761E-3,6.108472589E-4,-2.290677279E-3
4.851260382E0,-1.068982761E-3,1.832541777E-3,-1.068982761E-3
4.853704757E0,1.527118147E-4,-6.108472589E-4,-1.068982761E-3
4.856149861E0,1.374406274E-3,6.108472589E-4,1.374406274E-3
4.858594080E0,1.374406274E-3,-6.108472589E-4,1.374406274E-3
4.861037621E0,-1.068982761E-3,-6.108472589E-4,1.527118147E-4
4.863481996E0,-2.290677279E-3,6.108472589E-4,-2.290677279E-3
4.865927100E0,-1.068982761E-3,6.108472589E-4,-3.512371797E-3
4.868371319E0,-1.068982761E-3,6.108472589E-4,-1.068982761E-3
4.870814861E0,-1.068982761E-3,-6.108472589E-4,-1.068982761E-3
4.873259236E0,1.527118147E-4,-6.108472589E-4,-1.068982761E-3
4.875704340E0,-1.068982761E-3,-6.108472589E-4,-1.068982761E-3
4.878148559E0,1.527118147E-4,6.108472589E-4,1.527118147E-4
4.880592100E0,1.527118147E-4,6.108472589E-4,-1.068982761E-3
4.883036475E0,-1.068982761E-3,-1.832541777E-3,-1.068982761E-3
4.885481580E0,-3.512371797E-3,-6.108472589E-4,1.527118147E-4
4.887925798E0,-1.068982761E-3,-6.108472589E-4,2.596100792E-3
4.890369340E0,-1.068982761E-3,-6.108472589E-4,-3.512371797E-3
4.892813715E0,-2.290677279E-3,6.108472589E-4,-5.955760833E-3
4.895258819E0,-2.290677279E-3,6.108472589E-4,-2.290677279E-3
4.897703090E0,1.527118147E-4,-6.108472589E-4,-3.512371797E-3
4.900146580E0,1.374406274E-3,6.108472589E-4,3.817795310E-3
4.902590955E0,1.374406274E-3,-1.832541777E-3,-1.068982761E-3
4.905036059E0,1.527118147E-4,6.108472589E-4,-3.512371797E-3
4.907480330E0,1.374406274E-3,6.108472589E-4,1.527118147E-4
4.909923819E0,1.374406274E-3,-6.108472589E-4,2.596100792E-3
4.912368194E0,1.374406274E-3,1.832541777E-3,-1.068982761E-3
4.914813298E0,-1.068982761E-3,-6.108472589E-4,-2.290677279E-3
4.917257569E0,1.527118147E-4,-6.108472589E-4,1.527118147E-4
4.919701059E0,2.596100792E-3,-6.108472589E-4,2.596100792E-3
4.922145434E0,1.374406274E-3,-6.108472589E-4,1.374406274E-3
4.924590538E0,-1.068982761E-3,-6.108472589E-4,-2.290677279E-3
4.927034809E0,-1.068982761E-3,1.832541777E-3,-1.068982761E-3
4.929478298E0,1.527118147E-4,-1.832541777E-3,5.039489828E-3
4.931922673E0,-1.068982761E-3,-6.108472589E-4,-1.068982761E-3
4.934367778E0,1.527118147E-4,-3.054236295E-3,-3.512371797E-3
4.936812048E0,1.527118147E-4,6.108472589E-4,-1.068982761E-3
4.939255538E0,1.527118147E-4,-6.108472589E-4,-1.068982761E-3
4.941699913E0,-2.290677279E-3,6.108472589E-4,-2.290677279E-3
4.944145017E0,1.527118147E-4,6.108472589E-4,-1.068982761E-3
4.946589288E0,-1.068982761E-3,3.054236295E-3,-1.068982761E-3
4.949032778E0,-2.290677279E-3,-6.108472589E-4,-1.068982761E-3
4.951477153E0,1.527118147E-4,-6.108472589E-4,-2.290677279E-3
4.953922257E0,-1.068982761E-3,6.108472589E-4,-1.068982761E-3
4.956366528E0,-1.068982761E-3,-1.832541777E-3,-4.734066315E-3
4.958810017E0,1.527118147E-4,-6.108472589E-4,1.374406274E-3
4.961254392E0,1.527118147E-4,6.108472589E-4,-2.290677279E-3
4.963699496E0,1.527118147E-4,-6.108472589E-4,1.374406274E-3
4.966143767E0,1.527118147E-4,-6.108472589E-4,-1.068982761E-3
4.968587257E0,-2.290677279E-3,6.108472589E-4,-4.734066315E-3
4.971031632E0,1.527118147E-4,-1.832541777E-3,1.527118147E-4
