"Time (s)","Gyroscope x (rad/s)","Gyroscope y (rad/s)","Gyroscope z (rad/s)","Absolute (rad/s)"
7.032140900E-2,6.108472589E-4,6.872031372E-4,1.756185899E-3,1.982314666E-3
7.274724200E-2,-6.108472589E-4,6.872031372E-4,-6.872031372E-4,1.147880951E-3
7.517307500E-2,6.108472589E-4,-1.756185899E-3,5.344913807E-4,1.934684553E-3
7.759890900E-2,-1.221694518E-3,7.635590737E-5,-7.635590737E-5,1.226457478E-3
8.002474200E-2,-6.108472589E-4,7.635590737E-5,-1.298050396E-3,1.436627798E-3
8.245057500E-2,-1.221694518E-3,-1.145338640E-3,1.756185899E-3,2.426628732E-3
8.487640900E-2,1.221694518E-3,7.635590737E-5,-2.519744914E-3,2.801335780E-3
8.730224200E-2,6.108472589E-4,-2.367033157E-3,2.977880416E-3,3.852759027E-3
8.972807500E-2,-0.000000000E0,-5.344913807E-4,-3.741439432E-3,3.779424567E-3
9.215396100E-2,-0.000000000E0,7.635590737E-5,1.756185899E-3,1.757845026E-3
9.457979400E-2,-1.832541777E-3,7.635590737E-5,-2.519744914E-3,3.116593336E-3
9.700562700E-2,6.108472589E-4,6.872031372E-4,1.145338640E-3,1.468735213E-3
9.943146100E-2,6.108472589E-4,1.298050396E-3,-7.635590737E-5,1.436627798E-3
1.018572940E-1,1.221694518E-3,-1.756185899E-3,-2.519744914E-3,3.305425969E-3
1.042831270E-1,1.221694518E-3,-5.344913807E-4,1.145338640E-3,1.757845025E-3
1.067089610E-1,-6.108472589E-4,-5.344913807E-4,-6.872031372E-4,1.063514721E-3
1.091347940E-1,-0.000000000E0,-1.756185899E-3,1.756185899E-3,2.483621916E-3
1.115606270E-1,-1.221694518E-3,6.872031372E-4,-6.872031372E-4,1.561100189E-3
1.139864610E-1,6.108472589E-4,-1.756185899E-3,1.756185899E-3,2.557638011E-3
1.164122940E-1,-0.000000000E0,-1.145338640E-3,-2.519744914E-3,2.767835803E-3
1.188381270E-1,-6.108472589E-4,-5.344913807E-4,1.145338640E-3,1.403786312E-3
1.212639610E-1,-0.000000000E0,-5.344913807E-4,-7.635590737E-5,5.399178276E-4
1.236897940E-1,-6.108472589E-4,1.298050396E-3,-6.872031372E-4,1.590697129E-3
1.261156270E-1,-6.108472589E-4,-1.756185899E-3,1.145338640E-3,2.183832384E-3
1.285414610E-1,-0.000000000E0,-5.344913807E-4,-7.635590737E-5,5.399178276E-4
1.309672940E-1,1.221694518E-3,6.872031372E-4,1.756185899E-3,2.246992336E-3
1.333931270E-1,-0.000000000E0,-1.145338640E-3,-6.872031372E-4,1.335682878E-3
1.358189610E-1,6.108472589E-4,-1.756185899E-3,1.145338640E-3,2.183832384E-3
1.382447940E-1,6.108472589E-4,7.635590737E-5,-2.519744914E-3,2.593854088E-3
1.406706790E-1,-0.000000000E0,-5.344913807E-4,5.344913807E-4,7.558849595E-4
1.430965130E-1,1.221694518E-3,-1.145338640E-3,-6.872031372E-4,1.810134317E-3
1.455223460E-1,-6.108472589E-4,-5.344913807E-4,-7.635590737E-5,8.152580170E-4
1.479481790E-1,1.221694518E-3,7.635590737E-5,5.344913807E-4,1.335682880E-3
1.503740130E-1,6.108472589E-4,7.635590737E-5,-6.872031372E-4,9.226119174E-4
1.527998460E-1,-0.000000000E0,6.872031372E-4,5.344913807E-4,8.705912863E-4
1.552256790E-1,-1.832541777E-3,-1.145338640E-3,-6.872031372E-4,2.267654761E-3
1.576515130E-1,-0.000000000E0,-2.367033157E-3,5.344913807E-4,2.426628732E-3
1.600773460E-1,1.221694518E-3,7.635590737E-5,-7.635590737E-5,1.226457478E-3
1.625031790E-1,-6.108472589E-4,-5.344913807E-4,1.145338640E-3,1.403786312E-3
1.649290130E-1,-6.108472589E-4,-5.344913807E-4,-7.635590737E-5,8.152580170E-4
1.673548460E-1,-1.221694518E-3,-1.145338640E-3,5.344913807E-4,1.757845025E-3
1.697806790E-1,-1.221694518E-3,-5.344913807E-4,-6.872031372E-4,1.500155553E-3
1.722065130E-1,-6.108472589E-4,-1.145338640E-3,-7.635590737E-5,1.300294274E-3
1.746323460E-1,-0.000000000E0,7.635590737E-5,1.145338640E-3,1.147881015E-3
1.770581790E-1,-1.832541777E-3,6.872031372E-4,5.344913807E-4,2.028826890E-3
1.794840130E-1,-0.000000000E0,-1.145338640E-3,5.344913807E-4,1.263915201E-3
1.819098460E-1,-0.000000000E0,-5.344913807E-4,-6.872031372E-4,8.705912863E-4
1.843356790E-1,1.832541777E-3,7.635590737E-5,-7.635590737E-5,1.835720516E-3
1.867615130E-1,2.443389036E-3,-5.344913807E-4,-6.872031372E-4,2.593854115E-3
1.891873980E-1,-6.108472589E-4,7.635590737E-5,5.344913807E-4,8.152580170E-4
1.916132320E-1,-0.000000000E0,-1.145338640E-3,5.344913807E-4,1.263915201E-3
1.940390130E-1,-1.221694518E-3,7.635590737E-5,-1.298050396E-3,1.784181199E-3
1.964648980E-1,-0.000000000E0,7.635590737E-5,5.344913807E-4,5.399178276E-4
1.988907320E-1,6.108472589E-4,-5.344913807E-4,5.344913807E-4,9.718520699E-4
2.013165650E-1,6.108472589E-4,-5.344913807E-4,-6.872031372E-4,1.063514721E-3
2.037423980E-1,6.108472589E-4,-2.367033157E-3,-1.908897655E-3,3.101591624E-3
2.061682320E-1,-0.000000000E0,7.635590737E-5,-7.635590737E-5,1.079835598E-4
2.085940650E-1,1.221694518E-3,-5.344913807E-4,-7.635590737E-5,1.335682880E-3
2.110198980E-1,-0.000000000E0,7.635590737E-5,-1.298050396E-3,1.300294219E-3
2.134457320E-1,-0.000000000E0,-5.344913807E-4,5.344913807E-4,7.558849595E-4
2.158715650E-1,-6.108472589E-4,-5.344913807E-4,5.344913807E-4,9.718520699E-4
2.182973980E-1,-6.108472589E-4,7.635590737E-5,-1.298050396E-3,1.436627798E-3
2.207232320E-1,-6.108472589E-4,6.872031372E-4,-6.872031372E-4,1.147880951E-3
2.231490650E-1,6.108472589E-4,7.635590737E-5,5.344913807E-4,8.152580170E-4
2.255748980E-1,-6.108472589E-4,6.872031372E-4,-7.635590737E-5,9.226119174E-4
2.280007320E-1,-1.221694518E-3,6.872031372E-4,-1.908897655E-3,2.368264323E-3
2.304265650E-1,-6.108472589E-4,7.635590737E-5,-7.635590737E-5,6.203183239E-4
2.328523980E-1,6.108472589E-4,7.635590737E-5,1.145338640E-3,1.300294274E-3
2.352782320E-1,6.108472589E-4,6.872031372E-4,-7.635590737E-5,9.226119174E-4
2.377041170E-1,6.108472589E-4,-5.344913807E-4,-7.635590737E-5,8.152580170E-4
2.401299500E-1,6.108472589E-4,1.298050396E-3,-7.635590737E-5,1.436627798E-3
2.425557840E-1,-1.221694518E-3,-5.344913807E-4,-7.635590737E-5,1.335682880E-3
2.449816170E-1,6.108472589E-4,-5.344913807E-4,-7.635590737E-5,8.152580170E-4
2.474074500E-1,-1.832541777E-3,-5.344913807E-4,-6.872031372E-4,2.028826890E-3
2.498332840E-1,-6.108472589E-4,-5.344913807E-4,-7.635590737E-5,8.152580170E-4
2.522591170E-1,-0.000000000E0,-5.344913807E-4,5.344913807E-4,7.558849595E-4
2.546849500E-1,6.108472589E-4,6.872031372E-4,1.145338640E-3,1.468735213E-3
2.571107840E-1,-0.000000000E0,7.635590737E-5,-7.635590737E-5,1.079835598E-4
2.595366170E-1,-0.000000000E0,6.872031372E-4,5.344913807E-4,8.705912863E-4
2.619624500E-1,1.221694518E-3,6.872031372E-4,-7.635590737E-5,1.403786263E-3
2.643882840E-1,6.108472589E-4,-5.344913807E-4,-7.635590737E-5,8.152580170E-4
2.668141170E-1,-0.000000000E0,7.635590737E-5,-6.872031372E-4,6.914321199E-4
2.692399500E-1,-6.108472589E-4,-5.344913807E-4,5.344913807E-4,9.718520699E-4
2.716657840E-1,-6.108472589E-4,-5.344913807E-4,5.344913807E-4,9.718520699E-4
2.740916170E-1,1.221694518E-3,-1.145338640E-3,-7.635590737E-5,1.676355666E-3
2.765174500E-1,-0.000000000E0,7.635590737E-5,-6.872031372E-4,6.914321199E-4
2.789432840E-1,-6.108472589E-4,6.872031372E-4,-7.635590737E-5,9.226119174E-4
2.813691690E-1,-6.108472589E-4,6.872031372E-4,-6.872031372E-4,1.147880951E-3
2.837950020E-1,-1.221694518E-3,7.635590737E-5,-6.872031372E-4,1.403786263E-3
2.862208360E-1,-6.108472589E-4,7.635590737E-5,-7.635590737E-5,6.203183239E-4
2.886466690E-1,-0.000000000E0,-5.344913807E-4,-1.298050396E-3,1.403786261E-3
2.910725020E-1,6.108472589E-4,6.872031372E-4,-6.872031372E-4,1.147880951E-3
2.934983360E-1,-1.221694518E-3,-5.344913807E-4,5.344913807E-4,1.436627846E-3
2.959241690E-1,-6.108472589E-4,7.635590737E-5,5.344913807E-4,8.152580170E-4
2.983500020E-1,6.108472589E-4,-5.344913807E-4,-6.872031372E-4,1.063514721E-3
3.007758360E-1,6.108472589E-4,-1.145338640E-3,-7.635590737E-5,1.300294274E-3
3.032016690E-1,-0.000000000E0,-1.145338640E-3,1.145338640E-3,1.619753438E-3
3.056275020E-1,-6.108472589E-4,7.635590737E-5,-7.635590737E-5,6.203183239E-4
3.080533360E-1,-6.108472589E-4,7.635590737E-5,5.344913807E-4,8.152580170E-4
3.104791690E-1,-1.221694518E-3,7.635590737E-5,-1.298050396E-3,1.784181199E-3
3.129050020E-1,6.108472589E-4,6.872031372E-4,5.344913807E-4,1.063514721E-3
3.153308360E-1,-0.000000000E0,7.635590737E-5,-1.298050396E-3,1.300294219E-3
3.177566690E-1,6.108472589E-4,-1.756185899E-3,5.344913807E-4,1.934684553E-3
3.201825020E-1,6.108472589E-4,-5.344913807E-4,5.344913807E-4,9.718520699E-4
3.226083880E-1,6.108472589E-4,-1.756185899E-3,5.344913807E-4,1.934684553E-3
3.250342210E-1,6.108472589E-4,6.872031372E-4,-7.635590737E-5,9.226119174E-4
3.274600540E-1,-0.000000000E0,1.908897655E-3,5.344913807E-4,1.982314630E-3
3.298858880E-1,-0.000000000E0,7.635590737E-5,-6.872031372E-4,6.914321199E-4
3.323117210E-1,1.221694518E-3,6.872031372E-4,-7.635590737E-5,1.403786263E-3
3.347375540E-1,-0.000000000E0,-1.756185899E-3,-6.872031372E-4,1.885851813E-3
3.371633880E-1,-6.108472589E-4,-5.344913807E-4,-6.872031372E-4,1.063514721E-3
3.395892210E-1,-0.000000000E0,7.635590737E-5,-7.635590737E-5,1.079835598E-4
3.420150540E-1,-0.000000000E0,-5.344913807E-4,-7.635590737E-5,5.399178276E-4
3.444408880E-1,1.832541777E-3,7.635590737E-5,1.145338640E-3,2.162369115E-3
3.468667210E-1,6.108472589E-4,-1.145338640E-3,-7.635590737E-5,1.300294274E-3
3.492925540E-1,6.108472589E-4,6.872031372E-4,-6.872031372E-4,1.147880951E-3
3.517183880E-1,-0.000000000E0,1.298050396E-3,-7.635590737E-5,1.300294219E-3
3.541442210E-1,1.832541777E-3,7.635590737E-5,-6.872031372E-4,1.958644363E-3
3.565701070E-1,-1.221694518E-3,-1.145338640E-3,1.145338640E-3,2.028826926E-3
3.589958880E-1,-0.000000000E0,6.872031372E-4,-7.635590737E-5,6.914321199E-4
3.614217730E-1,-0.000000000E0,6.872031372E-4,-7.635590737E-5,6.914321199E-4
3.638476070E-1,-6.108472589E-4,6.872031372E-4,-7.635590737E-5,9.226119174E-4
3.662734400E-1,6.108472589E-4,7.635590737E-5,-1.298050396E-3,1.436627798E-3
3.686992730E-1,-1.221694518E-3,7.635590737E-5,-6.872031372E-4,1.403786263E-3
3.711251070E-1,-0.000000000E0,-1.145338640E-3,5.344913807E-4,1.263915201E-3
3.735509400E-1,1.221694518E-3,7.635590737E-5,-1.298050396E-3,1.784181199E-3
3.759767730E-1,-6.108472589E-4,6.872031372E-4,-7.635590737E-5,9.226119174E-4
3.784026070E-1,6.108472589E-4,-5.344913807E-4,-1.298050396E-3,1.530931168E-3
3.808284400E-1,1.221694518E-3,7.635590737E-5,5.344913807E-4,1.335682880E-3
3.832542730E-1,-1.221694518E-3,7.635590737E-5,1.145338640E-3,1.676355666E-3
3.856801070E-1,-1.832541777E-3,-1.145338640E-3,5.344913807E-4,2.226138136E-3
3.881059400E-1,-6.108472589E-4,-1.145338640E-3,5.344913807E-4,1.403786312E-3
3.905317730E-1,-1.221694518E-3,-5.344913807E-4,5.344913807E-4,1.436627846E-3
3.929576070E-1,6.108472589E-4,7.635590737E-5,-6.872031372E-4,9.226119174E-4
3.953834920E-1,-0.000000000E0,-5.344913807E-4,5.344913807E-4,7.558849595E-4
3.978093250E-1,6.108472589E-4,7.635590737E-5,5.344913807E-4,8.152580170E-4
4.002351590E-1,-6.108472589E-4,-5.344913807E-4,5.344913807E-4,9.718520699E-4
4.026609920E-1,-6.108472589E-4,-5.344913807E-4,-7.635590737E-5,8.152580170E-4
4.050868250E-1,-0.000000000E0,-1.145338640E-3,-7.635590737E-5,1.147881015E-3
4.075126590E-1,6.108472589E-4,-1.756185899E-3,5.344913807E-4,1.934684553E-3
4.099384920E-1,-6.108472589E-4,7.635590737E-5,-7.635590737E-5,6.203183239E-4
4.123643250E-1,-0.000000000E0,-5.344913807E-4,5.344913807E-4,7.558849595E-4
4.147901590E-1,-6.108472589E-4,-1.756185899E-3,1.145338640E-3,2.183832384E-3
4.172159920E-1,1.221694518E-3,-5.344913807E-4,-6.872031372E-4,1.500155553E-3
4.196418250E-1,6.108472589E-4,6.872031372E-4,-6.872031372E-4,1.147880951E-3
4.220676590E-1,-6.108472589E-4,7.635590737E-5,-7.635590737E-5,6.203183239E-4
4.244934920E-1,-1.221694518E-3,-5.344913807E-4,-6.872031372E-4,1.500155553E-3
4.269193250E-1,-0.000000000E0,-5.344913807E-4,-2.519744914E-3,2.575809672E-3
4.293451590E-1,6.108472589E-4,-1.145338640E-3,-7.635590737E-5,1.300294274E-3
4.317710440E-1,-0.000000000E0,-1.145338640E-3,1.145338640E-3,1.619753438E-3
4.341968770E-1,-1.221694518E-3,7.635590737E-5,5.344913807E-4,1.335682880E-3
4.366227110E-1,-6.108472589E-4,6.872031372E-4,-7.635590737E-5,9.226119174E-4
4.390485440E-1,6.108472589E-4,-5.344913807E-4,-1.298050396E-3,1.530931168E-3
4.414743770E-1,-0.000000000E0,-2.367033157E-3,-6.872031372E-4,2.464770602E-3
4.439002110E-1,-6.108472589E-4,-5.344913807E-4,-7.635590737E-5,8.152580170E-4
4.463260440E-1,-6.108472589E-4,-1.145338640E-3,-7.635590737E-5,1.300294274E-3
4.487518770E-1,-0.000000000E0,-5.344913807E-4,-6.872031372E-4,8.705912863E-4
4.511777110E-1,-6.108472589E-4,6.872031372E-4,-1.298050396E-3,1.590697129E-3
4.536035440E-1,-6.108472589E-4,7.635590737E-5,-7.635590737E-5,6.203183239E-4
4.560293770E-1,-0.000000000E0,6.872031372E-4,-7.635590737E-5,6.914321199E-4
4.584552110E-1,-0.000000000E0,-2.367033157E-3,-1.298050396E-3,2.699589006E-3
4.608810440E-1,-0.000000000E0,7.635590737E-5,-7.635590737E-5,1.079835598E-4
4.633068770E-1,-0.000000000E0,7.635590737E-5,5.344913807E-4,5.399178276E-4
4.657327630E-1,6.108472589E-4,7.635590737E-5,-1.908897655E-3,2.005705576E-3
4.681585440E-1,-0.000000000E0,6.872031372E-4,-7.635590737E-5,6.914321199E-4
4.705844290E-1,1.221694518E-3,-5.344913807E-4,-1.298050396E-3,1.860954960E-3
4.730102630E-1,1.221694518E-3,7.635590737E-5,1.145338640E-3,1.676355666E-3
4.754360960E-1,-0.000000000E0,6.872031372E-4,-7.635590737E-5,6.914321199E-4
4.778619290E-1,-0.000000000E0,7.635590737E-5,-7.635590737E-5,1.079835598E-4
4.802877630E-1,-6.108472589E-4,7.635590737E-5,5.344913807E-4,8.152580170E-4
4.827135960E-1,1.832541777E-3,-5.344913807E-4,-1.908897655E-3,2.699588979E-3
4.851394290E-1,6.108472589E-4,-1.145338640E-3,-1.908897655E-3,2.308424838E-3
4.875652630E-1,-0.000000000E0,6.872031372E-4,5.344913807E-4,8.705912863E-4
4.899910960E-1,-6.108472589E-4,7.635590737E-5,-1.298050396E-3,1.436627798E-3
4.924169290E-1,6.108472589E-4,7.635590737E-5,-7.635590737E-5,6.203183239E-4
4.948428150E-1,-0.000000000E0,-5.344913807E-4,-7.635590737E-5,5.399178276E-4
4.972685960E-1,6.108472589E-4,-5.344913807E-4,5.344913807E-4,9.718520699E-4
4.996944820E-1,-0.000000000E0,-5.344913807E-4,5.344913807E-4,7.558849595E-4
5.021203150E-1,1.221694518E-3,7.635590737E-5,-6.872031372E-4,1.403786263E-3
5.045461480E-1,1.832541777E-3,-5.344913807E-4,5.344913807E-4,1.982314666E-3
5.069719820E-1,-6.108472589E-4,-5.344913807E-4,5.344913807E-4,9.718520699E-4
5.093978150E-1,6.108472589E-4,-1.145338640E-3,1.145338640E-3,1.731108192E-3
5.118236480E-1,-6.108472589E-4,7.635590737E-5,-7.635590737E-5,6.203183239E-4
5.142494820E-1,1.221694518E-3,7.635590737E-5,-6.872031372E-4,1.403786263E-3
5.166753150E-1,1.221694518E-3,1.298050396E-3,-6.872031372E-4,1.910424162E-3
5.191011480E-1,-0.000000000E0,7.635590737E-5,-7.635590737E-5,1.079835598E-4
5.215269820E-1,-6.108472589E-4,7.635590737E-5,5.344913807E-4,8.152580170E-4
5.239528150E-1,-1.832541777E-3,7.635590737E-5,5.344913807E-4,1.910424200E-3
5.263786480E-1,-6.108472589E-4,6.872031372E-4,1.756185899E-3,1.982314666E-3
5.288044820E-1,-1.221694518E-3,7.635590737E-5,5.344913807E-4,1.335682880E-3
5.312303670E-1,6.108472589E-4,7.635590737E-5,5.344913807E-4,8.152580170E-4
5.336562000E-1,1.221694518E-3,1.298050396E-3,-7.635590737E-5,1.784181199E-3
5.360820340E-1,1.221694518E-3,2.519744914E-3,-7.635590737E-5,2.801335780E-3
5.385078670E-1,-0.000000000E0,-5.344913807E-4,5.344913807E-4,7.558849595E-4
5.409337000E-1,-0.000000000E0,-1.145338640E-3,5.344913807E-4,1.263915201E-3
5.433595340E-1,6.108472589E-4,-5.344913807E-4,-7.635590737E-5,8.152580170E-4
5.457853670E-1,-0.000000000E0,7.635590737E-5,-7.635590737E-5,1.079835598E-4
5.482112000E-1,6.108472589E-4,1.298050396E-3,-7.635590737E-5,1.436627798E-3
5.506370340E-1,6.108472589E-4,1.908897655E-3,-7.635590737E-5,2.005705576E-3
5.530628670E-1,-0.000000000E0,6.872031372E-4,-7.635590737E-5,6.914321199E-4
5.554887000E-1,6.108472589E-4,-1.145338640E-3,-1.298050396E-3,1.835720514E-3
5.579145340E-1,-6.108472589E-4,6.872031372E-4,5.344913807E-4,1.063514721E-3
5.603404190E-1,-6.108472589E-4,-5.344913807E-4,-7.635590737E-5,8.152580170E-4
5.627662000E-1,6.108472589E-4,7.635590737E-5,-1.298050396E-3,1.436627798E-3
5.651920860E-1,-0.000000000E0,-1.145338640E-3,-7.635590737E-5,1.147881015E-3
5.676179190E-1,1.221694518E-3,-1.145338640E-3,-7.635590737E-5,1.676355666E-3
5.700437520E-1,1.221694518E-3,-5.344913807E-4,-1.298050396E-3,1.860954960E-3
5.724695860E-1,-0.000000000E0,6.872031372E-4,-7.635590737E-5,6.914321199E-4
5.748954190E-1,-6.108472589E-4,7.635590737E-5,-7.635590737E-5,6.203183239E-4
5.773212520E-1,6.108472589E-4,-1.145338640E-3,-7.635590737E-5,1.300294274E-3
5.797470860E-1,-0.000000000E0,-5.344913807E-4,-6.872031372E-4,8.705912863E-4
5.821729190E-1,6.108472589E-4,-5.344913807E-4,-1.298050396E-3,1.530931168E-3
5.845987520E-1,6.108472589E-4,-5.344913807E-4,1.145338640E-3,1.403786312E-3
5.870245860E-1,-0.000000000E0,-5.344913807E-4,-1.298050396E-3,1.403786261E-3
5.894504190E-1,6.108472589E-4,-1.145338640E-3,-1.298050396E-3,1.835720514E-3
5.918762520E-1,-0.000000000E0,6.872031372E-4,-7.635590737E-5,6.914321199E-4
5.943021380E-1,-0.000000000E0,6.872031372E-4,5.344913807E-4,8.705912863E-4
5.967279710E-1,6.108472589E-4,-1.145338640E-3,5.344913807E-4,1.403786312E-3
5.991538040E-1,6.108472589E-4,7.635590737E-5,-7.635590737E-5,6.203183239E-4
6.015796380E-1,-0.000000000E0,1.298050396E-3,5.344913807E-4,1.403786261E-3
6.040054710E-1,-2.443389036E-3,7.635590737E-5,-7.635590737E-5,2.445773994E-3
6.064313040E-1,-0.000000000E0,-5.344913807E-4,-7.635590737E-5,5.399178276E-4
6.088571380E-1,-0.000000000E0,1.298050396E-3,-7.635590737E-5,1.300294219E-3
6.112829710E-1,-6.108472589E-4,6.872031372E-4,5.344913807E-4,1.063514721E-3
6.137088040E-1,6.108472589E-4,7.635590737E-5,-6.872031372E-4,9.226119174E-4
6.161346380E-1,-6.108472589E-4,-1.145338640E-3,5.344913807E-4,1.403786312E-3
6.185604710E-1,-0.000000000E0,-5.344913807E-4,-1.298050396E-3,1.403786261E-3
6.209863570E-1,6.108472589E-4,7.635590737E-5,-6.872031372E-4,9.226119174E-4
6.234121380E-1,6.108472589E-4,7.635590737E-5,-6.872031372E-4,9.226119174E-4
6.258380230E-1,-0.000000000E0,6.872031372E-4,5.344913807E-4,8.705912863E-4
6.282638570E-1,6.108472589E-4,-5.344913807E-4,-6.872031372E-4,1.063514721E-3
6.306896900E-1,-0.000000000E0,-1.145338640E-3,-7.635590737E-5,1.147881015E-3
6.331155230E-1,-0.000000000E0,6.872031372E-4,-1.298050396E-3,1.468735164E-3
6.355413570E-1,-6.108472589E-4,-5.344913807E-4,-1.908897655E-3,2.074296427E-3
6.379671900E-1,6.108472589E-4,7.635590737E-5,-6.872031372E-4,9.226119174E-4
6.403930230E-1,-1.221694518E-3,6.872031372E-4,-6.872031372E-4,1.561100189E-3
6.428188570E-1,-6.108472589E-4,7.635590737E-5,1.145338640E-3,1.300294274E-3
6.452446900E-1,-1.221694518E-3,6.872031372E-4,-7.635590737E-5,1.403786263E-3
6.476705230E-1,-6.108472589E-4,6.872031372E-4,-7.635590737E-5,9.226119174E-4
6.500963570E-1,6.108472589E-4,1.298050396E-3,1.145338640E-3,1.835720514E-3
6.525222420E-1,6.108472589E-4,7.635590737E-5,1.145338640E-3,1.300294274E-3
6.549480750E-1,6.108472589E-4,-5.344913807E-4,5.344913807E-4,9.718520699E-4
6.573739090E-1,-6.108472589E-4,7.635590737E-5,-7.635590737E-5,6.203183239E-4
6.597997420E-1,1.221694518E-3,-5.344913807E-4,-7.635590737E-5,1.335682880E-3
6.622255750E-1,-0.000000000E0,-1.145338640E-3,-7.635590737E-5,1.147881015E-3
6.646514090E-1,-1.832541777E-3,1.298050396E-3,-6.872031372E-4,2.348487246E-3
6.670772420E-1,-1.221694518E-3,1.298050396E-3,-7.635590737E-5,1.784181199E-3
6.695030750E-1,-0.000000000E0,6.872031372E-4,5.344913807E-4,8.705912863E-4
6.719289090E-1,-0.000000000E0,-1.145338640E-3,1.145338640E-3,1.619753438E-3
6.743547420E-1,1.221694518E-3,7.635590737E-5,-6.872031372E-4,1.403786263E-3
6.767805750E-1,1.221694518E-3,7.635590737E-5,1.145338640E-3,1.676355666E-3
6.792064090E-1,6.108472589E-4,7.635590737E-5,-7.635590737E-5,6.203183239E-4
6.816322940E-1,1.221694518E-3,6.872031372E-4,5.344913807E-4,1.500155553E-3
6.840581270E-1,-0.000000000E0,6.872031372E-4,-7.635590737E-5,6.914321199E-4
6.864839610E-1,6.108472589E-4,7.635590737E-5,-7.635590737E-5,6.203183239E-4
6.889097940E-1,6.108472589E-4,7.635590737E-5,5.344913807E-4,8.152580170E-4
6.913356270E-1,6.108472589E-4,-5.344913807E-4,1.145338640E-3,1.403786312E-3
6.937614610E-1,-0.000000000E0,6.872031372E-4,-6.872031372E-4,9.718519967E-4
6.961872940E-1,-0.000000000E0,-1.756185899E-3,-6.872031372E-4,1.885851813E-3
6.986131270E-1,-1.221694518E-3,1.298050396E-3,-7.635590737E-5,1.784181199E-3
7.010389610E-1,-6.108472589E-4,7.635590737E-5,5.344913807E-4,8.152580170E-4
7.034647940E-1,6.108472589E-4,-5.344913807E-4,5.344913807E-4,9.718520699E-4
7.058906270E-1,-0.000000000E0,-1.145338640E-3,1.145338640E-3,1.619753438E-3
7.083164610E-1,-0.000000000E0,7.635590737E-5,5.344913807E-4,5.399178276E-4
7.107423460E-1,-0.000000000E0,7.635590737E-5,1.756185899E-3,1.757845026E-3
7.131681790E-1,-0.000000000E0,7.635590737E-5,-7.635590737E-5,1.079835598E-4
7.155940130E-1,-6.108472589E-4,-5.344913807E-4,-6.872031372E-4,1.063514721E-3
7.180198460E-1,-6.108472589E-4,7.635590737E-5,-6.872031372E-4,9.226119174E-4
7.204456790E-1,-6.108472589E-4,7.635590737E-5,5.344913807E-4,8.152580170E-4
7.228715130E-1,-1.221694518E-3,6.872031372E-4,1.145338640E-3,1.810134317E-3
7.252973460E-1,-0.000000000E0,7.635590737E-5,5.344913807E-4,5.399178276E-4
7.277231790E-1,-0.000000000E0,7.635590737E-5,1.145338640E-3,1.147881015E-3
7.301490130E-1,1.221694518E-3,7.635590737E-5,5.344913807E-4,1.335682880E-3
7.325748460E-1,-6.108472589E-4,7.635590737E-5,5.344913807E-4,8.152580170E-4
7.350006790E-1,-6.108472589E-4,7.635590737E-5,-6.872031372E-4,9.226119174E-4
7.374265130E-1,-6.108472589E-4,-1.145338640E-3,5.344913807E-4,1.403786312E-3
7.398523980E-1,-0.000000000E0,7.635590737E-5,5.344913807E-4,5.399178276E-4
7.422782320E-1,-0.000000000E0,6.872031372E-4,-6.872031372E-4,9.718519967E-4
7.447040650E-1,-1.221694518E-3,1.298050396E-3,-6.872031372E-4,1.910424162E-3
7.471298980E-1,-0.000000000E0,7.635590737E-5,5.344913807E-4,5.399178276E-4
7.495557320E-1,-1.221694518E-3,7.635590737E-5,-7.635590737E-5,1.226457478E-3
7.519815650E-1,-6.108472589E-4,7.635590737E-5,-7.635590737E-5,6.203183239E-4
7.544073980E-1,-1.221694518E-3,-5.344913807E-4,1.756185899E-3,2.205086720E-3
7.568332320E-1,-1.832541777E-3,6.872031372E-4,-7.635590737E-5,1.958644363E-3
7.592590650E-1,-0.000000000E0,1.298050396E-3,1.145338640E-3,1.731108151E-3
7.616848980E-1,6.108472589E-4,6.872031372E-4,5.344913807E-4,1.063514721E-3
7.641107320E-1,-0.000000000E0,-5.344913807E-4,1.145338640E-3,1.263915201E-3
7.665366170E-1,-1.221694518E-3,1.908897655E-3,-6.872031372E-4,2.368264323E-3
7.689624500E-1,-0.000000000E0,-5.344913807E-4,-1.298050396E-3,1.403786261E-3
7.713882840E-1,-0.000000000E0,1.298050396E-3,1.756185899E-3,2.183832352E-3
7.738141170E-1,-1.221694518E-3,6.872031372E-4,-7.635590737E-5,1.403786263E-3
7.762399500E-1,-6.108472589E-4,7.635590737E-5,1.756185899E-3,1.860954999E-3
7.786657840E-1,-1.221694518E-3,7.635590737E-5,-6.872031372E-4,1.403786263E-3
7.810916170E-1,6.108472589E-4,1.298050396E-3,-7.635590737E-5,1.436627798E-3
7.835174500E-1,-1.221694518E-3,-5.344913807E-4,1.756185899E-3,2.205086720E-3
7.859432840E-1,-6.108472589E-4,7.635590737E-5,-1.298050396E-3,1.436627798E-3
7.883691170E-1,6.108472589E-4,7.635590737E-5,-1.908897655E-3,2.005705576E-3
7.907950020E-1,1.221694518E-3,-1.145338640E-3,-1.908897655E-3,2.539336203E-3
7.932207840E-1,-6.108472589E-4,7.635590737E-5,-1.908897655E-3,2.005705576E-3
7.956466170E-1,-6.108472589E-4,7.635590737E-5,-1.298050396E-3,1.436627798E-3
7.980725020E-1,-6.108472589E-4,-5.344913807E-4,-7.635590737E-5,8.152580170E-4
8.004983360E-1,-0.000000000E0,-5.344913807E-4,-6.872031372E-4,8.705912863E-4
8.029241690E-1,6.108472589E-4,-5.344913807E-4,-7.635590737E-5,8.152580170E-4
8.053500020E-1,1.832541777E-3,7.635590737E-5,-1.908897655E-3,2.647249487E-3
8.077758360E-1,6.108472589E-4,-1.145338640E-3,-6.872031372E-4,1.468735213E-3
8.102016690E-1,-6.108472589E-4,-5.344913807E-4,1.145338640E-3,1.403786312E-3
8.126275020E-1,-0.000000000E0,7.635590737E-5,5.344913807E-4,5.399178276E-4
8.150533360E-1,6.108472589E-4,7.635590737E-5,-7.635590737E-5,6.203183239E-4
8.174791690E-1,-0.000000000E0,7.635590737E-5,-7.635590737E-5,1.079835598E-4
8.199050020E-1,-0.000000000E0,7.635590737E-5,-7.635590737E-5,1.079835598E-4
8.223308360E-1,-6.108472589E-4,-5.344913807E-4,5.344913807E-4,9.718520699E-4
8.247567210E-1,6.108472589E-4,-5.344913807E-4,-7.635590737E-5,8.152580170E-4
8.271825540E-1,6.108472589E-4,7.635590737E-5,1.145338640E-3,1.300294274E-3
8.296083880E-1,6.108472589E-4,7.635590737E-5,-7.635590737E-5,6.203183239E-4
8.320342210E-1,-1.221694518E-3,-1.145338640E-3,1.145338640E-3,2.028826926E-3
8.344600540E-1,-6.108472589E-4,7.635590737E-5,1.145338640E-3,1.300294274E-3
8.368858880E-1,-0.000000000E0,-5.344913807E-4,5.344913807E-4,7.558849595E-4
8.393117210E-1,-0.000000000E0,7.635590737E-5,-1.298050396E-3,1.300294219E-3
8.417375540E-1,-1.221694518E-3,6.872031372E-4,1.145338640E-3,1.810134317E-3
8.441633880E-1,-6.108472589E-4,-5.344913807E-4,5.344913807E-4,9.718520699E-4
8.465892210E-1,6.108472589E-4,-5.344913807E-4,-7.635590737E-5,8.152580170E-4
8.490151070E-1,6.108472589E-4,-5.344913807E-4,-7.635590737E-5,8.152580170E-4
8.514409400E-1,-0.000000000E0,7.635590737E-5,-7.635590737E-5,1.079835598E-4
8.538667730E-1,-6.108472589E-4,6.872031372E-4,-7.635590737E-5,9.226119174E-4
8.562926070E-1,6.108472589E-4,-5.344913807E-4,-1.908897655E-3,2.074296427E-3
8.587184400E-1,1.221694518E-3,6.872031372E-4,5.344913807E-4,1.500155553E-3
8.611442730E-1,1.221694518E-3,1.908897655E-3,1.756185899E-3,2.867161778E-3
8.635701070E-1,-0.000000000E0,-1.145338640E-3,-6.872031372E-4,1.335682878E-3
8.659959400E-1,-0.000000000E0,7.635590737E-5,-6.872031372E-4,6.914321199E-4
8.684217730E-1,-0.000000000E0,-5.344913807E-4,-6.872031372E-4,8.705912863E-4
8.708476070E-1,-1.221694518E-3,-1.145338640E-3,5.344913807E-4,1.757845025E-3
8.732734920E-1,6.108472589E-4,-5.344913807E-4,5.344913807E-4,9.718520699E-4
8.756993250E-1,1.221694518E-3,-1.145338640E-3,-7.635590737E-5,1.676355666E-3
8.781251590E-1,-0.000000000E0,-1.145338640E-3,-6.872031372E-4,1.335682878E-3
8.805509920E-1,-6.108472589E-4,-5.344913807E-4,-6.872031372E-4,1.063514721E-3
8.829768250E-1,-1.221694518E-3,-5.344913807E-4,-6.872031372E-4,1.500155553E-3
8.854026590E-1,6.108472589E-4,7.635590737E-5,-6.872031372E-4,9.226119174E-4
8.878284920E-1,1.221694518E-3,1.298050396E-3,-6.872031372E-4,1.910424162E-3
8.902543250E-1,-6.108472589E-4,7.635590737E-5,1.145338640E-3,1.300294274E-3
8.926801590E-1,-0.000000000E0,-1.756185899E-3,-7.635590737E-5,1.757845026E-3
8.951059920E-1,6.108472589E-4,-1.145338640E-3,-6.872031372E-4,1.468735213E-3
8.975318250E-1,-0.000000000E0,-1.756185899E-3,5.344913807E-4,1.835720552E-3
8.999576590E-1,-1.832541777E-3,1.298050396E-3,-6.872031372E-4,2.348487246E-3
9.023834920E-1,-1.221694518E-3,7.635590737E-5,-1.298050396E-3,1.784181199E-3
9.048093770E-1,-0.000000000E0,-5.344913807E-4,5.344913807E-4,7.558849595E-4
9.072352110E-1,6.108472589E-4,7.635590737E-5,-6.872031372E-4,9.226119174E-4
9.096610440E-1,-0.000000000E0,-1.145338640E-3,-7.635590737E-5,1.147881015E-3
9.120868770E-1,-1.221694518E-3,-1.145338640E-3,-7.635590737E-5,1.676355666E-3
9.145127110E-1,-0.000000000E0,6.872031372E-4,5.344913807E-4,8.705912863E-4
9.169385440E-1,1.832541777E-3,-5.344913807E-4,-7.635590737E-5,1.910424200E-3
9.193643770E-1,-6.108472589E-4,1.908897655E-3,5.344913807E-4,2.074296427E-3
9.217902110E-1,-1.832541777E-3,6.872031372E-4,-6.872031372E-4,2.074296427E-3
9.242160440E-1,6.108472589E-4,6.872031372E-4,-7.635590737E-5,9.226119174E-4
9.266418770E-1,-1.221694518E-3,-5.344913807E-4,-7.635590737E-5,1.335682880E-3
9.290677630E-1,-6.108472589E-4,7.635590737E-5,-6.872031372E-4,9.226119174E-4
9.314935960E-1,-6.108472589E-4,-5.344913807E-4,-1.298050396E-3,1.530931168E-3
9.339194290E-1,6.108472589E-4,-5.344913807E-4,-1.298050396E-3,1.530931168E-3
9.363452630E-1,-0.000000000E0,7.635590737E-5,5.344913807E-4,5.399178276E-4
9.387710960E-1,-0.000000000E0,6.872031372E-4,5.344913807E-4,8.705912863E-4
9.411969290E-1,-1.221694518E-3,-5.344913807E-4,-6.872031372E-4,1.500155553E-3
9.436227630E-1,-1.832541777E-3,-1.145338640E-3,-1.298050396E-3,2.520901584E-3
9.460485960E-1,-0.000000000E0,-1.756185899E-3,-6.872031372E-4,1.885851813E-3
9.484744290E-1,-0.000000000E0,6.872031372E-4,5.344913807E-4,8.705912863E-4
9.509002630E-1,-0.000000000E0,6.872031372E-4,-6.872031372E-4,9.718519967E-4
9.533260960E-1,-0.000000000E0,7.635590737E-5,-7.635590737E-5,1.079835598E-4
9.557519820E-1,-6.108472589E-4,-5.344913807E-4,-1.298050396E-3,1.530931168E-3
9.581778150E-1,-0.000000000E0,7.635590737E-5,-7.635590737E-5,1.079835598E-4
9.606036480E-1,1.221694518E-3,-5.344913807E-4,-7.635590737E-5,1.335682880E-3
9.630294820E-1,6.108472589E-4,7.635590737E-5,-7.635590737E-5,6.203183239E-4
9.654553150E-1,-6.108472589E-4,-5.344913807E-4,5.344913807E-4,9.718520699E-4
9.678811480E-1,-6.108472589E-4,7.635590737E-5,-6.872031372E-4,9.226119174E-4
9.703069820E-1,-0.000000000E0,6.872031372E-4,-7.635590737E-5,6.914321199E-4
9.727328150E-1,-0.000000000E0,-5.344913807E-4,-1.298050396E-3,1.403786261E-3
9.751586480E-1,-6.108472589E-4,7.635590737E-5,-7.635590737E-5,6.203183239E-4
9.775844820E-1,-6.108472589E-4,-1.145338640E-3,5.344913807E-4,1.403786312E-3
9.800103150E-1,-6.108472589E-4,6.872031372E-4,-7.635590737E-5,9.226119174E-4
9.824362000E-1,1.221694518E-3,1.298050396E-3,-6.872031372E-4,1.910424162E-3
9.848620340E-1,-0.000000000E0,-5.344913807E-4,-7.635590737E-5,5.399178276E-4
9.872878670E-1,-6.108472589E-4,-5.344913807E-4,-7.635590737E-5,8.152580170E-4
9.897137000E-1,-0.000000000E0,6.872031372E-4,-6.872031372E-4,9.718519967E-4
9.921395340E-1,1.221694518E-3,6.872031372E-4,5.344913807E-4,1.500155553E-3
9.945653670E-1,6.108472589E-4,7.635590737E-5,-7.635590737E-5,6.203183239E-4
9.969912000E-1,-6.108472589E-4,6.872031372E-4,5.344913807E-4,1.063514721E-3
9.994170340E-1,6.108472589E-4,-5.344913807E-4,1.756185899E-3,1.934684553E-3
1.001842867E0,-0.000000000E0,6.872031372E-4,-7.635590737E-5,6.914321199E-4
1.004268700E0,-6.108472589E-4,-5.344913807E-4,-1.298050396E-3,1.530931168E-3
1.006694586E0,-0.000000000E0,6.872031372E-4,-6.872031372E-4,9.718519967E-4
1.009120419E0,6.108472589E-4,-5.344913807E-4,-7.635590737E-5,8.152580170E-4
1.011546252E0,6.108472589E-4,7.635590737E-5,-1.298050396E-3,1.436627798E-3
1.013972086E0,1.221694518E-3,6.872031372E-4,5.344913807E-4,1.500155553E-3
1.016397919E0,-0.000000000E0,6.872031372E-4,-7.635590737E-5,6.914321199E-4
1.018823752E0,-0.000000000E0,6.872031372E-4,-1.908897655E-3,2.028826855E-3
1.021249586E0,6.108472589E-4,7.635590737E-5,5.344913807E-4,8.152580170E-4
1.023675419E0,-0.000000000E0,7.635590737E-5,-7.635590737E-5,1.079835598E-4
1.026101252E0,1.221694518E-3,6.872031372E-4,-6.872031372E-4,1.561100189E-3
1.028527086E0,-0.000000000E0,7.635590737E-5,-7.635590737E-5,1.079835598E-4
1.030952971E0,-6.108472589E-4,-5.344913807E-4,-7.635590737E-5,8.152580170E-4
1.033378804E0,-6.108472589E-4,6.872031372E-4,-6.872031372E-4,1.147880951E-3
1.035804638E0,-0.000000000E0,1.298050396E-3,-6.872031372E-4,1.468735164E-3
1.038230471E0,-6.108472589E-4,7.635590737E-5,-7.635590737E-5,6.203183239E-4
1.040656304E0,-6.108472589E-4,-5.344913807E-4,-6.872031372E-4,1.063514721E-3
1.043082138E0,6.108472589E-4,7.635590737E-5,-6.872031372E-4,9.226119174E-4
1.045507971E0,-0.000000000E0,-5.344913807E-4,5.344913807E-4,7.558849595E-4
1.047933804E0,-6.108472589E-4,6.872031372E-4,-6.872031372E-4,1.147880951E-3
1.050359638E0,6.108472589E-4,7.635590737E-5,5.344913807E-4,8.152580170E-4
1.052785471E0,6.108472589E-4,7.635590737E-5,5.344913807E-4,8.152580170E-4
1.055211304E0,6.108472589E-4,1.908897655E-3,5.344913807E-4,2.074296427E-3
1.057637190E0,-1.221694518E-3,1.298050396E-3,1.145338640E-3,2.118790439E-3
1.060063023E0,-6.108472589E-4,-1.145338640E-3,-7.635590737E-5,1.300294274E-3
1.062488857E0,-0.000000000E0,1.298050396E-3,1.145338640E-3,1.731108151E-3
1.064914690E0,-6.108472589E-4,1.298050396E-3,-7.635590737E-5,1.436627798E-3
1.067340523E0,-6.108472589E-4,7.635590737E-5,5.344913807E-4,8.152580170E-4
1.069766357E0,-0.000000000E0,7.635590737E-5,-7.635590737E-5,1.079835598E-4
1.072192190E0,6.108472589E-4,6.872031372E-4,-6.872031372E-4,1.147880951E-3
1.074618023E0,-6.108472589E-4,-5.344913807E-4,-6.872031372E-4,1.063514721E-3
1.077043857E0,-6.108472589E-4,-2.367033157E-3,-7.635590737E-5,2.445774022E-3
1.079469690E0,-1.221694518E-3,-5.344913807E-4,5.344913807E-4,1.436627846E-3
1.081895575E0,-0.000000000E0,7.635590737E-5,-1.908897655E-3,1.910424163E-3
1.084321409E0,-6.108472589E-4,-5.344913807E-4,-6.872031372E-4,1.063514721E-3
1.086747242E0,-0.000000000E0,7.635590737E-5,-7.635590737E-5,1.079835598E-4
1.089173075E0,6.108472589E-4,6.872031372E-4,-6.872031372E-4,1.147880951E-3
1.091598909E0,-0.000000000E0,6.872031372E-4,-7.635590737E-5,6.914321199E-4
1.094024742E0,-6.108472589E-4,7.635590737E-5,-1.298050396E-3,1.436627798E-3
1.096450575E0,-1.832541777E-3,-5.344913807E-4,5.344913807E-4,1.982314666E-3
1.098876409E0,-0.000000000E0,6.872031372E-4,-6.872031372E-4,9.718519967E-4
1.101302242E0,1.221694518E-3,-5.344913807E-4,5.344913807E-4,1.436627846E-3
1.103728075E0,-0.000000000E0,6.872031372E-4,-6.872031372E-4,9.718519967E-4
1.106153909E0,-0.000000000E0,-5.344913807E-4,-7.635590737E-5,5.399178276E-4
1.108579794E0,-0.000000000E0,-1.145338640E-3,-1.298050396E-3,1.731108151E-3
1.111005627E0,6.108472589E-4,7.635590737E-5,5.344913807E-4,8.152580170E-4
1.113431461E0,-6.108472589E-4,-5.344913807E-4,-7.635590737E-5,8.152580170E-4
1.115857294E0,-6.108472589E-4,-5.344913807E-4,-7.635590737E-5,8.152580170E-4
1.118283127E0,-1.221694518E-3,1.908897655E-3,-7.635590737E-5,2.267654731E-3
1.120708961E0,-0.000000000E0,-5.344913807E-4,-7.635590737E-5,5.399178276E-4
1.123134794E0,1.221694518E-3,-1.756185899E-3,5.344913807E-4,2.205086720E-3
1.125560627E0,1.832541777E-3,7.635590737E-5,-1.908897655E-3,2.647249487E-3
1.127986461E0,-0.000000000E0,1.298050396E-3,-7.635590737E-5,1.300294219E-3
1.130412294E0,-0.000000000E0,-1.756185899E-3,5.344913807E-4,1.835720552E-3
1.132838179E0,-6.108472589E-4,7.635590737E-5,5.344913807E-4,8.152580170E-4
1.135264013E0,6.108472589E-4,6.872031372E-4,-7.635590737E-5,9.226119174E-4
1.137689846E0,-6.108472589E-4,6.872031372E-4,-6.872031372E-4,1.147880951E-3
1.140115679E0,-1.221694518E-3,6.872031372E-4,5.344913807E-4,1.500155553E-3
1.142541513E0,-0.000000000E0,7.635590737E-5,5.344913807E-4,5.399178276E-4
1.144967346E0,-0.000000000E0,-1.756185899E-3,5.344913807E-4,1.835720552E-3
1.147393179E0,-0.000000000E0,-1.145338640E-3,-7.635590737E-5,1.147881015E-3
1.149819013E0,-1.832541777E-3,7.635590737E-5,1.145338640E-3,2.162369115E-3
1.152244846E0,-1.221694518E-3,7.635590737E-5,-7.635590737E-5,1.226457478E-3
1.154670732E0,6.108472589E-4,7.635590737E-5,-7.635590737E-5,6.203183239E-4
1.157096565E0,-1.832541777E-3,7.635590737E-5,5.344913807E-4,1.910424200E-3
1.159522398E0,-0.000000000E0,-1.145338640E-3,-7.635590737E-5,1.147881015E-3
1.161948232E0,6.108472589E-4,2.519744914E-3,5.344913807E-4,2.647249486E-3
1.164374065E0,-0.000000000E0,7.635590737E-5,-6.872031372E-4,6.914321199E-4
1.166799898E0,6.108472589E-4,-1.145338640E-3,-1.298050396E-3,1.835720514E-3
1.169225732E0,-6.108472589E-4,1.298050396E-3,5.344913807E-4,1.530931168E-3
1.171651565E0,1.221694518E-3,7.635590737E-5,-7.635590737E-5,1.226457478E-3
1.174077398E0,1.221694518E-3,7.635590737E-5,1.145338640E-3,1.676355666E-3
1.176503232E0,6.108472589E-4,7.635590737E-5,-6.872031372E-4,9.226119174E-4
1.178929065E0,1.221694518E-3,6.872031372E-4,-7.635590737E-5,1.403786263E-3
1.181354950E0,6.108472589E-4,7.635590737E-5,-1.298050396E-3,1.436627798E-3
1.183780784E0,-1.221694518E-3,-5.344913807E-4,-1.298050396E-3,1.860954960E-3
1.186206617E0,6.108472589E-4,7.635590737E-5,-6.872031372E-4,9.226119174E-4
1.188632450E0,-0.000000000E0,7.635590737E-5,5.344913807E-4,5.399178276E-4
1.191058284E0,-0.000000000E0,1.298050396E-3,-7.635590737E-5,1.300294219E-3
1.193484117E0,6.108472589E-4,-1.145338640E-3,5.344913807E-4,1.403786312E-3
1.195909950E0,6.108472589E-4,-1.145338640E-3,-7.635590737E-5,1.300294274E-3
1.198335784E0,-0.000000000E0,1.298050396E-3,5.344913807E-4,1.403786261E-3
1.200761617E0,1.832541777E-3,-5.344913807E-4,-7.635590737E-5,1.910424200E-3
1.203187502E0,1.221694518E-3,7.635590737E-5,-6.872031372E-4,1.403786263E-3
1.205613336E0,1.832541777E-3,-5.344913807E-4,-7.635590737E-5,1.910424200E-3
1.208039169E0,-0.000000000E0,6.872031372E-4,-7.635590737E-5,6.914321199E-4
1.210465002E0,-6.108472589E-4,1.298050396E-3,1.756185899E-3,2.267654761E-3
1.212890836E0,-0.000000000E0,1.908897655E-3,1.145338640E-3,2.226138104E-3
1.215316669E0,-0.000000000E0,7.635590737E-5,1.756185899E-3,1.757845026E-3
1.217742502E0,1.832541777E-3,-5.344913807E-4,-7.635590737E-5,1.910424200E-3
1.220168336E0,1.221694518E-3,-5.344913807E-4,-6.872031372E-4,1.500155553E-3
1.222594169E0,-0.000000000E0,-1.145338640E-3,-6.872031372E-4,1.335682878E-3
1.225020002E0,-1.221694518E-3,-1.145338640E-3,5.344913807E-4,1.757845025E-3
1.227445888E0,-6.108472589E-4,7.635590737E-5,-7.635590737E-5,6.203183239E-4
1.229871721E0,-1.832541777E-3,1.298050396E-3,1.145338640E-3,2.520901584E-3
1.232297554E0,-6.108472589E-4,-5.344913807E-4,5.344913807E-4,9.718520699E-4
1.234723388E0,-1.221694518E-3,1.908897655E-3,5.344913807E-4,2.328542202E-3
1.237149221E0,-0.000000000E0,6.872031372E-4,-7.635590737E-5,6.914321199E-4
1.239575054E0,-0.000000000E0,7.635590737E-5,5.344913807E-4,5.399178276E-4
1.242000888E0,6.108472589E-4,7.635590737E-5,-6.872031372E-4,9.226119174E-4
1.244426721E0,1.221694518E-3,-1.145338640E-3,-7.635590737E-5,1.676355666E-3
1.246852554E0,6.108472589E-4,6.872031372E-4,-1.908897655E-3,2.118790406E-3
1.249278388E0,1.221694518E-3,-5.344913807E-4,-7.635590737E-5,1.335682880E-3
1.251704273E0,1.832541777E-3,-5.344913807E-4,5.344913807E-4,1.982314666E-3
1.254130107E0,6.108472589E-4,6.872031372E-4,5.344913807E-4,1.063514721E-3
1.256555940E0,-6.108472589E-4,-5.344913807E-4,1.145338640E-3,1.403786312E-3
1.258981773E0,-1.221694518E-3,7.635590737E-5,-1.298050396E-3,1.784181199E-3
1.261407607E0,6.108472589E-4,6.872031372E-4,-6.872031372E-4,1.147880951E-3
1.263833440E0,-1.221694518E-3,7.635590737E-5,-7.635590737E-5,1.226457478E-3
1.266259273E0,6.108472589E-4,-5.344913807E-4,5.344913807E-4,9.718520699E-4
1.268685107E0,-0.000000000E0,-5.344913807E-4,-7.635590737E-5,5.399178276E-4
1.271110940E0,-1.221694518E-3,-5.344913807E-4,5.344913807E-4,1.436627846E-3
1.273536825E0,6.108472589E-4,-5.344913807E-4,-7.635590737E-5,8.152580170E-4
1.275962659E0,6.108472589E-4,-1.145338640E-3,-7.635590737E-5,1.300294274E-3
1.278388492E0,-6.108472589E-4,1.298050396E-3,-7.635590737E-5,1.436627798E-3
1.280814325E0,-6.108472589E-4,-5.344913807E-4,-6.872031372E-4,1.063514721E-3
1.283240159E0,-1.221694518E-3,-1.145338640E-3,5.344913807E-4,1.757845025E-3
1.285665992E0,-6.108472589E-4,-5.344913807E-4,-7.635590737E-5,8.152580170E-4
1.288091825E0,6.108472589E-4,1.298050396E-3,-1.298050396E-3,1.934684480E-3
1.290517659E0,6.108472589E-4,-5.344913807E-4,-1.298050396E-3,1.530931168E-3
1.292943492E0,-1.221694518E-3,1.298050396E-3,-7.635590737E-5,1.784181199E-3
1.295369325E0,-0.000000000E0,-5.344913807E-4,5.344913807E-4,7.558849595E-4
1.297795159E0,-0.000000000E0,6.872031372E-4,5.344913807E-4,8.705912863E-4
1.300221044E0,-0.000000000E0,6.872031372E-4,-7.635590737E-5,6.914321199E-4
1.302646877E0,-0.000000000E0,-5.344913807E-4,-6.872031372E-4,8.705912863E-4
1.305072711E0,6.108472589E-4,1.298050396E-3,-7.635590737E-5,1.436627798E-3
1.307498544E0,1.221694518E-3,6.872031372E-4,-1.298050396E-3,1.910424162E-3
1.309924377E0,6.108472589E-4,6.872031372E-4,-1.298050396E-3,1.590697129E-3
1.312350211E0,6.108472589E-4,-5.344913807E-4,-7.635590737E-5,8.152580170E-4
1.314776044E0,-1.221694518E-3,7.635590737E-5,-1.298050396E-3,1.784181199E-3
1.317201877E0,-1.221694518E-3,-5.344913807E-4,-7.635590737E-5,1.335682880E-3
1.319627711E0,6.108472589E-4,-1.145338640E-3,-1.298050396E-3,1.835720514E-3
1.322053544E0,1.221694518E-3,7.635590737E-5,-7.635590737E-5,1.226457478E-3
1.324479429E0,-1.221694518E-3,6.872031372E-4,5.344913807E-4,1.500155553E-3
1.326905263E0,-0.000000000E0,6.872031372E-4,-7.635590737E-5,6.914321199E-4
1.329331096E0,-0.000000000E0,7.635590737E-5,1.756185899E-3,1.757845026E-3
1.331756929E0,6.108472589E-4,-5.344913807E-4,5.344913807E-4,9.718520699E-4
1.334182763E0,1.221694518E-3,6.872031372E-4,-7.635590737E-5,1.403786263E-3
1.336608596E0,1.221694518E-3,6.872031372E-4,-6.872031372E-4,1.561100189E-3
1.339034429E0,-6.108472589E-4,-5.344913807E-4,-7.635590737E-5,8.152580170E-4
1.341460263E0,-1.221694518E-3,6.872031372E-4,1.145338640E-3,1.810134317E-3
1.343886096E0,-0.000000000E0,7.635590737E-5,-7.635590737E-5,1.079835598E-4
1.346311929E0,-6.108472589E-4,-5.344913807E-4,-7.635590737E-5,8.152580170E-4
1.348737815E0,-1.221694518E-3,-5.344913807E-4,-1.298050396E-3,1.860954960E-3
1.351163648E0,-1.221694518E-3,7.635590737E-5,-6.872031372E-4,1.403786263E-3
1.353589482E0,1.221694518E-3,6.872031372E-4,-6.872031372E-4,1.561100189E-3
1.356015315E0,-0.000000000E0,-5.344913807E-4,-6.872031372E-4,8.705912863E-4
1.358441148E0,1.221694518E-3,1.298050396E-3,-7.635590737E-5,1.784181199E-3
1.360866982E0,-6.108472589E-4,7.635590737E-5,1.145338640E-3,1.300294274E-3
1.363292815E0,6.108472589E-4,6.872031372E-4,1.756185899E-3,1.982314666E-3
1.365718648E0,6.108472589E-4,7.635590737E-5,1.756185899E-3,1.860954999E-3
1.368144482E0,-0.000000000E0,1.298050396E-3,-6.872031372E-4,1.468735164E-3
1.370570315E0,-6.108472589E-4,-5.344913807E-4,-1.298050396E-3,1.530931168E-3
1.372996200E0,-0.000000000E0,-5.344913807E-4,-7.635590737E-5,5.399178276E-4
1.375422034E0,-6.108472589E-4,-5.344913807E-4,-6.872031372E-4,1.063514721E-3
1.377847867E0,-6.108472589E-4,7.635590737E-5,5.344913807E-4,8.152580170E-4
1.380273700E0,-1.832541777E-3,-5.344913807E-4,-6.872031372E-4,2.028826890E-3
1.382699534E0,-0.000000000E0,-5.344913807E-4,1.145338640E-3,1.263915201E-3
1.385125367E0,-6.108472589E-4,1.298050396E-3,-7.635590737E-5,1.436627798E-3
1.387551200E0,6.108472589E-4,7.635590737E-5,1.145338640E-3,1.300294274E-3
1.389977034E0,6.108472589E-4,-1.145338640E-3,5.344913807E-4,1.403786312E-3
1.392402867E0,-6.108472589E-4,7.635590737E-5,-7.635590737E-5,6.203183239E-4
1.394828752E0,-0.000000000E0,-1.145338640E-3,-6.872031372E-4,1.335682878E-3
1.397254586E0,6.108472589E-4,7.635590737E-5,1.756185899E-3,1.860954999E-3
1.399680419E0,-6.108472589E-4,7.635590737E-5,-7.635590737E-5,6.203183239E-4
1.402106252E0,-6.108472589E-4,7.635590737E-5,-6.872031372E-4,9.226119174E-4
1.404532086E0,-0.000000000E0,7.635590737E-5,-7.635590737E-5,1.079835598E-4
1.406957919E0,-0.000000000E0,6.872031372E-4,-1.298050396E-3,1.468735164E-3
1.409383752E0,-1.221694518E-3,1.298050396E-3,1.756185899E-3,2.502331160E-3
1.411809586E0,-0.000000000E0,7.635590737E-5,-7.635590737E-5,1.079835598E-4
1.414235419E0,-0.000000000E0,-5.344913807E-4,-6.872031372E-4,8.705912863E-4
1.416661304E0,-1.221694518E-3,6.872031372E-4,-1.298050396E-3,1.910424162E-3
1.419087138E0,-1.221694518E-3,-5.344913807E-4,-6.872031372E-4,1.500155553E-3
1.421512971E0,-0.000000000E0,7.635590737E-5,5.344913807E-4,5.399178276E-4
1.423938804E0,-0.000000000E0,6.872031372E-4,1.145338640E-3,1.335682878E-3
1.426364638E0,-6.108472589E-4,7.635590737E-5,1.145338640E-3,1.300294274E-3
1.428790471E0,-0.000000000E0,7.635590737E-5,-1.298050396E-3,1.300294219E-3
1.431216304E0,-1.832541777E-3,-5.344913807E-4,5.344913807E-4,1.982314666E-3
1.433642138E0,-6.108472589E-4,-2.367033157E-3,-1.298050396E-3,2.767835828E-3
1.436067971E0,6.108472589E-4,-1.145338640E-3,5.344913807E-4,1.403786312E-3
1.438493857E0,-0.000000000E0,6.872031372E-4,-6.872031372E-4,9.718519967E-4
1.440919690E0,-0.000000000E0,1.298050396E-3,-7.635590737E-5,1.300294219E-3
1.443345523E0,6.108472589E-4,-1.145338640E-3,1.756185899E-3,2.183832384E-3
1.445771357E0,6.108472589E-4,7.635590737E-5,-6.872031372E-4,9.226119174E-4
1.448197190E0,6.108472589E-4,6.872031372E-4,5.344913807E-4,1.063514721E-3
1.450623023E0,6.108472589E-4,-5.344913807E-4,-6.872031372E-4,1.063514721E-3
1.453048857E0,1.221694518E-3,-5.344913807E-4,-6.872031372E-4,1.500155553E-3
1.455474690E0,1.832541777E-3,-2.367033157E-3,-1.298050396E-3,3.262819358E-3
1.457900523E0,-6.108472589E-4,-5.344913807E-4,5.344913807E-4,9.718520699E-4
1.460326357E0,6.108472589E-4,-5.344913807E-4,5.344913807E-4,9.718520699E-4
1.462752242E0,6.108472589E-4,-1.145338640E-3,-6.872031372E-4,1.468735213E-3
1.465178075E0,-1.221694518E-3,7.635590737E-5,-6.872031372E-4,1.403786263E-3
1.467603909E0,-0.000000000E0,1.298050396E-3,-1.908897655E-3,2.308424807E-3
1.470029742E0,-0.000000000E0,-2.367033157E-3,5.344913807E-4,2.426628732E-3
1.472455575E0,-0.000000000E0,-5.344913807E-4,5.344913807E-4,7.558849595E-4
1.474881409E0,-0.000000000E0,6.872031372E-4,5.344913807E-4,8.705912863E-4
1.477307242E0,-6.108472589E-4,1.298050396E-3,-7.635590737E-5,1.436627798E-3
1.479733075E0,-6.108472589E-4,7.635590737E-5,-7.635590737E-5,6.203183239E-4
1.482158909E0,-1.221694518E-3,-5.344913807E-4,-7.635590737E-5,1.335682880E-3
1.484584742E0,-0.000000000E0,7.635590737E-5,5.344913807E-4,5.399178276E-4
1.487010575E0,-0.000000000E0,-1.145338640E-3,5.344913807E-4,1.263915201E-3
1.489436461E0,-0.000000000E0,7.635590737E-5,-6.872031372E-4,6.914321199E-4
1.491862294E0,-1.221694518E-3,7.635590737E-5,-7.635590737E-5,1.226457478E-3
1.494288127E0,-1.832541777E-3,1.298050396E-3,-6.872031372E-4,2.348487246E-3
1.496713961E0,-6.108472589E-4,6.872031372E-4,-7.635590737E-5,9.226119174E-4
1.499139794E0,-0.000000000E0,6.872031372E-4,-7.635590737E-5,6.914321199E-4
1.501565627E0,-0.000000000E0,-5.344913807E-4,-6.872031372E-4,8.705912863E-4
1.503991461E0,1.832541777E-3,-5.344913807E-4,1.145338640E-3,2.226138136E-3
1.506417294E0,-0.000000000E0,1.298050396E-3,5.344913807E-4,1.403786261E-3
1.508843127E0,6.108472589E-4,6.872031372E-4,-1.908897655E-3,2.118790406E-3
1.511269013E0,-0.000000000E0,-5.344913807E-4,5.344913807E-4,7.558849595E-4
1.513694846E0,-0.000000000E0,1.298050396E-3,-7.635590737E-5,1.300294219E-3
1.516120679E0,6.108472589E-4,-1.756185899E-3,-7.635590737E-5,1.860954999E-3
1.518546513E0,-6.108472589E-4,-5.344913807E-4,-7.635590737E-5,8.152580170E-4
1.520972346E0,6.108472589E-4,6.872031372E-4,-1.298050396E-3,1.590697129E-3
1.523398179E0,-1.832541777E-3,-5.344913807E-4,-7.635590737E-5,1.910424200E-3
1.525824013E0,-6.108472589E-4,-5.344913807E-4,-6.872031372E-4,1.063514721E-3
1.528249846E0,1.221694518E-3,7.635590737E-5,5.344913807E-4,1.335682880E-3
1.530675679E0,6.108472589E-4,7.635590737E-5,1.145338640E-3,1.300294274E-3
1.533101565E0,-6.108472589E-4,-5.344913807E-4,-7.635590737E-5,8.152580170E-4
1.535527398E0,-6.108472589E-4,7.635590737E-5,-7.635590737E-5,6.203183239E-4
1.537953232E0,-0.000000000E0,1.298050396E-3,-6.872031372E-4,1.468735164E-3
1.540379065E0,-1.221694518E-3,7.635590737E-5,-6.872031372E-4,1.403786263E-3
1.542804898E0,-0.000000000E0,-5.344913807E-4,-7.635590737E-5,5.399178276E-4
1.545230732E0,-6.108472589E-4,7.635590737E-5,1.145338640E-3,1.300294274E-3
1.547656565E0,6.108472589E-4,6.872031372E-4,-6.872031372E-4,1.147880951E-3
1.550082398E0,1.221694518E-3,1.298050396E-3,-7.635590737E-5,1.784181199E-3
1.552508232E0,6.108472589E-4,-5.344913807E-4,-6.872031372E-4,1.063514721E-3
1.554934065E0,6.108472589E-4,6.872031372E-4,-7.635590737E-5,9.226119174E-4
1.557359950E0,-0.000000000E0,1.908897655E-3,-7.635590737E-5,1.910424163E-3
1.559785784E0,-6.108472589E-4,7.635590737E-5,-6.872031372E-4,9.226119174E-4
1.562211617E0,-0.000000000E0,7.635590737E-5,-1.908897655E-3,1.910424163E-3
1.564637450E0,-0.000000000E0,-5.344913807E-4,-7.635590737E-5,5.399178276E-4
1.567063284E0,-0.000000000E0,-5.344913807E-4,5.344913807E-4,7.558849595E-4
1.569489117E0,1.221694518E-3,-1.145338640E-3,-7.635590737E-5,1.676355666E-3
1.571914950E0,1.221694518E-3,-5.344913807E-4,-7.635590737E-5,1.335682880E-3
1.574340784E0,-6.108472589E-4,6.872031372E-4,5.344913807E-4,1.063514721E-3
1.576766617E0,-6.108472589E-4,6.872031372E-4,-7.635590737E-5,9.226119174E-4
1.579192502E0,-0.000000000E0,6.872031372E-4,-1.908897655E-3,2.028826855E-3
1.581618336E0,-6.108472589E-4,6.872031372E-4,-6.872031372E-4,1.147880951E-3
1.584044169E0,-1.221694518E-3,-5.344913807E-4,1.145338640E-3,1.757845025E-3
1.586470002E0,-6.108472589E-4,-5.344913807E-4,-1.298050396E-3,1.530931168E-3
1.588895836E0,1.832541777E-3,1.298050396E-3,-7.635590737E-5,2.246992305E-3
1.591321669E0,6.108472589E-4,7.635590737E-5,-6.872031372E-4,9.226119174E-4
1.593747502E0,-1.221694518E-3,7.635590737E-5,5.344913807E-4,1.335682880E-3
1.596173336E0,-6.108472589E-4,-5.344913807E-4,-1.298050396E-3,1.530931168E-3
1.598599221E0,6.108472589E-4,7.635590737E-5,-6.872031372E-4,9.226119174E-4
1.601025054E0,6.108472589E-4,6.872031372E-4,-1.298050396E-3,1.590697129E-3
1.603450888E0,-0.000000000E0,1.298050396E-3,-1.298050396E-3,1.835720475E-3
1.605876721E0,-0.000000000E0,-5.344913807E-4,-7.635590737E-5,5.399178276E-4
1.608302554E0,-6.108472589E-4,7.635590737E-5,-7.635590737E-5,6.203183239E-4
1.610728388E0,-6.108472589E-4,7.635590737E-5,-6.872031372E-4,9.226119174E-4
1.613154221E0,-6.108472589E-4,7.635590737E-5,-6.872031372E-4,9.226119174E-4
1.615580054E0,-6.108472589E-4,-5.344913807E-4,-7.635590737E-5,8.152580170E-4
1.618005888E0,-0.000000000E0,7.635590737E-5,-7.635590737E-5,1.079835598E-4
1.620431721E0,-0.000000000E0,6.872031372E-4,-7.635590737E-5,6.914321199E-4
1.622857607E0,6.108472589E-4,7.635590737E-5,-7.635590737E-5,6.203183239E-4
1.625283440E0,1.221694518E-3,-5.344913807E-4,5.344913807E-4,1.436627846E-3
1.627709273E0,-6.108472589E-4,-5.344913807E-4,-6.872031372E-4,1.063514721E-3
1.630135107E0,-1.221694518E-3,-1.145338640E-3,-1.298050396E-3,2.118790439E-3
1.632560940E0,-3.054236295E-3,-5.344913807E-4,-7.635590737E-5,3.101591624E-3
1.634986773E0,-1.221694518E-3,7.635590737E-5,-6.872031372E-4,1.403786263E-3
1.637412607E0,-0.000000000E0,7.635590737E-5,-1.298050396E-3,1.300294219E-3
1.639838440E0,-0.000000000E0,-5.344913807E-4,5.344913807E-4,7.558849595E-4
1.642264273E0,6.108472589E-4,7.635590737E-5,1.145338640E-3,1.300294274E-3
1.644690107E0,-6.108472589E-4,6.872031372E-4,5.344913807E-4,1.063514721E-3
1.647115992E0,-0.000000000E0,6.872031372E-4,5.344913807E-4,8.705912863E-4
1.649541825E0,-0.000000000E0,7.635590737E-5,-7.635590737E-5,1.079835598E-4
1.651967659E0,-6.108472589E-4,6.872031372E-4,-6.872031372E-4,1.147880951E-3
1.654393492E0,-1.221694518E-3,6.872031372E-4,-6.872031372E-4,1.561100189E-3
1.656819325E0,6.108472589E-4,-1.145338640E-3,1.756185899E-3,2.183832384E-3
1.659245159E0,-0.000000000E0,7.635590737E-5,5.344913807E-4,5.399178276E-4
1.661670992E0,-6.108472589E-4,6.872031372E-4,5.344913807E-4,1.063514721E-3
1.664096825E0,-0.000000000E0,-5.344913807E-4,-7.635590737E-5,5.399178276E-4
1.666522659E0,-6.108472589E-4,-1.756185899E-3,1.145338640E-3,2.183832384E-3
1.668948492E0,-0.000000000E0,7.635590737E-5,1.756185899E-3,1.757845026E-3
1.671374377E0,6.108472589E-4,7.635590737E-5,5.344913807E-4,8.152580170E-4
1.673800211E0,-0.000000000E0,7.635590737E-5,-6.872031372E-4,6.914321199E-4
1.676226044E0,-0.000000000E0,1.298050396E-3,-7.635590737E-5,1.300294219E-3
1.678651877E0,-6.108472589E-4,-5.344913807E-4,-7.635590737E-5,8.152580170E-4
1.681077711E0,1.221694518E-3,-1.145338640E-3,-7.635590737E-5,1.676355666E-3
1.683503544E0,-6.108472589E-4,-1.145338640E-3,-6.872031372E-4,1.468735213E-3
1.685929377E0,-6.108472589E-4,7.635590737E-5,5.344913807E-4,8.152580170E-4
1.688355211E0,6.108472589E-4,7.635590737E-5,-7.635590737E-5,6.203183239E-4
1.690781044E0,7.635590737E-5,6.872031372E-4,-0.000000000E0,6.914321199E-4
1.693206929E0,7.635590737E-5,-1.145338640E-3,-0.000000000E0,1.147881015E-3
1.695632763E0,7.635590737E-5,7.635590737E-5,1.221694518E-3,1.226457478E-3
1.698058596E0,7.635590737E-5,-1.145338640E-3,0.000000000E0,1.147881015E-3
1.700484429E0,7.635590737E-5,-1.145338640E-3,6.108472589E-4,1.300294274E-3
1.702910263E0,7.635590737E-5,6.872031372E-4,6.108472589E-4,9.226119174E-4
1.705336096E0,1.908897655E-3,-5.344913807E-4,6.108472589E-4,2.074296427E-3
1.707761929E0,1.908897655E-3,1.298050396E-3,-1.221694518E-3,2.611773839E-3
1.710187763E0,1.298050396E-3,7.635590737E-5,-6.108472589E-4,1.436627798E-3
1.712613596E0,1.298050396E-3,6.872031372E-4,-6.108472589E-4,1.590697129E-3
1.715039482E0,6.872031372E-4,7.635590737E-5,0.000000000E0,6.914321199E-4
1.717465315E0,7.635590737E-5,-1.145338640E-3,-6.108472589E-4,1.300294274E-3
1.719891148E0,-5.344913807E-4,6.872031372E-4,0.000000000E0,8.705912863E-4
1.722316982E0,7.635590737E-5,6.872031372E-4,6.108472589E-4,9.226119174E-4
1.724742815E0,-1.145338640E-3,6.872031372E-4,1.221694518E-3,1.810134317E-3
1.727168648E0,7.635590737E-5,-5.344913807E-4,1.221694518E-3,1.335682880E-3
1.729594482E0,1.908897655E-3,-5.344913807E-4,0.000000000E0,1.982314630E-3
1.732020315E0,-5.344913807E-4,-1.145338640E-3,-6.108472589E-4,1.403786312E-3
1.734446148E0,7.635590737E-5,6.872031372E-4,0.000000000E0,6.914321199E-4
1.736872034E0,6.872031372E-4,-5.344913807E-4,-6.108472589E-4,1.063514721E-3
1.739297867E0,7.635590737E-5,7.635590737E-5,6.108472589E-4,6.203183239E-4
1.741723700E0,-1.145338640E-3,-5.344913807E-4,-1.221694518E-3,1.757845025E-3
1.744149534E0,6.872031372E-4,-5.344913807E-4,6.108472589E-4,1.063514721E-3
1.746575367E0,7.635590737E-5,7.635590737E-5,0.000000000E0,1.079835598E-4
1.749001200E0,-1.145338640E-3,-5.344913807E-4,-6.108472589E-4,1.403786312E-3
1.751427034E0,-5.344913807E-4,-5.344913807E-4,6.108472589E-4,9.718520699E-4
1.753852867E0,7.635590737E-5,-1.145338640E-3,6.108472589E-4,1.300294274E-3
1.756278700E0,7.635590737E-5,-1.145338640E-3,-6.108472589E-4,1.300294274E-3
1.758704586E0,-5.344913807E-4,6.872031372E-4,1.221694518E-3,1.500155553E-3
1.761130419E0,-5.344913807E-4,-1.145338640E-3,2.443389036E-3,2.750932863E-3
1.763556252E0,7.635590737E-5,-5.344913807E-4,0.000000000E0,5.399178276E-4
1.765982086E0,-5.344913807E-4,7.635590737E-5,6.108472589E-4,8.152580170E-4
1.768407919E0,-1.145338640E-3,7.635590737E-5,-6.108472589E-4,1.300294274E-3
1.770833752E0,7.635590737E-5,7.635590737E-5,-1.832541777E-3,1.835720516E-3
1.773259586E0,7.635590737E-5,7.635590737E-5,6.108472589E-4,6.203183239E-4
1.775685419E0,-5.344913807E-4,7.635590737E-5,6.108472589E-4,8.152580170E-4
1.778111252E0,-1.145338640E-3,6.872031372E-4,-6.108472589E-4,1.468735213E-3
1.780537138E0,7.635590737E-5,7.635590737E-5,0.000000000E0,1.079835598E-4
1.782962971E0,6.872031372E-4,6.872031372E-4,1.221694518E-3,1.561100189E-3
1.785388804E0,-5.344913807E-4,-5.344913807E-4,-6.108472589E-4,9.718520699E-4
1.787814638E0,-5.344913807E-4,6.872031372E-4,0.000000000E0,8.705912863E-4
1.790240471E0,-2.367033157E-3,7.635590737E-5,6.108472589E-4,2.445774022E-3
1.792666304E0,7.635590737E-5,-5.344913807E-4,-1.221694518E-3,1.335682880E-3
1.795092138E0,6.872031372E-4,6.872031372E-4,6.108472589E-4,1.147880951E-3
1.797517971E0,6.872031372E-4,6.872031372E-4,6.108472589E-4,1.147880951E-3
1.799943804E0,7.635590737E-5,6.872031372E-4,1.832541777E-3,1.958644363E-3
1.802369638E0,7.635590737E-5,7.635590737E-5,-6.108472589E-4,6.203183239E-4
1.804795523E0,7.635590737E-5,7.635590737E-5,-6.108472589E-4,6.203183239E-4
1.807221357E0,6.872031372E-4,-1.145338640E-3,0.000000000E0,1.335682878E-3
1.809647190E0,-5.344913807E-4,6.872031372E-4,0.000000000E0,8.705912863E-4
1.812073023E0,-5.344913807E-4,6.872031372E-4,0.000000000E0,8.705912863E-4
1.814498857E0,7.635590737E-5,-5.344913807E-4,6.108472589E-4,8.152580170E-4
1.816924690E0,7.635590737E-5,-1.145338640E-3,-1.221694518E-3,1.676355666E-3
1.819350523E0,-1.145338640E-3,6.872031372E-4,0.000000000E0,1.335682878E-3
1.821776357E0,7.635590737E-5,-5.344913807E-4,6.108472589E-4,8.152580170E-4
1.824202190E0,-5.344913807E-4,7.635590737E-5,-0.000000000E0,5.399178276E-4
1.826628075E0,6.872031372E-4,6.872031372E-4,-6.108472589E-4,1.147880951E-3
1.829053909E0,6.872031372E-4,-5.344913807E-4,6.108472589E-4,1.063514721E-3
1.831479742E0,-1.145338640E-3,7.635590737E-5,-0.000000000E0,1.147881015E-3
1.833905575E0,-5.344913807E-4,1.298050396E-3,-6.108472589E-4,1.530931168E-3
1.836331409E0,7.635590737E-5,7.635590737E-5,6.108472589E-4,6.203183239E-4
1.838757242E0,-1.145338640E-3,6.872031372E-4,-0.000000000E0,1.335682878E-3
1.841183075E0,6.872031372E-4,7.635590737E-5,-0.000000000E0,6.914321199E-4
1.843608909E0,7.635590737E-5,6.872031372E-4,1.221694518E-3,1.403786263E-3
1.846034742E0,-1.145338640E-3,-5.344913807E-4,-0.000000000E0,1.263915201E-3
1.848460627E0,7.635590737E-5,1.298050396E-3,-6.108472589E-4,1.436627798E-3
1.850886461E0,7.635590737E-5,7.635590737E-5,6.108472589E-4,6.203183239E-4
1.853312294E0,7.635590737E-5,-5.344913807E-4,6.108472589E-4,8.152580170E-4
1.855738127E0,7.635590737E-5,-5.344913807E-4,-1.221694518E-3,1.335682880E-3
1.858163961E0,-5.344913807E-4,6.872031372E-4,-0.000000000E0,8.705912863E-4
1.860589794E0,-5.344913807E-4,7.635590737E-5,-6.108472589E-4,8.152580170E-4
1.863015627E0,7.635590737E-5,7.635590737E-5,-0.000000000E0,1.079835598E-4
1.865441461E0,6.872031372E-4,7.635590737E-5,6.108472589E-4,9.226119174E-4
1.867867294E0,7.635590737E-5,6.872031372E-4,6.108472589E-4,9.226119174E-4
1.870293127E0,-1.145338640E-3,-1.145338640E-3,-0.000000000E0,1.619753438E-3
1.872719013E0,6.872031372E-4,7.635590737E-5,6.108472589E-4,9.226119174E-4
1.875144846E0,7.635590737E-5,1.298050396E-3,6.108472589E-4,1.436627798E-3
1.877570679E0,-5.344913807E-4,6.872031372E-4,6.108472589E-4,1.063514721E-3
1.879996513E0,-5.344913807E-4,6.872031372E-4,6.108472589E-4,1.063514721E-3
1.882422346E0,7.635590737E-5,-5.344913807E-4,-0.000000000E0,5.399178276E-4
1.884848179E0,6.872031372E-4,7.635590737E-5,-0.000000000E0,6.914321199E-4
1.887274013E0,-5.344913807E-4,1.298050396E-3,6.108472589E-4,1.530931168E-3
1.889699846E0,-1.145338640E-3,1.298050396E-3,6.108472589E-4,1.835720514E-3
1.892125732E0,1.298050396E-3,7.635590737E-5,1.221694518E-3,1.784181199E-3
1.894551565E0,1.298050396E-3,6.872031372E-4,6.108472589E-4,1.590697129E-3
1.896977398E0,-5.344913807E-4,-1.145338640E-3,1.832541777E-3,2.226138136E-3
1.899403232E0,-1.145338640E-3,6.872031372E-4,1.221694518E-3,1.810134317E-3
1.901829065E0,1.298050396E-3,7.635590737E-5,6.108472589E-4,1.436627798E-3
1.904254898E0,1.298050396E-3,6.872031372E-4,-0.000000000E0,1.468735164E-3
1.906680732E0,1.298050396E-3,7.635590737E-5,6.108472589E-4,1.436627798E-3
1.909106565E0,-1.145338640E-3,7.635590737E-5,-0.000000000E0,1.147881015E-3
1.911532398E0,-5.344913807E-4,7.635590737E-5,-6.108472589E-4,8.152580170E-4
1.913958284E0,6.872031372E-4,-5.344913807E-4,1.221694518E-3,1.500155553E-3
1.916384117E0,7.635590737E-5,7.635590737E-5,6.108472589E-4,6.203183239E-4
1.918809950E0,-5.344913807E-4,7.635590737E-5,-0.000000000E0,5.399178276E-4
1.921235784E0,1.298050396E-3,7.635590737E-5,-1.221694518E-3,1.784181199E-3
1.923661617E0,-5.344913807E-4,7.635590737E-5,-0.000000000E0,5.399178276E-4
1.926087450E0,1.298050396E-3,7.635590737E-5,6.108472589E-4,1.436627798E-3
1.928513284E0,1.298050396E-3,-5.344913807E-4,-6.108472589E-4,1.530931168E-3
1.930939117E0,-1.756185899E-3,1.298050396E-3,-1.221694518E-3,2.502331160E-3
1.933364950E0,-5.344913807E-4,6.872031372E-4,1.832541777E-3,2.028826890E-3
1.935790784E0,6.872031372E-4,-5.344913807E-4,1.221694518E-3,1.500155553E-3
1.938216669E0,-5.344913807E-4,-5.344913807E-4,1.756185899E-3,1.911949524E-3
1.940642502E0,-5.344913807E-4,7.635590737E-5,5.344913807E-4,7.597317267E-4
1.943068336E0,7.635590737E-5,-5.344913807E-4,-7.635590737E-5,5.452902761E-4
1.945494169E0,-5.344913807E-4,-5.344913807E-4,-7.635590737E-5,7.597317267E-4
1.947920002E0,-5.344913807E-4,1.298050396E-3,-1.298050396E-3,1.911949450E-3
1.950345836E0,7.635590737E-5,6.872031372E-4,-7.635590737E-5,6.956353937E-4
1.952771669E0,1.298050396E-3,7.635590737E-5,5.344913807E-4,1.405861334E-3
1.955197502E0,6.872031372E-4,7.635590737E-5,-6.872031372E-4,9.748469255E-4
1.957623336E0,7.635590737E-5,-5.344913807E-4,-6.872031372E-4,8.739332997E-4
1.960049221E0,-5.344913807E-4,-5.344913807E-4,5.344913807E-4,9.257662275E-4
1.962475054E0,-5.344913807E-4,7.635590737E-5,-1.298050396E-3,1.405861334E-3
1.964900888E0,7.635590737E-5,7.635590737E-5,1.145338640E-3,1.150417771E-3
1.967326721E0,6.872031372E-4,6.872031372E-4,5.344913807E-4,1.109133599E-3
1.969752554E0,-5.344913807E-4,7.635590737E-5,-7.635590737E-5,5.452902761E-4
1.972178388E0,6.872031372E-4,7.635590737E-5,5.344913807E-4,8.739332997E-4
1.974604221E0,7.635590737E-5,7.635590737E-5,-7.635590737E-5,1.322523110E-4
1.977030054E0,-5.344913807E-4,6.872031372E-4,-6.872031372E-4,1.109133599E-3
1.979455888E0,6.872031372E-4,-5.344913807E-4,5.344913807E-4,1.021572427E-3
1.981881773E0,6.872031372E-4,7.635590737E-5,-6.872031372E-4,9.748469255E-4
1.984307607E0,7.635590737E-5,-1.145338640E-3,-7.635590737E-5,1.150417771E-3
1.986733440E0,7.635590737E-5,6.872031372E-4,-6.872031372E-4,9.748469255E-4
1.989159273E0,-2.977880416E-3,6.872031372E-4,-1.298050396E-3,3.320384730E-3
1.991585107E0,6.872031372E-4,-5.344913807E-4,5.344913807E-4,1.021572427E-3
1.994010940E0,6.872031372E-4,6.872031372E-4,-7.635590737E-5,9.748469255E-4
1.996436773E0,1.908897655E-3,-5.344913807E-4,1.756185899E-3,2.648350468E-3
1.998862607E0,1.298050396E-3,1.908897655E-3,5.344913807E-4,2.369494909E-3
2.001288440E0,6.872031372E-4,6.872031372E-4,-7.635590737E-5,9.748469255E-4
2.003714325E0,-1.145338640E-3,-1.145338640E-3,-6.872031372E-4,1.759502586E-3
2.006140159E0,7.635590737E-5,7.635590737E-5,-6.872031372E-4,6.956353937E-4
2.008565992E0,1.298050396E-3,1.908897655E-3,5.344913807E-4,2.369494909E-3
2.010991825E0,6.872031372E-4,6.872031372E-4,1.756185899E-3,2.007158492E-3
2.013417659E0,1.298050396E-3,7.635590737E-5,-7.635590737E-5,1.302534176E-3
2.015843492E0,1.908897655E-3,6.872031372E-4,1.756185899E-3,2.683342565E-3
2.018269325E0,-1.145338640E-3,1.298050396E-3,5.344913807E-4,1.811744040E-3
2.020695159E0,-1.756185899E-3,6.872031372E-4,-6.872031372E-4,2.007158492E-3
2.023120992E0,7.635590737E-5,-1.145338640E-3,-6.872031372E-4,1.337863586E-3
2.025546877E0,7.635590737E-5,-5.344913807E-4,5.344913807E-4,7.597317267E-4
2.027972711E0,-5.344913807E-4,7.635590737E-5,1.145338640E-3,1.266219515E-3
2.030398544E0,-5.344913807E-4,-1.145338640E-3,5.344913807E-4,1.372283743E-3
2.032824377E0,-1.756185899E-3,7.635590737E-5,-7.635590737E-5,1.759502589E-3
2.035250211E0,-5.344913807E-4,0.000000000E0,5.344913807E-4,7.558849595E-4
2.037676044E0,1.298050396E-3,-6.108472589E-4,-6.872031372E-4,1.590697129E-3
2.040101877E0,1.298050396E-3,-1.221694518E-3,5.344913807E-4,1.860954960E-3
2.042527711E0,1.298050396E-3,0.000000000E0,5.344913807E-4,1.403786261E-3
2.044953544E0,7.635590737E-5,0.000000000E0,-7.635590737E-5,1.079835598E-4
2.047379429E0,6.872031372E-4,-6.108472589E-4,-7.635590737E-5,9.226119174E-4
2.049805263E0,6.872031372E-4,-6.108472589E-4,-7.635590737E-5,9.226119174E-4
2.052231096E0,-5.344913807E-4,6.108472589E-4,-1.527118147E-4,8.259154364E-4
2.054656929E0,6.872031372E-4,-1.221694518E-3,-1.527118147E-4,1.410002321E-3
2.057082763E0,-5.344913807E-4,0.000000000E0,-7.635590737E-4,9.320426466E-4
2.059508596E0,7.635590737E-5,-6.108472589E-4,-7.635590737E-4,9.808093889E-4
2.061934429E0,6.872031372E-4,0.000000000E0,-7.635590737E-4,1.027263652E-3
2.064360263E0,7.635590737E-5,0.000000000E0,1.068982761E-3,1.071706288E-3
2.066786096E0,6.872031372E-4,-6.108472589E-4,-7.635590737E-4,1.195158979E-3
2.069211982E0,6.872031372E-4,-1.832541777E-3,-7.635590737E-4,2.100828402E-3
2.071637815E0,7.635590737E-5,-1.832541777E-3,-7.635590737E-4,1.986721432E-3
2.074063648E0,-5.344913807E-4,6.108472589E-4,-1.527118147E-4,8.259154364E-4
2.076489482E0,7.635590737E-5,6.108472589E-4,4.581354442E-4,7.673673720E-4
2.078915315E0,-5.344913807E-4,0.000000000E0,1.068982761E-3,1.195159061E-3
2.081341148E0,-1.145338640E-3,6.108472589E-4,-1.527118147E-4,1.307002629E-3
2.083766982E0,-1.145338640E-3,-6.108472589E-4,-1.527118147E-4,1.307002629E-3
2.086192815E0,7.635590737E-5,6.108472589E-4,-1.374406274E-3,1.505973840E-3
2.088618648E0,-1.145338640E-3,0.000000000E0,4.581354442E-4,1.233567463E-3
2.091044534E0,-5.344913807E-4,0.000000000E0,-1.527118147E-4,5.558794243E-4
2.093470367E0,-1.145338640E-3,-6.108472589E-4,1.068982761E-3,1.681564485E-3
2.095896200E0,7.635590737E-5,-6.108472589E-4,-1.985253533E-3,2.078508165E-3
2.098322034E0,-1.145338640E-3,-1.832541777E-3,-1.374406274E-3,2.561054972E-3
2.100747867E0,6.872031372E-4,0.000000000E0,-1.527118147E-4,7.039666541E-4
2.103173700E0,7.635590737E-5,0.000000000E0,4.581354442E-4,4.644548523E-4
2.105599534E0,7.635590737E-5,6.108472589E-4,1.679830020E-3,1.789076157E-3
2.108025367E0,6.872031372E-4,1.832541777E-3,-7.635590737E-4,2.100828402E-3
2.110451200E0,7.635590737E-5,6.108472589E-4,-7.635590737E-4,9.808093889E-4
2.112877086E0,-1.145338640E-3,-1.221694518E-3,-7.635590737E-4,1.840478349E-3
2.115302919E0,-5.344913807E-4,-6.108472589E-4,-7.635590737E-4,1.114377794E-3
2.117728752E0,6.872031372E-4,6.108472589E-4,-1.527118147E-4,9.320426084E-4
2.120154586E0,7.635590737E-5,0.000000000E0,-7.635590737E-4,7.673673720E-4
2.122580419E0,7.635590737E-5,0.000000000E0,-7.635590737E-4,7.673673720E-4
2.125006252E0,-1.145338640E-3,2.443389036E-3,4.581354442E-4,2.737122333E-3
2.127432086E0,7.635590737E-5,1.221694518E-3,-1.527118147E-4,1.233567436E-3
2.129857919E0,-5.344913807E-4,6.108472589E-4,4.581354442E-4,9.320426466E-4
2.132283752E0,-5.344913807E-4,0.000000000E0,-1.527118147E-4,5.558794243E-4
2.134709638E0,6.872031372E-4,6.108472589E-4,-1.527118147E-4,9.320426084E-4
2.137135471E0,6.872031372E-4,0.000000000E0,-7.635590737E-4,1.027263652E-3
2.139561304E0,-5.344913807E-4,6.108472589E-4,-7.635590737E-4,1.114377794E-3
2.141987138E0,-5.344913807E-4,-6.108472589E-4,4.581354442E-4,9.320426466E-4
2.144412971E0,-1.145338640E-3,0.000000000E0,-1.985253533E-3,2.291949430E-3
2.146838804E0,7.635590737E-5,-2.443389036E-3,-7.635590737E-4,2.561054990E-3
2.149264638E0,7.635590737E-5,-1.221694518E-3,-1.527118147E-4,1.233567436E-3
2.151690471E0,7.635590737E-5,-6.108472589E-4,1.068982761E-3,1.233567486E-3
2.154116304E0,-5.344913807E-4,-6.108472589E-4,-1.527118147E-4,8.259154364E-4
2.156542190E0,-1.145338640E-3,6.108472589E-4,1.068982761E-3,1.681564485E-3
2.158968023E0,-1.145338640E-3,0.000000000E0,1.068982761E-3,1.566692294E-3
2.161393857E0,7.635590737E-5,0.000000000E0,-1.527118147E-4,1.707369994E-4
2.163819690E0,7.635590737E-5,0.000000000E0,-1.374406274E-3,1.376525638E-3
2.166245523E0,-5.344913807E-4,0.000000000E0,-1.527118147E-4,5.558794243E-4
2.168671357E0,-5.344913807E-4,-6.108472589E-4,-7.635590737E-4,1.114377794E-3
2.171097190E0,1.298050396E-3,-6.108472589E-4,4.581354442E-4,1.505973868E-3
2.173523023E0,1.298050396E-3,-1.221694518E-3,-1.527118147E-4,1.789076081E-3
2.175948857E0,7.635590737E-5,0.000000000E0,-1.527118147E-4,1.707369994E-4
2.178374742E0,-5.344913807E-4,6.108472589E-4,4.581354442E-4,9.320426466E-4
2.180800575E0,-5.344913807E-4,-6.108472589E-4,-7.635590737E-4,1.114377794E-3
2.183226409E0,7.635590737E-5,6.108472589E-4,-1.374406274E-3,1.505973840E-3
2.185652242E0,6.872031372E-4,-6.108472589E-4,-7.635590737E-4,1.195158979E-3
2.188078075E0,1.298050396E-3,-1.832541777E-3,-1.374406274E-3,2.632895137E-3
2.190503909E0,6.872031372E-4,-1.832541777E-3,4.581354442E-4,2.010061094E-3
2.192929742E0,7.635590737E-5,0.000000000E0,4.581354442E-4,4.644548523E-4
2.195355575E0,7.635590737E-5,-6.108472589E-4,-1.527118147E-4,6.342598022E-4
2.197781409E0,7.635590737E-5,1.221694518E-3,4.581354442E-4,1.307002603E-3
2.200207294E0,-1.145338640E-3,6.108472589E-4,4.581354442E-4,1.376525720E-3
2.202633127E0,-1.145338640E-3,-6.108472589E-4,1.068982761E-3,1.681564485E-3
2.205058961E0,-5.344913807E-4,0.000000000E0,4.581354442E-4,7.039667046E-4
2.207484794E0,-5.344913807E-4,-6.108472589E-4,1.068982761E-3,1.342214422E-3
2.209910627E0,-1.145338640E-3,-1.221694518E-3,1.068982761E-3,1.986721480E-3
2.212336461E0,6.872031372E-4,0.000000000E0,-1.527118147E-4,7.039666541E-4
2.214762294E0,7.635590737E-5,0.000000000E0,4.581354442E-4,4.644548523E-4
2.217188127E0,7.635590737E-5,-6.108472589E-4,4.581354442E-4,7.673673720E-4
2.219613961E0,1.908897655E-3,-6.108472589E-4,-1.527118147E-4,2.010061076E-3
2.222039846E0,1.908897655E-3,-1.221694518E-3,4.581354442E-4,2.312210163E-3
2.224465679E0,1.298050396E-3,0.000000000E0,-1.527118147E-4,1.307002574E-3
2.226891513E0,7.635590737E-5,0.000000000E0,4.581354442E-4,4.644548523E-4
2.229317346E0,-5.344913807E-4,-6.108472589E-4,-1.527118147E-4,8.259154364E-4
2.231743179E0,7.635590737E-5,6.108472589E-4,-7.635590737E-5,6.203183239E-4
2.234169013E0,7.635590737E-5,0.000000000E0,-6.872031372E-4,6.914321199E-4
2.236594846E0,1.298050396E-3,0.000000000E0,-7.635590737E-5,1.300294219E-3
2.239020679E0,6.872031372E-4,7.635590737E-5,-7.635590737E-5,6.956353937E-4
2.241446565E0,6.872031372E-4,7.635590737E-5,-7.635590737E-5,6.956353937E-4
2.243872398E0,-5.344913807E-4,6.872031372E-4,-7.635590737E-5,8.739332997E-4
2.246298232E0,6.872031372E-4,6.872031372E-4,5.344913807E-4,1.109133599E-3
2.248724065E0,-5.344913807E-4,6.872031372E-4,-7.635590737E-5,8.739332997E-4
2.251149898E0,-1.145338640E-3,6.872031372E-4,-1.298050396E-3,1.862520760E-3
2.253575732E0,6.872031372E-4,7.635590737E-5,-7.635590737E-5,6.956353937E-4
2.256001565E0,-5.344913807E-4,-5.344913807E-4,-7.635590737E-5,7.597317267E-4
2.258427398E0,-5.344913807E-4,7.635590737E-5,-6.872031372E-4,8.739332997E-4
2.260853232E0,7.635590737E-5,7.635590737E-5,-7.635590737E-5,1.322523110E-4
2.263279065E0,-1.145338640E-3,-1.145338640E-3,-1.908897655E-3,2.503495847E-3
2.265704898E0,7.635590737E-5,-5.344913807E-4,-6.872031372E-4,8.739332997E-4
2.268130784E0,-5.344913807E-4,-1.145338640E-3,-7.635590737E-5,1.266219515E-3
2.270556617E0,-5.344913807E-4,6.872031372E-4,-7.635590737E-5,8.739332997E-4
2.272982450E0,-1.145338640E-3,6.872031372E-4,-7.635590737E-5,1.337863586E-3
2.275408284E0,6.872031372E-4,-5.344913807E-4,-6.872031372E-4,1.109133599E-3
2.277834117E0,1.298050396E-3,7.635590737E-5,-1.298050396E-3,1.837307782E-3
2.280259950E0,6.872031372E-4,-1.145338640E-3,-1.908897655E-3,2.329793770E-3
2.282685784E0,1.908897655E-3,-2.367033157E-3,-6.872031372E-4,3.117528569E-3
2.285111617E0,-5.344913807E-4,7.635590737E-5,5.344913807E-4,7.597317267E-4
2.287537502E0,-1.145338640E-3,-5.344913807E-4,-7.635590737E-5,1.266219515E-3
2.289963336E0,-5.344913807E-4,-5.344913807E-4,-7.635590737E-5,7.597317267E-4
2.292389169E0,-2.367033157E-3,6.872031372E-4,-7.635590737E-5,2.465953030E-3
2.294815002E0,-5.344913807E-4,1.908897655E-3,-7.635590737E-5,1.983784645E-3
2.297240836E0,7.635590737E-5,6.872031372E-4,5.344913807E-4,8.739332997E-4
2.299666669E0,-5.344913807E-4,7.635590737E-5,1.145338640E-3,1.266219515E-3
2.302092502E0,-5.344913807E-4,-5.344913807E-4,5.344913807E-4,9.257662275E-4
2.304518336E0,6.872031372E-4,-1.145338640E-3,5.344913807E-4,1.438655548E-3
2.306944169E0,-5.344913807E-4,-1.145338640E-3,-7.635590737E-5,1.266219515E-3
2.309370002E0,6.872031372E-4,-5.344913807E-4,-7.635590737E-5,8.739332997E-4
2.311795888E0,1.298050396E-3,7.635590737E-5,-6.872031372E-4,1.470718602E-3
2.314221721E0,7.635590737E-5,-5.344913807E-4,-6.872031372E-4,8.739332997E-4
2.316647554E0,7.635590737E-5,7.635590737E-5,-1.298050396E-3,1.302534176E-3
2.319073388E0,6.872031372E-4,1.298050396E-3,-7.635590737E-5,1.470718602E-3
2.321499221E0,7.635590737E-5,6.872031372E-4,-6.872031372E-4,9.748469255E-4
2.323925054E0,-5.344913807E-4,6.872031372E-4,-7.635590737E-5,8.739332997E-4
2.326350888E0,7.635590737E-5,6.872031372E-4,1.145338640E-3,1.337863586E-3
2.328776721E0,7.635590737E-5,6.872031372E-4,-7.635590737E-5,6.956353937E-4
2.331202607E0,-5.344913807E-4,6.872031372E-4,-6.872031372E-4,1.109133599E-3
2.333628440E0,7.635590737E-5,7.635590737E-5,1.145338640E-3,1.150417771E-3
2.336054273E0,1.298050396E-3,-5.344913807E-4,-7.635590737E-5,1.405861334E-3
2.338480107E0,7.635590737E-5,1.298050396E-3,-7.635590737E-5,1.302534176E-3
2.340905940E0,6.872031372E-4,7.635590737E-5,-6.872031372E-4,9.748469255E-4
2.343331773E0,7.635590737E-5,1.908897655E-3,5.344913807E-4,1.983784645E-3
2.345757607E0,7.635590737E-5,7.635590737E-5,-7.635590737E-5,1.322523110E-4
2.348183440E0,6.872031372E-4,-1.145338640E-3,1.145338640E-3,1.759502586E-3
2.350609273E0,7.635590737E-5,6.872031372E-4,-6.872031372E-4,9.748469255E-4
2.353035159E0,7.635590737E-5,-5.344913807E-4,-7.635590737E-5,5.452902761E-4
2.355460992E0,-1.145338640E-3,-5.344913807E-4,-6.872031372E-4,1.438655548E-3
2.357886825E0,7.635590737E-5,-1.145338640E-3,5.344913807E-4,1.266219515E-3
2.360312659E0,1.298050396E-3,-5.344913807E-4,-7.635590737E-5,1.405861334E-3
2.362738492E0,-5.344913807E-4,7.635590737E-5,-6.872031372E-4,8.739332997E-4
2.365164325E0,7.635590737E-5,7.635590737E-5,-7.635590737E-5,1.322523110E-4
2.367590159E0,6.872031372E-4,6.872031372E-4,-7.635590737E-5,9.748469255E-4
2.370015992E0,-5.344913807E-4,-5.344913807E-4,-7.635590737E-5,7.597317267E-4
2.372441825E0,-5.344913807E-4,-1.145338640E-3,5.344913807E-4,1.372283743E-3
2.374867711E0,-5.344913807E-4,-5.344913807E-4,-7.635590737E-5,7.597317267E-4
2.377293544E0,7.635590737E-5,-5.344913807E-4,-6.872031372E-4,8.739332997E-4
2.379719377E0,6.872031372E-4,-5.344913807E-4,-7.635590737E-5,8.739332997E-4
2.382145211E0,7.635590737E-5,6.872031372E-4,1.145338640E-3,1.337863586E-3
2.384571044E0,7.635590737E-5,6.872031372E-4,-1.298050396E-3,1.470718602E-3
2.386996877E0,-1.145338640E-3,-5.344913807E-4,1.145338640E-3,1.705661817E-3
2.389422711E0,-5.344913807E-4,-5.344913807E-4,-7.635590737E-5,7.597317267E-4
2.391848544E0,-5.344913807E-4,-1.145338640E-3,-7.635590737E-5,1.266219515E-3
2.394274377E0,6.872031372E-4,7.635590737E-5,-7.635590737E-5,6.956353937E-4
2.396700263E0,6.872031372E-4,-1.145338640E-3,5.344913807E-4,1.438655548E-3
2.399126096E0,6.872031372E-4,-1.145338640E-3,-7.635590737E-5,1.337863586E-3
2.401551929E0,-1.145338640E-3,-1.145338640E-3,-7.635590737E-5,1.621552165E-3
2.403977763E0,7.635590737E-5,7.635590737E-5,5.344913807E-4,5.452902761E-4
2.406403596E0,7.635590737E-5,-5.344913807E-4,5.344913807E-4,7.597317267E-4
2.408829429E0,6.872031372E-4,-5.344913807E-4,1.145338640E-3,1.438655548E-3
2.411255263E0,6.872031372E-4,-5.344913807E-4,-6.872031372E-4,1.109133599E-3
2.413681096E0,1.298050396E-3,7.635590737E-5,-7.635590737E-5,1.302534176E-3
2.416106929E0,7.635590737E-5,-5.344913807E-4,5.344913807E-4,7.597317267E-4
2.418532815E0,-5.344913807E-4,7.635590737E-5,-6.872031372E-4,8.739332997E-4
2.420958648E0,1.298050396E-3,-1.145338640E-3,5.344913807E-4,1.811744040E-3
2.423384482E0,-1.756185899E-3,7.635590737E-5,5.344913807E-4,1.837307860E-3
2.425810315E0,-5.344913807E-4,1.298050396E-3,-7.635590737E-5,1.405861334E-3
2.428236148E0,7.635590737E-5,-5.344913807E-4,-6.872031372E-4,8.739332997E-4
2.430661982E0,1.298050396E-3,7.635590737E-5,6.108472589E-4,1.436627798E-3
2.433087815E0,7.635590737E-5,1.527118147E-4,-1.221694518E-3,1.233567436E-3
2.435513648E0,6.872031372E-4,-4.581354442E-4,-0.000000000E0,8.259153934E-4
2.437939482E0,6.872031372E-4,7.635590737E-4,-6.108472589E-4,1.195158979E-3
2.440365367E0,6.872031372E-4,7.635590737E-4,-0.000000000E0,1.027263652E-3
2.442791200E0,-5.344913807E-4,1.527118147E-4,-0.000000000E0,5.558794243E-4
2.445217034E0,6.872031372E-4,-4.581354442E-4,1.221694518E-3,1.474677501E-3
2.447642867E0,1.298050396E-3,-4.581354442E-4,1.221694518E-3,1.840478310E-3
2.450068700E0,6.872031372E-4,1.527118147E-4,6.108472589E-4,9.320426084E-4
2.452494534E0,6.872031372E-4,-4.581354442E-4,-0.000000000E0,8.259153934E-4
2.454920367E0,-5.344913807E-4,-1.068982761E-3,-0.000000000E0,1.195159061E-3
2.457346200E0,6.872031372E-4,-4.581354442E-4,-0.000000000E0,8.259153934E-4
2.459772034E0,-1.756185899E-3,1.527118147E-4,-6.108472589E-4,1.865648462E-3
2.462197919E0,-5.344913807E-4,-4.581354442E-4,1.221694518E-3,1.410002346E-3
2.464623752E0,-5.344913807E-4,1.527118147E-4,-0.000000000E0,5.558794243E-4
2.467049586E0,-1.145338640E-3,-1.068982761E-3,6.108472589E-4,1.681564485E-3
2.469475419E0,1.298050396E-3,-1.679830020E-3,-0.000000000E0,2.122913971E-3
2.471901252E0,6.872031372E-4,7.635590737E-4,-1.221694518E-3,1.596185486E-3
2.474327086E0,7.635590737E-5,1.527118147E-4,-0.000000000E0,1.707369994E-4
2.476752919E0,6.872031372E-4,-1.068982761E-3,-1.221694518E-3,1.762813033E-3
2.479178752E0,1.298050396E-3,-4.581354442E-4,-6.108472589E-4,1.505973868E-3
2.481604586E0,6.872031372E-4,-1.068982761E-3,-1.221694518E-3,1.762813033E-3
2.484030471E0,7.635590737E-5,-1.068982761E-3,-1.832541777E-3,2.122913972E-3
2.486456304E0,-5.344913807E-4,1.527118147E-4,-0.000000000E0,5.558794243E-4
2.488882138E0,6.872031372E-4,-4.581354442E-4,1.221694518E-3,1.474677501E-3
2.491307971E0,-1.145338640E-3,-4.581354442E-4,1.832541777E-3,2.209049128E-3
2.493733804E0,-5.344913807E-4,1.374406274E-3,-6.108472589E-4,1.596185458E-3
2.496159638E0,-5.344913807E-4,1.527118147E-4,-6.108472589E-4,8.259154364E-4
2.498585471E0,-5.344913807E-4,-4.581354442E-4,-1.221694518E-3,1.410002346E-3
2.501011304E0,6.872031372E-4,-1.068982761E-3,-0.000000000E0,1.270815603E-3
2.503437138E0,6.872031372E-4,-1.068982761E-3,-0.000000000E0,1.270815603E-3
2.505863023E0,7.635590737E-5,-1.068982761E-3,6.108472589E-4,1.233567486E-3
2.508288857E0,6.872031372E-4,-4.581354442E-4,6.108472589E-4,1.027263652E-3
2.510714690E0,-5.344913807E-4,-4.581354442E-4,-0.000000000E0,7.039667046E-4
2.513140523E0,1.908897655E-3,1.527118147E-4,-1.221694518E-3,2.271508013E-3
2.515566357E0,-1.145338640E-3,1.527118147E-4,-1.221694518E-3,1.681564448E-3
2.517992190E0,7.635590737E-5,-1.068982761E-3,-0.000000000E0,1.071706288E-3
2.520418023E0,7.635590737E-5,1.527118147E-4,1.221694518E-3,1.233567436E-3
2.522843857E0,-5.344913807E-4,-4.581354442E-4,6.108472589E-4,9.320426466E-4
2.525269742E0,-1.145338640E-3,7.635590737E-4,6.108472589E-4,1.505973915E-3
2.527695575E0,-1.145338640E-3,1.374406274E-3,1.221694518E-3,2.166409634E-3
2.530121409E0,6.872031372E-4,7.635590737E-4,-0.000000000E0,1.027263652E-3
2.532547242E0,-5.344913807E-4,1.985253533E-3,1.221694518E-3,2.391537188E-3
2.534973075E0,-1.145338640E-3,1.527118147E-4,6.108472589E-4,1.307002629E-3
2.537398909E0,6.872031372E-4,-4.581354442E-4,-6.108472589E-4,1.027263652E-3
2.539824742E0,7.635590737E-5,1.527118147E-4,-6.108472589E-4,6.342598022E-4
2.542250575E0,7.635590737E-5,1.527118147E-4,-6.108472589E-4,6.342598022E-4
2.544676409E0,-1.221694518E-3,2.290677221E-4,-0.000000000E0,1.242984117E-3
2.547102294E0,-1.832541777E-3,1.450762269E-3,1.221694518E-3,2.637320235E-3
2.549528127E0,1.832541777E-3,8.399150101E-4,6.108472589E-4,2.106371516E-3
2.551953961E0,1.221694518E-3,-3.817795368E-4,-0.000000000E0,1.279958245E-3
2.554379794E0,-6.108472589E-4,2.290677221E-4,6.108472589E-4,8.937229821E-4
2.556805627E0,0.000000000E0,2.290677221E-4,-6.108472589E-4,6.523851585E-4
2.559231461E0,1.221694518E-3,-9.926267667E-4,-0.000000000E0,1.574117338E-3
2.561657294E0,1.221694518E-3,-9.926267667E-4,6.108472589E-4,1.688484459E-3
2.564083127E0,6.108472589E-4,8.399150101E-4,6.108472589E-4,1.204875916E-3
2.566508961E0,6.108472589E-4,2.290677221E-4,6.108472589E-4,8.937229821E-4
2.568934846E0,6.108472589E-4,8.399150101E-4,-0.000000000E0,1.038552646E-3
2.571360679E0,0.000000000E0,2.290677221E-4,-0.000000000E0,2.290677221E-4
2.573786513E0,1.221694518E-3,-3.817795368E-4,-6.108472589E-4,1.418248033E-3
2.576212346E0,0.000000000E0,-3.817795368E-4,6.108472589E-4,7.203401894E-4
2.578638179E0,-1.221694518E-3,-3.817795368E-4,-6.108472589E-4,1.418248033E-3
2.581064013E0,-1.221694518E-3,-9.926267667E-4,-0.000000000E0,1.574117338E-3
2.583489846E0,-6.108472589E-4,-3.817795368E-4,1.221694518E-3,1.418248033E-3
2.585915679E0,0.000000000E0,2.290677221E-4,-0.000000000E0,2.290677221E-4
2.588341513E0,-6.108472589E-4,2.290677221E-4,-0.000000000E0,6.523851585E-4
2.590767346E0,0.000000000E0,8.399150101E-4,6.108472589E-4,1.038552646E-3
2.593193232E0,6.108472589E-4,8.399150101E-4,6.108472589E-4,1.204875916E-3
2.595619065E0,0.000000000E0,8.399150101E-4,6.108472589E-4,1.038552646E-3
2.598044898E0,-6.108472589E-4,-3.817795368E-4,6.108472589E-4,9.444704136E-4
2.600470732E0,-6.108472589E-4,2.061609412E-3,-6.108472589E-4,2.235285689E-3
2.602896565E0,-6.108472589E-4,8.399150101E-4,1.221694518E-3,1.603474070E-3
2.605322398E0,-1.832541777E-3,2.290677221E-4,6.108472589E-4,1.945203269E-3
2.607748232E0,6.108472589E-4,-3.817795368E-4,6.108472589E-4,9.444704136E-4
2.610174065E0,1.221694518E-3,8.399150101E-4,1.221694518E-3,1.921075796E-3
2.612599898E0,1.221694518E-3,8.399150101E-4,-0.000000000E0,1.482563563E-3
2.615025784E0,-1.221694518E-3,-9.926267667E-4,-0.000000000E0,1.574117338E-3
2.617451617E0,0.000000000E0,-3.817795368E-4,-6.108472589E-4,7.203401894E-4
2.619877450E0,6.108472589E-4,-9.926267667E-4,1.221694518E-3,1.688484459E-3
2.622303284E0,6.108472589E-4,2.290677221E-4,1.221694518E-3,1.384970718E-3
2.624729117E0,0.000000000E0,2.290677221E-4,1.221694518E-3,1.242984117E-3
2.627154950E0,-6.108472589E-4,-3.817795368E-4,-0.000000000E0,7.203401894E-4
2.629580784E0,0.000000000E0,2.061609412E-3,-6.108472589E-4,2.150201790E-3
2.632006617E0,6.108472589E-4,-9.926267667E-4,-1.221694518E-3,1.688484459E-3
2.634432502E0,0.000000000E0,-3.817795368E-4,-1.832541777E-3,1.871888079E-3
2.636858336E0,0.000000000E0,-9.926267667E-4,-6.108472589E-4,1.165522317E-3
2.639284169E0,0.000000000E0,2.290677221E-4,6.108472589E-4,6.523851585E-4
2.641710002E0,0.000000000E0,8.399150101E-4,-6.108472589E-4,1.038552646E-3
2.644135836E0,1.221694518E-3,-9.926267667E-4,-1.221694518E-3,1.992581965E-3
2.646561669E0,-6.108472589E-4,-3.817795368E-4,-0.000000000E0,7.203401894E-4
2.648987502E0,0.000000000E0,2.290677221E-4,-0.000000000E0,2.290677221E-4
2.651413336E0,6.108472589E-4,-9.926267667E-4,1.145338640E-3,1.634087779E-3
2.653839169E0,-6.108472589E-4,-9.926267667E-4,-7.635590737E-5,1.168020760E-3
2.656265054E0,-6.108472589E-4,-3.817795368E-4,-7.635590737E-5,7.243757403E-4
2.658690888E0,-1.221694518E-3,-3.817795368E-4,-7.635590737E-5,1.282233728E-3
2.661116721E0,-6.108472589E-4,-1.603474026E-3,-7.635590737E-5,1.717583637E-3
2.663542554E0,0.000000000E0,-9.926267667E-4,-7.635590737E-5,9.955592009E-4
2.665968388E0,-6.108472589E-4,-3.817795368E-4,5.344913807E-4,8.969788317E-4
2.668394221E0,-6.108472589E-4,1.450762269E-3,5.344913807E-4,1.662385807E-3
2.670820054E0,0.000000000E0,-3.817795368E-4,5.344913807E-4,6.568383749E-4
2.673245888E0,0.000000000E0,-9.926267667E-4,-7.635590737E-5,9.955592009E-4
2.675671721E0,6.108472589E-4,2.290677221E-4,-7.635590737E-5,6.568383512E-4
2.678097607E0,6.108472589E-4,-9.926267667E-4,-7.635590737E-5,1.168020760E-3
2.680523440E0,0.000000000E0,-9.926267667E-4,-6.872031372E-4,1.207292860E-3
2.682949273E0,-6.108472589E-4,8.399150101E-4,-7.635590737E-5,1.041355762E-3
2.685375107E0,0.000000000E0,2.290677221E-4,-6.872031372E-4,7.243757127E-4
2.687800940E0,-6.108472589E-4,-3.817795368E-4,-7.635590737E-5,7.243757403E-4
2.690226773E0,0.000000000E0,-3.817795368E-4,5.344913807E-4,6.568383749E-4
2.692652607E0,6.108472589E-4,8.399150101E-4,-6.872031372E-4,1.245327166E-3
2.695078440E0,6.108472589E-4,1.450762269E-3,-1.298050396E-3,2.040289285E-3
2.697504273E0,6.108472589E-4,2.290677221E-4,5.344913807E-4,8.433785811E-4
2.699930107E0,1.221694518E-3,2.290677221E-4,1.145338640E-3,1.690210080E-3
2.702355992E0,-1.221694518E-3,8.399150101E-4,1.145338640E-3,1.873444773E-3
2.704781825E0,-1.221694518E-3,2.290677221E-4,5.344913807E-4,1.353030137E-3
2.707207659E0,-6.108472589E-4,2.290677221E-4,5.344913807E-4,8.433785811E-4
2.709633492E0,0.000000000E0,8.399150101E-4,-1.298050396E-3,1.546089278E-3
2.712059325E0,6.108472589E-4,8.399150101E-4,-7.635590737E-5,1.041355762E-3
2.714485159E0,-6.108472589E-4,-3.817795368E-4,-6.872031372E-4,9.955592098E-4
2.716910992E0,-6.108472589E-4,2.290677221E-4,-7.635590737E-5,6.568383512E-4
2.719336877E0,-6.108472589E-4,8.399150101E-4,-7.635590737E-5,1.041355762E-3
2.721762711E0,6.108472589E-4,-9.926267667E-4,-6.872031372E-4,1.353030090E-3
2.724188544E0,0.000000000E0,2.290677221E-4,-7.635590737E-5,2.414585801E-4
2.726614377E0,6.108472589E-4,-3.817795368E-4,-6.872031372E-4,9.955592098E-4
2.729040211E0,-6.108472589E-4,-3.817795368E-4,-1.298050396E-3,1.484528484E-3
2.731466044E0,-6.108472589E-4,-9.926267667E-4,-7.635590737E-5,1.168020760E-3
2.733891877E0,0.000000000E0,8.399150101E-4,-7.635590737E-5,8.433785917E-4
2.736317711E0,-1.221694518E-3,8.399150101E-4,-7.635590737E-5,1.484528526E-3
2.738743544E0,1.221694518E-3,8.399150101E-4,-6.872031372E-4,1.634087779E-3
2.741169429E0,0.000000000E0,2.290677221E-4,-6.872031372E-4,7.243757127E-4
2.743595263E0,-6.108472589E-4,-3.817795368E-4,-6.872031372E-4,9.955592098E-4
2.746021096E0,0.000000000E0,-3.817795368E-4,-7.635590737E-5,3.893402616E-4
2.748446929E0,6.108472589E-4,-3.817795368E-4,5.344913807E-4,8.969788317E-4
2.750872763E0,0.000000000E0,8.399150101E-4,-6.872031372E-4,1.085221349E-3
2.753298596E0,1.221694518E-3,-3.817795368E-4,-7.635590737E-5,1.282233728E-3
2.755724429E0,0.000000000E0,2.290677221E-4,-7.635590737E-5,2.414585801E-4
2.758150263E0,-1.221694518E-3,8.399150101E-4,5.344913807E-4,1.575968196E-3
2.760576096E0,1.221694518E-3,2.290677221E-4,-7.635590737E-5,1.245327162E-3
2.763001982E0,1.221694518E-3,-9.926267667E-4,-7.635590737E-5,1.575968152E-3
2.765427815E0,0.000000000E0,1.450762269E-3,-6.872031372E-4,1.605291037E-3
2.767853648E0,0.000000000E0,8.399150101E-4,1.145338640E-3,1.420302018E-3
2.770279482E0,-1.221694518E-3,8.399150101E-4,5.344913807E-4,1.575968196E-3
2.772705315E0,1.221694518E-3,2.290677221E-4,-7.635590737E-5,1.245327162E-3
2.775131148E0,1.221694518E-3,2.290677221E-4,-7.635590737E-5,1.245327162E-3
2.777556982E0,6.108472589E-4,1.450762269E-3,-1.298050396E-3,2.040289285E-3
2.779982815E0,-6.108472589E-4,1.450762269E-3,-6.872031372E-4,1.717583677E-3
2.782408648E0,-6.108472589E-4,8.399150101E-4,-6.872031372E-4,1.245327166E-3
2.784834482E0,6.108472589E-4,-3.817795368E-4,-7.635590737E-5,7.243757403E-4
2.787260367E0,-6.108472589E-4,-9.926267667E-4,1.145338640E-3,1.634087779E-3
2.789686200E0,-6.108472589E-4,2.290677221E-4,-7.635590737E-5,6.568383512E-4
2.792112034E0,0.000000000E0,2.290677221E-4,5.344913807E-4,5.815092926E-4
2.794537867E0,0.000000000E0,-3.817795368E-4,-7.635590737E-5,3.893402616E-4
2.796963700E0,1.221694518E-3,8.399150101E-4,5.344913807E-4,1.575968196E-3
2.799389534E0,0.000000000E0,8.399150101E-4,-7.635590737E-5,8.433785917E-4
2.801815367E0,-1.221694518E-3,1.450762269E-3,5.344913807E-4,1.970515083E-3
2.804241200E0,-6.108472589E-4,-9.926267667E-4,-6.872031372E-4,1.353030090E-3
2.806667034E0,6.108472589E-4,-3.817795368E-4,-7.635590737E-5,7.243757403E-4
2.809092919E0,-1.832541777E-3,-3.817795368E-4,-7.635590737E-5,1.873444742E-3
2.811518752E0,6.108472589E-4,-3.817795368E-4,-6.872031372E-4,9.955592098E-4
2.813944586E0,6.108472589E-4,2.290677221E-4,-7.635590737E-5,6.568383512E-4
2.816370419E0,6.108472589E-4,2.290677221E-4,-7.635590737E-5,6.568383512E-4
2.818796252E0,6.108472589E-4,2.290677221E-4,-6.872031372E-4,9.475518703E-4
2.821222086E0,-6.108472589E-4,8.399150101E-4,-7.635590737E-5,1.041355762E-3
2.823647919E0,0.000000000E0,2.290677221E-4,5.344913807E-4,5.815092926E-4
2.826073752E0,0.000000000E0,2.290677221E-4,5.344913807E-4,5.815092926E-4
2.828499586E0,-6.108472589E-4,8.399150101E-4,-7.635590737E-5,1.041355762E-3
2.830925471E0,-6.108472589E-4,2.290677221E-4,-7.635590737E-5,6.568383512E-4
2.833351304E0,-6.108472589E-4,-3.817795368E-4,-1.908897655E-3,2.040289255E-3
2.835777138E0,-1.832541777E-3,1.450762269E-3,-7.635590737E-5,2.338536027E-3
2.838202971E0,-6.108472589E-4,2.290677221E-4,5.344913807E-4,8.433785811E-4
2.840628804E0,-6.108472589E-4,1.450762269E-3,-6.872031372E-4,1.717583677E-3
2.843054638E0,-6.108472589E-4,8.399150101E-4,-7.635590737E-5,1.041355762E-3
2.845480471E0,0.000000000E0,2.290677221E-4,5.344913807E-4,5.815092926E-4
2.847906304E0,0.000000000E0,-3.817795368E-4,-6.872031372E-4,7.861321559E-4
2.850332190E0,6.108472589E-4,2.290677221E-4,5.344913807E-4,8.433785811E-4
2.852758023E0,-6.108472589E-4,-9.926267667E-4,5.344913807E-4,1.282233718E-3
2.855183857E0,0.000000000E0,2.290677221E-4,-6.872031372E-4,7.243757127E-4
2.857609690E0,0.000000000E0,8.399150101E-4,-1.298050396E-3,1.546089278E-3
2.860035523E0,-1.221694518E-3,-3.817795368E-4,5.344913807E-4,1.387073951E-3
2.862461357E0,0.000000000E0,-9.926267667E-4,-7.635590737E-5,9.955592009E-4
2.864887190E0,6.108472589E-4,-3.817795368E-4,-6.872031372E-4,9.955592098E-4
2.867313023E0,6.108472589E-4,2.290677221E-4,5.344913807E-4,8.433785811E-4
2.869738857E0,1.221694518E-3,-3.817795368E-4,-6.872031372E-4,1.452770203E-3
2.872164742E0,-6.108472589E-4,2.290677221E-4,-7.635590737E-5,6.568383512E-4
2.874590575E0,6.108472589E-4,-3.817795368E-4,-1.298050396E-3,1.484528484E-3
2.877016409E0,-1.221694518E-3,8.399150101E-4,-6.872031372E-4,1.634087779E-3
2.879442242E0,0.000000000E0,1.527118147E-4,-1.298050396E-3,1.307002574E-3
2.881868075E0,-1.221694518E-3,-4.581354442E-4,-6.872031372E-4,1.474677501E-3
2.884293909E0,-1.221694518E-3,7.635590737E-4,6.108472589E-4,1.564830447E-3
2.886719742E0,-6.108472589E-4,1.374406274E-3,6.108472589E-4,1.623348809E-3
2.889145575E0,-6.108472589E-4,1.527118147E-4,1.832541777E-3,1.937695703E-3
2.891571409E0,6.108472589E-4,-4.581354442E-4,6.108472589E-4,9.778327223E-4
2.893997294E0,-6.108472589E-4,-1.068982761E-3,6.108472589E-4,1.374406378E-3
2.896423127E0,1.832541777E-3,-4.581354442E-4,-0.000000000E0,1.888940827E-3
2.898848961E0,6.108472589E-4,-4.581354442E-4,1.221694518E-3,1.440680379E-3
2.901274794E0,-6.108472589E-4,-1.068982761E-3,1.832541777E-3,2.207729123E-3
2.903700627E0,-6.108472589E-4,-4.581354442E-4,6.108472589E-4,9.778327223E-4
2.906126461E0,-1.221694518E-3,-4.581354442E-4,-0.000000000E0,1.304770317E-3
2.908552294E0,6.108472589E-4,1.527118147E-4,1.221694518E-3,1.374406333E-3
2.910978127E0,6.108472589E-4,1.527118147E-4,-1.221694518E-3,1.374406333E-3
2.913403961E0,0.000000000E0,7.635590737E-4,6.108472589E-4,9.778327223E-4
2.915829846E0,-6.108472589E-4,1.527118147E-4,-6.108472589E-4,8.772625866E-4
2.918255679E0,-6.108472589E-4,1.527118147E-4,-1.221694518E-3,1.374406333E-3
2.920681513E0,-1.221694518E-3,1.527118147E-4,-1.221694518E-3,1.734472798E-3
2.923107346E0,0.000000000E0,1.374406274E-3,-0.000000000E0,1.374406274E-3
2.925533179E0,-1.221694518E-3,1.527118147E-4,6.108472589E-4,1.374406333E-3
2.927959013E0,-6.108472589E-4,-4.581354442E-4,-0.000000000E0,7.635590737E-4
2.930384846E0,-6.108472589E-4,1.374406274E-3,-0.000000000E0,1.504036895E-3
2.932810732E0,7.635590737E-5,1.527118147E-4,6.108472589E-4,6.342598022E-4
2.935236565E0,-5.344913807E-4,7.635590737E-4,-0.000000000E0,9.320426466E-4
2.937662398E0,-1.145338640E-3,7.635590737E-4,-6.108472589E-4,1.505973915E-3
2.940088232E0,7.635590737E-5,1.527118147E-4,6.108472589E-4,6.342598022E-4
2.942514065E0,6.872031372E-4,-4.581354442E-4,1.221694518E-3,1.474677501E-3
2.944939898E0,-5.344913807E-4,-4.581354442E-4,6.108472589E-4,9.320426466E-4
2.947365732E0,-1.756185899E-3,-4.581354442E-4,-0.000000000E0,1.814959227E-3
2.949791565E0,7.635590737E-5,-4.581354442E-4,-0.000000000E0,4.644548523E-4
2.952217398E0,6.872031372E-4,-4.581354442E-4,6.108472589E-4,1.027263652E-3
2.954643232E0,6.872031372E-4,1.527118147E-4,1.221694518E-3,1.410002321E-3
2.957069065E0,7.635590737E-5,1.527118147E-4,-0.000000000E0,1.707369994E-4
2.959494950E0,-1.145338640E-3,-1.068982761E-3,6.108472589E-4,1.681564485E-3
2.961920784E0,-2.367033157E-3,-4.581354442E-4,6.108472589E-4,2.487140613E-3
2.964346617E0,-1.145338640E-3,1.374406274E-3,6.108472589E-4,1.890483425E-3
2.966772450E0,7.635590737E-5,1.527118147E-4,-0.000000000E0,1.707369994E-4
2.969198284E0,-1.145338640E-3,-4.581354442E-4,-6.108472589E-4,1.376525720E-3
2.971624117E0,-5.344913807E-4,-4.581354442E-4,6.108472589E-4,9.320426466E-4
2.974049950E0,1.298050396E-3,1.527118147E-4,-6.108472589E-4,1.442702361E-3
2.976475784E0,6.872031372E-4,1.527118147E-4,-1.221694518E-3,1.410002321E-3
2.978901669E0,-5.344913807E-4,-4.581354442E-4,-0.000000000E0,7.039667046E-4
2.981327502E0,7.635590737E-5,1.527118147E-4,-6.108472589E-4,6.342598022E-4
2.983753336E0,-2.367033157E-3,1.374406274E-3,-6.108472589E-4,2.804455910E-3
2.986179169E0,-1.145338640E-3,-4.581354442E-4,6.108472589E-4,1.376525720E-3
2.988605002E0,6.872031372E-4,-1.068982761E-3,-6.108472589E-4,1.410002365E-3
2.991030836E0,7.635590737E-5,-4.581354442E-4,6.108472589E-4,7.673673720E-4
2.993456669E0,6.872031372E-4,-4.581354442E-4,6.108472589E-4,1.027263652E-3
2.995882502E0,-5.344913807E-4,1.527118147E-4,6.108472589E-4,8.259154364E-4
2.998308336E0,-1.145338640E-3,-4.581354442E-4,-6.108472589E-4,1.376525720E-3
3.000734221E0,1.298050396E-3,-4.581354442E-4,6.108472589E-4,1.505973868E-3
3.003160054E0,7.635590737E-5,7.635590737E-4,1.221694518E-3,1.442702387E-3
3.005585888E0,7.635590737E-5,1.527118147E-4,1.221694518E-3,1.233567436E-3
3.008011721E0,6.872031372E-4,7.635590737E-4,6.108472589E-4,1.195158979E-3
3.010437554E0,6.872031372E-4,1.527118147E-4,-6.108472589E-4,9.320426084E-4
3.012863388E0,6.872031372E-4,1.527118147E-4,-0.000000000E0,7.039666541E-4
3.015289221E0,-5.344913807E-4,1.527118147E-4,1.221694518E-3,1.342214375E-3
3.017715054E0,1.298050396E-3,-4.581354442E-4,-0.000000000E0,1.376525669E-3
3.020140888E0,6.872031372E-4,1.374406274E-3,-0.000000000E0,1.536632929E-3
3.022566773E0,-5.344913807E-4,1.527118147E-4,-0.000000000E0,5.558794243E-4
3.024992607E0,6.872031372E-4,-4.581354442E-4,-6.108472589E-4,1.027263652E-3
3.027418440E0,1.298050396E-3,1.527118147E-4,-1.221694518E-3,1.789076081E-3
3.029844273E0,1.298050396E-3,1.527118147E-4,-6.108472589E-4,1.442702361E-3
3.032270107E0,7.635590737E-5,1.527118147E-4,6.108472589E-4,6.342598022E-4
3.034695940E0,6.872031372E-4,-4.581354442E-4,-6.108472589E-4,1.027263652E-3
3.037121773E0,-1.145338640E-3,-4.581354442E-4,-0.000000000E0,1.233567463E-3
3.039547607E0,1.527118147E-4,1.527118147E-4,-6.108472589E-4,6.479013586E-4
3.041973440E0,-4.581354442E-4,1.527118147E-4,-0.000000000E0,4.829171602E-4
3.044399325E0,1.527118147E-4,1.374406274E-3,-0.000000000E0,1.382864240E-3
3.046825159E0,1.527118147E-4,-4.581354442E-4,6.108472589E-4,7.786805233E-4
3.049250992E0,-4.581354442E-4,1.527118147E-4,-6.108472589E-4,7.786805233E-4
3.051676825E0,-4.581354442E-4,-4.581354442E-4,-0.000000000E0,6.479013586E-4
3.054102659E0,1.527118147E-4,-4.581354442E-4,1.221694518E-3,1.313676702E-3
3.056528492E0,1.374406274E-3,1.527118147E-4,1.221694518E-3,1.845223835E-3
3.058954325E0,1.985253533E-3,7.635590737E-4,-6.108472589E-4,2.213004389E-3
3.061380159E0,-1.679830020E-3,1.374406274E-3,-1.221694518E-3,2.490654332E-3
3.063806044E0,1.527118147E-4,1.527118147E-4,5.344913807E-4,5.764744858E-4
3.066231877E0,7.635590737E-4,1.527118147E-4,-6.872031372E-4,1.038552603E-3
3.068657711E0,1.374406274E-3,1.527118147E-4,-7.635590737E-5,1.384970660E-3
3.071083544E0,-4.581354442E-4,-4.581354442E-4,-7.635590737E-5,6.523851585E-4
3.073509377E0,-4.581354442E-4,1.374406274E-3,-7.635590737E-5,1.450762185E-3
3.075935211E0,-4.581354442E-4,-4.581354442E-4,-6.872031372E-4,9.444703925E-4
3.078361044E0,1.527118147E-4,1.527118147E-4,-7.635590737E-5,2.290677221E-4
3.080786877E0,1.374406274E-3,-4.581354442E-4,5.344913807E-4,1.544202619E-3
3.083212711E0,-4.581354442E-4,-1.679830020E-3,5.344913807E-4,1.821372564E-3
3.085638596E0,-4.581354442E-4,1.527118147E-4,1.145338640E-3,1.242984144E-3
3.088064429E0,-4.581354442E-4,6.872031372E-4,-6.872031372E-4,1.074422817E-3
3.090490263E0,1.527118147E-4,6.872031372E-4,1.145338640E-3,1.344384487E-3
3.092916096E0,1.527118147E-4,1.298050396E-3,5.344913807E-4,1.412068258E-3
3.095341929E0,7.635590737E-4,1.298050396E-3,5.344913807E-4,1.598010740E-3
3.097767763E0,7.635590737E-4,6.872031372E-4,-6.872031372E-4,1.235928300E-3
3.100193596E0,-1.068982761E-3,-5.344913807E-4,-7.635590737E-5,1.197595677E-3
3.102619429E0,-1.068982761E-3,-5.344913807E-4,1.756185899E-3,2.124286725E-3
3.105045263E0,-1.068982761E-3,-5.344913807E-4,-7.635590737E-5,1.197595677E-3
3.107471148E0,-4.581354442E-4,7.635590737E-5,-7.635590737E-5,4.706894246E-4
3.109896982E0,1.527118147E-4,1.298050396E-3,-1.298050396E-3,1.842061497E-3
3.112322815E0,7.635590737E-4,7.635590737E-5,5.344913807E-4,9.351650761E-4
3.114748648E0,-1.679830020E-3,-1.145338640E-3,5.344913807E-4,2.102215625E-3
3.117174482E0,-1.068982761E-3,7.635590737E-5,1.756185899E-3,2.057363186E-3
3.119600315E0,7.635590737E-4,7.635590737E-5,-6.872031372E-4,1.030097488E-3
3.122026148E0,7.635590737E-4,7.635590737E-5,-6.872031372E-4,1.030097488E-3
3.124451982E0,-4.581354442E-4,6.872031372E-4,5.344913807E-4,9.837770444E-4
3.126877815E0,1.527118147E-4,7.635590737E-5,5.344913807E-4,5.610990634E-4
3.129303700E0,1.527118147E-4,7.635590737E-5,-7.635590737E-5,1.870330119E-4
3.131729534E0,-4.581354442E-4,7.635590737E-5,5.344913807E-4,7.080955768E-4
3.134155367E0,-1.068982761E-3,-1.145338640E-3,1.145338640E-3,1.940702281E-3
3.136581200E0,-1.679830020E-3,-1.145338640E-3,-1.298050396E-3,2.412170045E-3
3.139007034E0,-4.581354442E-4,-1.145338640E-3,-6.872031372E-4,1.412068283E-3
3.141432867E0,-1.068982761E-3,7.635590737E-5,-6.872031372E-4,1.273107427E-3
3.143858700E0,-4.581354442E-4,6.872031372E-4,-7.635590737E-5,8.294374368E-4
3.146284534E0,-1.068982761E-3,-5.344913807E-4,5.344913807E-4,1.309231155E-3
3.148710367E0,-4.581354442E-4,7.635590737E-5,5.344913807E-4,7.080955768E-4
3.151136252E0,7.635590737E-4,-5.344913807E-4,5.344913807E-4,1.074422883E-3
3.153562086E0,7.635590737E-4,-1.145338640E-3,-1.298050396E-3,1.892024812E-3
3.155987919E0,-4.581354442E-4,7.635590737E-5,-7.635590737E-5,4.706894246E-4
3.158413752E0,7.635590737E-4,-5.344913807E-4,-6.872031372E-4,1.157994666E-3
3.160839586E0,-4.581354442E-4,7.635590737E-5,-7.635590737E-5,4.706894246E-4
3.163265419E0,-4.581354442E-4,-5.344913807E-4,1.145338640E-3,1.344384514E-3
3.165691252E0,1.374406274E-3,-1.145338640E-3,-7.635590737E-5,1.790704730E-3
3.168117086E0,-4.581354442E-4,1.298050396E-3,-7.635590737E-5,1.378641774E-3
3.170542919E0,-1.679830020E-3,-5.344913807E-4,-7.635590737E-5,1.764465970E-3
3.172968804E0,1.527118147E-4,-1.756185899E-3,-6.872031372E-4,1.892024831E-3
3.175394638E0,1.985253533E-3,7.635590737E-5,-7.635590737E-5,1.988188130E-3
3.177820471E0,7.635590737E-4,-5.344913807E-4,5.344913807E-4,1.074422883E-3
3.180246304E0,-1.068982761E-3,-5.344913807E-4,5.344913807E-4,1.309231155E-3
3.182672138E0,1.374406274E-3,6.872031372E-4,1.145338640E-3,1.916518030E-3
3.185097971E0,7.635590737E-4,-5.344913807E-4,-7.635590737E-5,9.351650761E-4
3.187523804E0,1.527118147E-4,-1.756185899E-3,-7.635590737E-5,1.764465934E-3
3.189949690E0,-1.068982761E-3,-1.145338640E-3,-6.872031372E-4,1.710781370E-3
3.192375471E0,-1.068982761E-3,6.872031372E-4,-7.635590737E-5,1.273107427E-3
3.194801357E0,-1.068982761E-3,-5.344913807E-4,5.344913807E-4,1.309231155E-3
3.197227190E0,-4.581354442E-4,7.635590737E-5,-6.872031372E-4,8.294374368E-4
3.199653023E0,1.527118147E-4,1.298050396E-3,-7.635590737E-5,1.309231054E-3
3.202078857E0,-1.068982761E-3,7.635590737E-5,-6.872031372E-4,1.273107427E-3
3.204504690E0,-1.679830020E-3,-1.145338640E-3,-7.635590737E-5,2.034566224E-3
3.206930523E0,1.527118147E-4,6.872031372E-4,1.145338640E-3,1.344384487E-3
3.209356357E0,-1.068982761E-3,7.635590737E-5,-6.872031372E-4,1.273107427E-3
3.211782242E0,-1.068982761E-3,-5.344913807E-4,-7.635590737E-5,1.197595677E-3
3.214208075E0,-2.290677279E-3,7.635590737E-5,1.145338640E-3,2.562193049E-3
3.216633909E0,1.374406274E-3,6.872031372E-4,-7.635590737E-5,1.538528837E-3
3.219059742E0,7.635590737E-4,7.635590737E-5,1.145338640E-3,1.378641825E-3
3.221485575E0,7.635590737E-4,7.635590737E-5,5.344913807E-4,9.351650761E-4
3.223911409E0,1.374406274E-3,1.298050396E-3,1.756185899E-3,2.580332604E-3
3.226337242E0,1.527118147E-4,6.872031372E-4,-7.635590737E-5,7.080955266E-4
3.228763075E0,-4.581354442E-4,7.635590737E-5,-7.635590737E-5,4.706894246E-4
3.231188909E0,-1.068982761E-3,7.635590737E-5,5.344913807E-4,1.197595677E-3
3.233614742E0,-4.581354442E-4,-5.344913807E-4,-7.635590737E-5,7.080955768E-4
3.236040627E0,1.527118147E-4,6.872031372E-4,-7.635590737E-5,7.080955266E-4
3.238466461E0,1.527118147E-4,6.872031372E-4,-7.635590737E-5,7.080955266E-4
3.240892294E0,7.635590737E-4,7.635590737E-5,1.145338640E-3,1.378641825E-3
3.243318127E0,-4.581354442E-4,7.635590737E-5,-7.635590737E-5,4.706894246E-4
3.245743961E0,1.374406274E-3,-1.145338640E-3,-7.635590737E-5,1.790704730E-3
3.248169794E0,1.527118147E-4,7.635590737E-5,5.344913807E-4,5.610990634E-4
3.250595627E0,-4.581354442E-4,1.298050396E-3,-6.872031372E-4,1.538528865E-3
3.253021461E0,-4.581354442E-4,7.635590737E-5,-7.635590737E-5,4.706894246E-4
3.255447346E0,-4.581354442E-4,6.872031372E-4,5.344913807E-4,9.837770444E-4
3.257873179E0,1.527118147E-4,1.908897655E-3,-6.872031372E-4,2.034566123E-3
3.260299013E0,-1.068982761E-3,7.635590737E-5,-6.872031372E-4,1.273107427E-3
3.262724846E0,-1.679830020E-3,6.872031372E-4,1.756185899E-3,2.525522908E-3
3.265150679E0,1.527118147E-4,1.298050396E-3,-7.635590737E-5,1.309231054E-3
3.267576513E0,1.527118147E-4,1.908897655E-3,1.145338640E-3,2.231369928E-3
3.270002346E0,-3.817795368E-4,6.872031372E-4,-7.635590737E-5,7.898316220E-4
3.272428179E0,-1.603474026E-3,6.872031372E-4,-7.635590737E-5,1.746197963E-3
3.274854013E0,-9.926267667E-4,6.872031372E-4,1.145338640E-3,1.664138410E-3
3.277279846E0,-3.817795368E-4,1.298050396E-3,1.145338640E-3,1.772707264E-3
3.279705732E0,1.450762269E-3,7.635590737E-5,5.344913807E-4,1.547973650E-3
3.282131565E0,2.061609412E-3,6.872031372E-4,-7.635590737E-5,2.174468152E-3
3.284557398E0,8.399150101E-4,-5.344913807E-4,-6.872031372E-4,1.209705093E-3
3.286983232E0,1.450762269E-3,7.635590737E-5,5.344913807E-4,1.547973650E-3
3.289409065E0,-9.926267667E-4,7.635590737E-5,5.344913807E-4,1.129964229E-3
3.291834898E0,2.290677221E-4,-1.145338640E-3,5.344913807E-4,1.284505219E-3
3.294260732E0,1.450762269E-3,-1.145338640E-3,-6.872031372E-4,1.971993893E-3
3.296686565E0,-3.817795368E-4,-1.145338640E-3,-7.635590737E-5,1.209705104E-3
3.299112450E0,-1.603474026E-3,-1.145338640E-3,1.145338640E-3,2.279195066E-3
3.301538284E0,1.450762269E-3,-5.344913807E-4,-1.298050396E-3,2.018743923E-3
3.303964117E0,-3.817795368E-4,1.298050396E-3,5.344913807E-4,1.454775406E-3
3.306389950E0,2.290677221E-4,7.635590737E-5,1.145338640E-3,1.170513924E-3
3.308815784E0,2.290677221E-4,-5.344913807E-4,1.145338640E-3,1.284505219E-3
3.311241617E0,-3.817795368E-4,-5.344913807E-4,5.344913807E-4,8.468280149E-4
3.313667450E0,2.290677221E-4,-1.145338640E-3,1.145338640E-3,1.635870783E-3
3.316093284E0,8.399150101E-4,-5.344913807E-4,5.344913807E-4,1.129964290E-3
3.318519169E0,-3.817795368E-4,1.908897655E-3,-1.374406274E-3,2.382989400E-3
3.320945002E0,2.290677221E-4,-5.344913807E-4,-1.527118147E-4,6.012270417E-4
3.323370836E0,8.399150101E-4,-1.145338640E-3,-1.527118147E-4,1.428488265E-3
3.325796669E0,8.399150101E-4,7.635590737E-5,-1.985253533E-3,2.156969875E-3
3.328222502E0,-9.926267667E-4,7.635590737E-5,4.581354442E-4,1.095913413E-3
3.330648336E0,8.399150101E-4,-1.145338640E-3,4.581354442E-4,1.492362526E-3
3.333074169E0,8.399150101E-4,7.635590737E-5,4.581354442E-4,9.597788985E-4
3.335500002E0,2.290677221E-4,1.298050396E-3,-1.527118147E-4,1.326924169E-3
3.337925836E0,-9.926267667E-4,-5.344913807E-4,4.581354442E-4,1.216912905E-3
3.340351721E0,-3.817795368E-4,-5.344913807E-4,-1.527118147E-4,6.743571377E-4
3.342777554E0,1.450762269E-3,6.872031372E-4,-1.527118147E-4,1.612538437E-3
3.345203388E0,2.672456671E-3,7.635590737E-5,4.581354442E-4,2.712515984E-3
3.347629221E0,1.450762269E-3,7.635590737E-5,-1.527118147E-4,1.460774549E-3
3.350055054E0,2.290677221E-4,-1.756185899E-3,4.581354442E-4,1.829357542E-3
3.352480888E0,-9.926267667E-4,-1.756185899E-3,1.068982761E-3,2.283028899E-3
3.354906721E0,2.290677221E-4,-5.344913807E-4,4.581354442E-4,7.402980093E-4
3.357332554E0,-3.817795368E-4,-1.756185899E-3,4.581354442E-4,1.854678573E-3
3.359758388E0,2.290677221E-4,7.635590737E-5,4.581354442E-4,5.178709599E-4
3.362184221E0,8.399150101E-4,-5.344913807E-4,-1.527118147E-4,1.007203633E-3
3.364610054E0,8.399150101E-4,-1.145338640E-3,1.679830020E-3,2.199792427E-3
3.367035940E0,8.399150101E-4,1.298050396E-3,1.679830020E-3,2.283028899E-3
3.369461773E0,8.399150101E-4,-5.344913807E-4,4.581354442E-4,1.095913475E-3
3.371887607E0,-3.817795368E-4,7.635590737E-5,-1.527118147E-4,4.182185286E-4
3.374313440E0,8.399150101E-4,7.635590737E-5,-1.527118147E-4,8.570929630E-4
3.376739273E0,2.290677221E-4,7.635590737E-5,-7.635590737E-4,8.008275126E-4
3.379165107E0,8.399150101E-4,-5.344913807E-4,-1.527118147E-4,1.007203633E-3
3.381590940E0,2.290677221E-4,7.635590737E-5,-1.527118147E-4,2.856976448E-4
3.384016825E0,-3.817795368E-4,-5.344913807E-4,-1.527118147E-4,6.743571377E-4
3.386442659E0,-9.926267667E-4,7.635590737E-5,-7.635590737E-4,1.254655563E-3
3.388868492E0,2.290677221E-4,-5.344913807E-4,-1.374406274E-3,1.492362444E-3
3.391294325E0,8.399150101E-4,6.872031372E-4,4.581354442E-4,1.177961570E-3
3.393720159E0,8.399150101E-4,-5.344913807E-4,-1.374406274E-3,1.697094832E-3
3.396145992E0,8.399150101E-4,7.635590737E-5,4.581354442E-4,9.597788985E-4
3.398571825E0,1.450762269E-3,7.635590737E-5,-1.527118147E-4,1.460774549E-3
3.400997659E0,1.450762269E-3,1.908897655E-3,-7.635590737E-4,2.516271821E-3
3.403423492E0,-3.817795368E-4,6.872031372E-4,4.581354442E-4,9.098856257E-4
3.405849325E0,2.290677221E-4,6.872031372E-4,-7.635590737E-4,1.052493531E-3
3.408275211E0,-9.926267667E-4,7.635590737E-5,-7.635590737E-4,1.254655563E-3
3.410701044E0,2.290677221E-4,-5.344913807E-4,4.581354442E-4,7.402980093E-4
3.413126877E0,8.399150101E-4,-5.344913807E-4,-1.527118147E-4,1.007203633E-3
3.415552711E0,2.290677221E-4,7.635590737E-5,-1.374406274E-3,1.395455070E-3
3.417978544E0,8.399150101E-4,7.635590737E-5,-1.374406274E-3,1.612538389E-3
3.420404377E0,2.290677221E-4,-5.344913807E-4,4.581354442E-4,7.402980093E-4
3.422830211E0,2.290677221E-4,6.872031372E-4,-1.527118147E-4,7.402979613E-4
3.425256044E0,2.290677221E-4,-5.344913807E-4,4.581354442E-4,7.402980093E-4
3.427681929E0,8.399150101E-4,6.872031372E-4,-1.527118147E-4,1.095913443E-3
3.430107763E0,-3.817795368E-4,6.872031372E-4,4.581354442E-4,9.098856257E-4
3.432533596E0,-3.817795368E-4,-5.344913807E-4,-7.635590737E-4,1.007203609E-3
3.434959429E0,8.399150101E-4,-5.344913807E-4,-1.527118147E-4,1.007203633E-3
3.437385263E0,-3.817795368E-4,-5.344913807E-4,-7.635590737E-4,1.007203609E-3
3.439811096E0,1.527118147E-4,-5.344913807E-4,-2.290677221E-4,6.012270417E-4
3.442236929E0,1.527118147E-4,1.298050396E-3,9.926267667E-4,1.641207978E-3
3.444662763E0,-4.581354442E-4,1.298050396E-3,-8.399150101E-4,1.612538415E-3
3.447088596E0,-4.581354442E-4,-5.344913807E-4,-8.399150101E-4,1.095913475E-3
3.449514429E0,7.635590737E-4,-5.344913807E-4,-2.290677221E-4,9.597788893E-4
3.451940315E0,7.635590737E-4,-5.344913807E-4,3.817795368E-4,1.007203609E-3
3.454366148E0,-1.068982761E-3,6.872031372E-4,-8.399150101E-4,1.523295612E-3
3.456791982E0,-1.679830020E-3,-5.344913807E-4,-2.290677221E-4,1.777633808E-3
3.459217815E0,-1.068982761E-3,-5.344913807E-4,-1.450762269E-3,1.879658570E-3
3.461643648E0,1.527118147E-4,7.635590737E-5,-2.290677221E-4,2.856976448E-4
3.464069482E0,7.635590737E-4,-5.344913807E-4,3.817795368E-4,1.007203609E-3
3.466495315E0,-4.581354442E-4,1.298050396E-3,3.817795368E-4,1.428488198E-3
3.468921200E0,7.635590737E-4,6.872031372E-4,-1.450762269E-3,1.777633756E-3
3.471347034E0,1.374406274E-3,-5.344913807E-4,-2.672456671E-3,3.052326703E-3
3.473772867E0,7.635590737E-4,7.635590737E-5,-1.450762269E-3,1.641208044E-3
3.476198700E0,-4.581354442E-4,1.298050396E-3,-2.290677221E-4,1.395455100E-3
3.478624534E0,1.527118147E-4,7.635590737E-5,3.817795368E-4,4.182185286E-4
3.481050367E0,7.635590737E-4,7.635590737E-5,-1.450762269E-3,1.641208044E-3
3.483476200E0,7.635590737E-4,6.872031372E-4,-8.399150101E-4,1.326924201E-3
3.485902034E0,1.527118147E-4,7.635590737E-5,-1.527118147E-4,2.290677221E-4
3.488327867E0,-4.581354442E-4,7.635590737E-5,-1.527118147E-4,4.889163611E-4
3.490753752E0,1.527118147E-4,6.872031372E-4,1.068982761E-3,1.279958278E-3
3.493179586E0,7.635590737E-4,7.635590737E-5,-7.635590737E-4,1.082531821E-3
3.495605419E0,-4.581354442E-4,-1.756185899E-3,1.068982761E-3,2.106371558E-3
3.498031252E0,1.527118147E-4,7.635590737E-5,4.581354442E-4,4.889163611E-4
3.500457086E0,7.635590737E-4,7.635590737E-5,-1.527118147E-4,7.824152235E-4
3.502882919E0,1.527118147E-4,-5.344913807E-4,-1.527118147E-4,5.764744858E-4
3.505308752E0,-4.581354442E-4,6.872031372E-4,1.679830020E-3,1.871888120E-3
3.507734586E0,-4.581354442E-4,-5.344913807E-4,-1.527118147E-4,7.203402110E-4
3.510160419E0,1.527118147E-4,7.635590737E-5,-7.635590737E-4,7.824152235E-4
3.512586304E0,-1.068982761E-3,6.872031372E-4,-1.527118147E-4,1.279958278E-3
3.515012138E0,-1.068982761E-3,6.872031372E-4,-1.527118147E-4,1.279958278E-3
3.517437971E0,7.635590737E-4,-1.145338640E-3,1.068982761E-3,1.742856048E-3
3.519863804E0,7.635590737E-4,-5.344913807E-4,-7.635590737E-4,1.204875908E-3
3.522289638E0,-1.068982761E-3,1.298050396E-3,4.581354442E-4,1.742856007E-3
3.524715471E0,1.527118147E-4,-1.145338640E-3,-1.374406274E-3,1.795581829E-3
3.527141304E0,1.527118147E-4,-5.344913807E-4,4.581354442E-4,7.203402110E-4
3.529567138E0,-4.581354442E-4,-5.344913807E-4,1.679830020E-3,1.821372564E-3
3.531992971E0,1.374406274E-3,-5.344913807E-4,1.068982761E-3,1.821372501E-3
3.534418857E0,-4.581354442E-4,6.872031372E-4,4.581354442E-4,9.444703925E-4
3.536844690E0,7.635590737E-4,7.635590737E-5,4.581354442E-4,8.937229821E-4
3.539270523E0,1.374406274E-3,7.635590737E-5,-7.635590737E-4,1.574117305E-3
3.541696357E0,1.374406274E-3,7.635590737E-5,-7.635590737E-4,1.574117305E-3
3.544122190E0,7.635590737E-4,-5.344913807E-4,4.581354442E-4,1.038552637E-3
3.546548023E0,6.872031372E-4,6.872031372E-4,-1.374406274E-3,1.683297036E-3
3.548973857E0,7.635590737E-5,7.635590737E-5,-1.527118147E-4,1.870330119E-4
3.551399690E0,7.635590737E-5,-1.145338640E-3,-1.527118147E-4,1.157994699E-3
3.553825575E0,7.635590737E-5,7.635590737E-5,-1.527118147E-4,1.870330119E-4
3.556251409E0,7.635590737E-5,7.635590737E-5,-1.527118147E-4,1.870330119E-4
3.558677242E0,6.872031372E-4,7.635590737E-5,-7.635590737E-4,1.030097488E-3
3.561103075E0,-5.344913807E-4,-5.344913807E-4,4.581354442E-4,8.838835654E-4
3.563528909E0,7.635590737E-5,7.635590737E-5,4.581354442E-4,4.706894246E-4
3.565954742E0,-1.756185899E-3,7.635590737E-5,1.068982761E-3,2.057363186E-3
3.568380575E0,-5.344913807E-4,7.635590737E-5,4.581354442E-4,7.080955768E-4
3.570806409E0,6.872031372E-4,7.635590737E-5,1.068982761E-3,1.273107427E-3
3.573232242E0,7.635590737E-5,-1.756185899E-3,4.581354442E-4,1.816564675E-3
3.575658075E0,6.872031372E-4,1.298050396E-3,4.581354442E-4,1.538528865E-3
3.578083961E0,-5.344913807E-4,-5.344913807E-4,-7.635590737E-4,1.074422883E-3
3.580509794E0,6.872031372E-4,7.635590737E-5,4.581354442E-4,8.294374368E-4
3.582935627E0,1.908897655E-3,6.872031372E-4,-1.527118147E-4,2.034566123E-3
3.585361461E0,7.635590737E-5,7.635590737E-5,4.581354442E-4,4.706894246E-4
3.587787294E0,1.908897655E-3,7.635590737E-5,4.581354442E-4,1.964588651E-3
3.590213127E0,-5.344913807E-4,-1.145338640E-3,-1.527118147E-4,1.273107432E-3
3.592638961E0,-5.344913807E-4,-1.756185899E-3,-1.527118147E-4,1.842061575E-3
3.595064846E0,-5.344913807E-4,7.635590737E-5,4.581354442E-4,7.080955768E-4
3.597490679E0,6.872031372E-4,-5.344913807E-4,-7.635590737E-4,1.157994666E-3
3.599916513E0,7.635590737E-5,7.635590737E-5,-7.635590737E-4,7.711568635E-4
3.602342346E0,6.872031372E-4,6.872031372E-4,4.581354442E-4,1.074422817E-3
3.604768179E0,1.298050396E-3,7.635590737E-5,-7.635590737E-4,1.507908324E-3
3.607194013E0,6.872031372E-4,6.872031372E-4,-1.527118147E-4,9.837770082E-4
3.609619846E0,-5.344913807E-4,7.635590737E-5,4.581354442E-4,7.080955768E-4
3.612045679E0,1.298050396E-3,7.635590737E-5,-1.374406274E-3,1.892024752E-3
3.614471513E0,-5.344913807E-4,1.298050396E-3,-7.635590737E-4,1.598010740E-3
3.616897346E0,7.635590737E-5,-1.145338640E-3,-1.527118147E-4,1.157994699E-3
3.619323232E0,7.635590737E-5,-5.344913807E-4,1.068982761E-3,1.197595677E-3
3.621749065E0,7.635590737E-5,1.298050396E-3,-1.527118147E-4,1.309231054E-3
3.624174898E0,-5.344913807E-4,1.298050396E-3,-7.635590737E-4,1.598010740E-3
3.626600732E0,7.635590737E-5,6.872031372E-4,-7.635590737E-4,1.030097488E-3
3.629026565E0,6.872031372E-4,-5.344913807E-4,-1.374406274E-3,1.626936322E-3
3.631452398E0,6.872031372E-4,-5.344913807E-4,-1.527118147E-4,8.838835252E-4
3.633878232E0,-1.145338640E-3,7.635590737E-5,-1.527118147E-4,1.157994699E-3
3.636304065E0,7.635590737E-5,-5.344913807E-4,4.581354442E-4,7.080955768E-4
3.638729950E0,7.635590737E-5,-5.344913807E-4,4.581354442E-4,7.080955768E-4
3.641155784E0,7.635590737E-5,7.635590737E-5,-1.527118147E-4,1.870330119E-4
3.643581617E0,-5.344913807E-4,1.298050396E-3,-7.635590737E-4,1.598010740E-3
3.646007450E0,7.635590737E-5,-1.145338640E-3,4.581354442E-4,1.235928359E-3
3.648433284E0,7.635590737E-5,-1.145338640E-3,4.581354442E-4,1.235928359E-3
3.650859117E0,7.635590737E-5,6.872031372E-4,-7.635590737E-4,1.030097488E-3
3.653284950E0,7.635590737E-5,7.635590737E-5,-1.527118147E-4,1.870330119E-4
3.655710784E0,1.908897655E-3,6.872031372E-4,4.581354442E-4,2.079910213E-3
3.658136617E0,7.635590737E-5,1.908897655E-3,-1.374406274E-3,2.353447065E-3
3.660562450E0,-5.344913807E-4,1.298050396E-3,-1.374406274E-3,1.964588627E-3
3.662988336E0,-6.108472589E-4,1.298050396E-3,4.581354442E-4,1.505973868E-3
3.665414169E0,-1.221694518E-3,6.872031372E-4,-7.635590737E-4,1.596185486E-3
3.667840002E0,6.108472589E-4,7.635590737E-5,-1.985253533E-3,2.078508165E-3
3.670265836E0,0.000000000E0,7.635590737E-5,-7.635590737E-4,7.673673720E-4
3.672691669E0,-6.108472589E-4,-5.344913807E-4,-7.635590737E-4,1.114377794E-3
3.675117502E0,-6.108472589E-4,7.635590737E-5,4.581354442E-4,7.673673720E-4
3.677543336E0,-1.221694518E-3,-1.145338640E-3,1.068982761E-3,1.986721480E-3
3.679969169E0,-6.108472589E-4,7.635590737E-5,1.068982761E-3,1.233567486E-3
3.682395054E0,0.000000000E0,6.872031372E-4,1.068982761E-3,1.270815603E-3
3.684820888E0,-1.221694518E-3,7.635590737E-5,4.581354442E-4,1.307002603E-3
3.687246721E0,0.000000000E0,-1.145338640E-3,-1.374406274E-3,1.789076076E-3
3.689672554E0,6.108472589E-4,-1.145338640E-3,-7.635590737E-5,1.300294274E-3
3.692098388E0,-6.108472589E-4,6.872031372E-4,5.344913807E-4,1.063514721E-3
3.694524221E0,0.000000000E0,6.872031372E-4,1.756185899E-3,1.885851813E-3
3.696950054E0,-1.221694518E-3,-5.344913807E-4,-7.635590737E-5,1.335682880E-3
3.699375888E0,0.000000000E0,6.872031372E-4,-7.635590737E-5,6.914321199E-4
3.701801721E0,-1.221694518E-3,7.635590737E-5,-7.635590737E-5,1.226457478E-3
3.704227607E0,0.000000000E0,-5.344913807E-4,5.344913807E-4,7.558849595E-4
3.706653440E0,-1.221694518E-3,7.635590737E-5,-7.635590737E-5,1.226457478E-3
3.709079273E0,0.000000000E0,1.298050396E-3,-7.635590737E-5,1.300294219E-3
3.711505107E0,-6.108472589E-4,7.635590737E-5,-1.298050396E-3,1.436627798E-3
3.713930940E0,-1.221694518E-3,7.635590737E-5,-6.872031372E-4,1.403786263E-3
3.716356773E0,1.221694518E-3,6.872031372E-4,5.344913807E-4,1.500155553E-3
3.718782607E0,0.000000000E0,7.635590737E-5,5.344913807E-4,5.399178276E-4
3.721208440E0,0.000000000E0,6.872031372E-4,5.344913807E-4,8.705912863E-4
3.723634273E0,6.108472589E-4,6.872031372E-4,-6.872031372E-4,1.147880951E-3
3.726060159E0,0.000000000E0,-5.344913807E-4,5.344913807E-4,7.558849595E-4
3.728485992E0,0.000000000E0,7.635590737E-5,5.344913807E-4,5.399178276E-4
3.730911825E0,-6.108472589E-4,7.635590737E-5,1.145338640E-3,1.300294274E-3
3.733337659E0,-1.832541777E-3,-5.344913807E-4,5.344913807E-4,1.982314666E-3
3.735763492E0,6.108472589E-4,7.635590737E-5,-7.635590737E-5,6.203183239E-4
3.738189325E0,6.108472589E-4,-5.344913807E-4,1.145338640E-3,1.403786312E-3
3.740615159E0,1.221694518E-3,-1.756185899E-3,1.145338640E-3,2.426628732E-3
3.743040992E0,6.108472589E-4,7.635590737E-5,-6.872031372E-4,9.226119174E-4
3.745466825E0,6.108472589E-4,-5.344913807E-4,-1.298050396E-3,1.530931168E-3
3.747892711E0,0.000000000E0,7.635590737E-5,-7.635590737E-5,1.079835598E-4
3.750318544E0,6.108472589E-4,6.872031372E-4,5.344913807E-4,1.063514721E-3
3.752744377E0,-1.832541777E-3,7.635590737E-5,5.344913807E-4,1.910424200E-3
3.755170211E0,-6.108472589E-4,-5.344913807E-4,-6.872031372E-4,1.063514721E-3
3.757596044E0,0.000000000E0,-5.344913807E-4,-6.872031372E-4,8.705912863E-4
3.760021877E0,-6.108472589E-4,-5.344913807E-4,-7.635590737E-5,8.152580170E-4
3.762447711E0,1.221694518E-3,7.635590737E-5,-7.635590737E-5,1.226457478E-3
3.764873544E0,-6.108472589E-4,1.298050396E-3,5.344913807E-4,1.530931168E-3
3.767299377E0,-6.108472589E-4,6.872031372E-4,5.344913807E-4,1.063514721E-3
3.769725263E0,6.108472589E-4,-5.344913807E-4,-6.872031372E-4,1.063514721E-3
3.772151096E0,6.108472589E-4,6.872031372E-4,-1.298050396E-3,1.590697129E-3
3.774576929E0,-6.108472589E-4,6.872031372E-4,-7.635590737E-5,9.226119174E-4
3.777002763E0,-6.108472589E-4,6.872031372E-4,-7.635590737E-5,9.226119174E-4
3.779428596E0,6.108472589E-4,-1.145338640E-3,-7.635590737E-5,1.300294274E-3
3.781854429E0,6.108472589E-4,-1.145338640E-3,1.145338640E-3,1.731108192E-3
3.784280263E0,6.108472589E-4,-1.145338640E-3,-7.635590737E-5,1.300294274E-3
3.786706096E0,6.108472589E-4,6.872031372E-4,5.344913807E-4,1.063514721E-3
3.789131982E0,0.000000000E0,6.872031372E-4,5.344913807E-4,8.705912863E-4
3.791557815E0,0.000000000E0,-5.344913807E-4,-6.872031372E-4,8.705912863E-4
3.793983648E0,1.832541777E-3,-1.145338640E-3,-1.298050396E-3,2.520901584E-3
3.796409482E0,6.108472589E-4,7.635590737E-5,5.344913807E-4,8.152580170E-4
3.798835315E0,6.108472589E-4,7.635590737E-5,-7.635590737E-5,6.203183239E-4
3.801261148E0,0.000000000E0,7.635590737E-5,-7.635590737E-5,1.079835598E-4
3.803686982E0,0.000000000E0,6.872031372E-4,-6.872031372E-4,9.718519967E-4
3.806112815E0,6.108472589E-4,7.635590737E-5,-1.908897655E-3,2.005705576E-3
3.808538648E0,0.000000000E0,7.635590737E-5,1.145338640E-3,1.147881015E-3
3.810964482E0,0.000000000E0,-5.344913807E-4,-6.872031372E-4,8.705912863E-4
3.813390367E0,-6.108472589E-4,1.298050396E-3,-6.872031372E-4,1.590697129E-3
3.815816200E0,-6.108472589E-4,-5.344913807E-4,-6.872031372E-4,1.063514721E-3
3.818242034E0,-6.108472589E-4,1.908897655E-3,-7.635590737E-5,2.005705576E-3
3.820667867E0,0.000000000E0,6.872031372E-4,5.344913807E-4,8.705912863E-4
3.823093700E0,0.000000000E0,7.635590737E-5,5.344913807E-4,5.399178276E-4
3.825519534E0,0.000000000E0,-5.344913807E-4,-1.298050396E-3,1.403786261E-3
3.827945367E0,6.108472589E-4,-1.756185899E-3,-6.872031372E-4,1.982314666E-3
3.830371200E0,0.000000000E0,-1.145338640E-3,-1.298050396E-3,1.731108151E-3
3.832797086E0,1.221694518E-3,7.635590737E-5,5.344913807E-4,1.335682880E-3
3.835222919E0,1.221694518E-3,-5.344913807E-4,-6.872031372E-4,1.500155553E-3
3.837648752E0,1.221694518E-3,7.635590737E-5,-7.635590737E-5,1.226457478E-3
3.840074586E0,-6.108472589E-4,-5.344913807E-4,-7.635590737E-5,8.152580170E-4
3.842500419E0,0.000000000E0,1.298050396E-3,1.145338640E-3,1.731108151E-3
3.844926252E0,6.108472589E-4,7.635590737E-5,-7.635590737E-5,6.203183239E-4
3.847352086E0,0.000000000E0,6.872031372E-4,1.145338640E-3,1.335682878E-3
3.849777919E0,0.000000000E0,7.635590737E-5,1.145338640E-3,1.147881015E-3
3.852203752E0,-6.108472589E-4,1.298050396E-3,5.344913807E-4,1.530931168E-3
3.854629638E0,-1.221694518E-3,7.635590737E-5,-7.635590737E-5,1.226457478E-3
3.857055471E0,0.000000000E0,-1.145338640E-3,-6.872031372E-4,1.335682878E-3
3.859481304E0,0.000000000E0,7.635590737E-5,-7.635590737E-5,1.079835598E-4
3.861907138E0,6.108472589E-4,-5.344913807E-4,-6.872031372E-4,1.063514721E-3
3.864332971E0,6.108472589E-4,2.519744914E-3,1.145338640E-3,2.834439875E-3
3.866758804E0,0.000000000E0,1.298050396E-3,-6.872031372E-4,1.468735164E-3
3.869184638E0,1.221694518E-3,7.635590737E-5,-7.635590737E-5,1.226457478E-3
3.871610471E0,0.000000000E0,1.298050396E-3,-1.298050396E-3,1.835720475E-3
3.874036357E0,6.108472589E-4,7.635590737E-5,-1.298050396E-3,1.436627798E-3
3.876462190E0,0.000000000E0,7.635590737E-5,-7.635590737E-5,1.079835598E-4
3.878888023E0,6.108472589E-4,7.635590737E-5,-7.635590737E-5,6.203183239E-4
3.881313857E0,0.000000000E0,7.635590737E-5,1.145338640E-3,1.147881015E-3
3.883739690E0,0.000000000E0,-1.756185899E-3,-6.872031372E-4,1.885851813E-3
3.886165523E0,-6.108472589E-4,-5.344913807E-4,-7.635590737E-5,8.152580170E-4
3.888591357E0,0.000000000E0,-5.344913807E-4,-1.298050396E-3,1.403786261E-3
3.891017190E0,1.832541777E-3,1.298050396E-3,-7.635590737E-5,2.246992305E-3
3.893443023E0,0.000000000E0,1.298050396E-3,1.145338640E-3,1.731108151E-3
3.895868909E0,-6.108472589E-4,7.635590737E-5,-7.635590737E-5,6.203183239E-4
3.898294742E0,-1.832541777E-3,-5.344913807E-4,-6.872031372E-4,2.028826890E-3
3.900720575E0,-1.221694518E-3,7.635590737E-5,-1.298050396E-3,1.784181199E-3
3.903146409E0,-6.108472589E-4,-5.344913807E-4,1.145338640E-3,1.403786312E-3
3.905572242E0,-2.443389036E-3,-5.344913807E-4,1.145338640E-3,2.750932863E-3
3.907998075E0,6.108472589E-4,-5.344913807E-4,5.344913807E-4,9.718520699E-4
3.910423909E0,1.221694518E-3,7.635590737E-5,-7.635590737E-5,1.226457478E-3
3.912849742E0,-6.108472589E-4,6.872031372E-4,-6.872031372E-4,1.147880951E-3
3.915275575E0,6.108472589E-4,7.635590737E-5,-1.298050396E-3,1.436627798E-3
3.917701461E0,6.108472589E-4,6.872031372E-4,1.145338640E-3,1.468735213E-3
