"Time (s)","Gyroscope x (rad/s)","Gyroscope y (rad/s)","Gyroscope z (rad/s)","Absolute (rad/s)"
6.773938000E-2,1.221694518E-3,-9.926267667E-4,2.137965523E-3,2.654946698E-3
7.016526600E-2,6.108472589E-4,2.290677221E-4,-1.527118147E-3,1.660631275E-3
7.259115100E-2,-0.000000000E0,1.450762269E-3,5.192201585E-3,5.391073034E-3
7.501703700E-2,2.443389036E-3,-2.214321401E-3,-2.748812549E-3,4.292940679E-3
7.744287000E-2,-0.000000000E0,-3.817795368E-4,1.527118147E-3,1.574117356E-3
7.986875500E-2,6.108472589E-4,2.290677221E-4,-1.527118147E-3,1.660631275E-3
8.229464100E-2,-0.000000000E0,-1.603474026E-3,9.162708884E-4,1.846802992E-3
8.472052600E-2,-6.108472589E-4,2.290677221E-4,-9.162708884E-4,1.124792752E-3
8.714636000E-2,-6.108472589E-4,-2.214321401E-3,3.054236295E-4,2.317247771E-3
8.957224500E-2,-6.108472589E-4,-3.817795368E-4,9.162708884E-4,1.165522342E-3
9.199813000E-2,-0.000000000E0,1.450762269E-3,-2.748812549E-3,3.108163701E-3
9.442401600E-2,1.221694518E-3,2.290677221E-4,2.137965523E-3,2.473035805E-3
9.684984900E-2,-0.000000000E0,2.290677221E-4,-1.527118147E-3,1.544202661E-3
9.927573500E-2,6.108472589E-4,8.399150101E-4,2.137965523E-3,2.376865199E-3
1.017016200E-1,-1.832541777E-3,-3.817795368E-4,-2.748812549E-3,3.325648118E-3
1.041275050E-1,-0.000000000E0,-9.926267667E-4,9.162708884E-4,1.350873880E-3
1.065533910E-1,-0.000000000E0,-3.817795368E-4,-1.527118147E-3,1.574117356E-3
1.089792240E-1,1.221694518E-3,-3.817795368E-4,-3.054236295E-4,1.315893880E-3
1.114051100E-1,6.108472589E-4,-3.817795368E-4,-3.054236295E-4,7.824152235E-4
1.138309950E-1,1.221694518E-3,2.290677221E-4,-9.162708884E-4,1.544202661E-3
1.162568800E-1,6.108472589E-4,8.399150101E-4,3.054236295E-4,1.082531843E-3
1.186827140E-1,6.108472589E-4,8.399150101E-4,-9.162708884E-4,1.384970736E-3
1.211085990E-1,2.443389036E-3,-3.817795368E-4,2.137965523E-3,3.269067477E-3
1.235344850E-1,-0.000000000E0,8.399150101E-4,-2.748812549E-3,2.874269934E-3
1.259603700E-1,6.108472589E-4,-3.817795368E-4,3.054236295E-4,7.824152235E-4
1.283862550E-1,-0.000000000E0,-9.926267667E-4,-3.054236295E-4,1.038552594E-3
1.308120890E-1,6.108472589E-4,2.290677221E-4,2.137965523E-3,2.235285881E-3
1.332379740E-1,-0.000000000E0,2.290677221E-4,3.054236295E-4,3.817795368E-4
1.356638600E-1,6.108472589E-4,-3.817795368E-4,9.162708884E-4,1.165522342E-3
1.380897450E-1,-6.108472589E-4,-3.817795368E-4,-1.527118147E-3,1.688484476E-3
1.405155780E-1,6.108472589E-4,1.450762269E-3,-2.137965523E-3,2.654946725E-3
1.429414640E-1,1.221694518E-3,2.290677221E-4,3.054236295E-4,1.279958245E-3
1.453673490E-1,6.108472589E-4,-3.817795368E-4,-1.527118147E-3,1.688484476E-3
1.477932350E-1,-6.108472589E-4,2.290677221E-4,-3.054236295E-4,7.203401894E-4
1.502190680E-1,2.443389036E-3,-1.603474026E-3,-9.162708884E-4,3.062814273E-3
1.526449530E-1,1.221694518E-3,8.399150101E-4,3.054236295E-4,1.513696903E-3
1.550708390E-1,-0.000000000E0,-3.817795368E-4,3.054236295E-4,4.889163611E-4
1.574967240E-1,1.221694518E-3,-9.926267667E-4,-9.162708884E-4,1.821372486E-3
1.599226100E-1,1.832541777E-3,-9.926267667E-4,3.054236295E-4,2.106371490E-3
1.623484430E-1,1.221694518E-3,2.290677221E-4,-2.137965523E-3,2.473035805E-3
1.647743280E-1,6.108472589E-4,-3.817795368E-4,-3.054236295E-4,7.824152235E-4
1.672002140E-1,-0.000000000E0,-9.926267667E-4,-1.527118147E-3,1.821372486E-3
1.696260990E-1,-0.000000000E0,-9.926267667E-4,3.054236295E-4,1.038552594E-3
1.720519330E-1,-0.000000000E0,2.290677221E-4,-3.054236295E-4,3.817795368E-4
1.744778180E-1,-6.108472589E-4,-3.817795368E-4,9.162708884E-4,1.165522342E-3
1.769037030E-1,-1.221694518E-3,-9.926267667E-4,3.054236295E-4,1.603474037E-3
1.793295890E-1,6.108472589E-4,2.290677221E-4,-9.162708884E-4,1.124792752E-3
1.817554220E-1,1.832541777E-3,-1.603474026E-3,9.162708884E-4,2.601709180E-3
1.841813080E-1,1.221694518E-3,2.290677221E-4,-9.162708884E-4,1.544202661E-3
1.866071930E-1,6.108472589E-4,2.290677221E-4,-3.054236295E-4,7.203401894E-4
1.890330780E-1,-0.000000000E0,2.290677221E-4,3.054236295E-4,3.817795368E-4
1.914589640E-1,-1.832541777E-3,8.399150101E-4,9.162708884E-4,2.214321325E-3
1.938847970E-1,-0.000000000E0,8.399150101E-4,-1.527118147E-3,1.742856007E-3
1.963106830E-1,1.221694518E-3,-3.817795368E-4,3.054236295E-4,1.315893880E-3
1.987365680E-1,6.108472589E-4,-2.214321401E-3,3.054236295E-4,2.317247771E-3
2.011624530E-1,-6.108472589E-4,-9.926267667E-4,9.162708884E-4,1.482563527E-3
2.035882870E-1,-6.108472589E-4,-9.926267667E-4,9.162708884E-4,1.482563527E-3
2.060141720E-1,6.108472589E-4,2.290677221E-4,3.054236295E-4,7.203401894E-4
2.084400580E-1,-0.000000000E0,2.290677221E-4,3.054236295E-4,3.817795368E-4
2.108659430E-1,-0.000000000E0,-9.926267667E-4,-2.137965523E-3,2.357160256E-3
2.132918280E-1,-6.108472589E-4,-3.817795368E-4,-1.527118147E-3,1.688484476E-3
2.157176620E-1,1.221694518E-3,-3.817795368E-4,-3.054236295E-4,1.315893880E-3
2.181435470E-1,6.108472589E-4,-3.817795368E-4,3.054236295E-4,7.824152235E-4
2.205694330E-1,6.108472589E-4,-3.817795368E-4,-3.054236295E-4,7.824152235E-4
2.229953180E-1,1.221694518E-3,2.290677221E-4,-3.054236295E-4,1.279958245E-3
2.254211510E-1,-6.108472589E-4,-1.603474026E-3,-3.054236295E-4,1.742855966E-3
2.278470370E-1,-0.000000000E0,-3.817795368E-4,-3.054236295E-4,4.889163611E-4
2.302729220E-1,1.221694518E-3,2.290677221E-4,3.054236295E-4,1.279958245E-3
2.326988080E-1,6.108472589E-4,1.450762269E-3,-3.054236295E-4,1.603474081E-3
2.351246930E-1,1.221694518E-3,8.399150101E-4,3.054236295E-4,1.513696903E-3
2.375505260E-1,1.221694518E-3,8.399150101E-4,-9.162708884E-4,1.742856007E-3
2.399764120E-1,1.221694518E-3,-9.926267667E-4,1.527118147E-3,2.193156453E-3
2.424022970E-1,6.108472589E-4,-3.817795368E-4,-3.054236295E-4,7.824152235E-4
2.448281830E-1,6.108472589E-4,2.290677221E-4,9.162708884E-4,1.124792752E-3
2.472540160E-1,6.108472589E-4,1.450762269E-3,9.162708884E-4,1.821372525E-3
2.496799010E-1,-1.221694518E-3,-9.926267667E-4,9.162708884E-4,1.821372486E-3
2.521057870E-1,-6.108472589E-4,-3.817795368E-4,1.527118147E-3,1.688484476E-3
2.545316720E-1,-6.108472589E-4,1.450762269E-3,-3.054236295E-4,1.603474081E-3
2.569575050E-1,6.108472589E-4,2.290677221E-4,-9.162708884E-4,1.124792752E-3
2.593833910E-1,-6.108472589E-4,8.399150101E-4,-3.054236295E-4,1.082531843E-3
2.618092760E-1,1.221694518E-3,8.399150101E-4,3.054236295E-4,1.513696903E-3
2.642351620E-1,-6.108472589E-4,8.399150101E-4,3.054236295E-4,1.082531843E-3
2.666610470E-1,6.108472589E-4,2.290677221E-4,9.162708884E-4,1.124792752E-3
2.690868800E-1,-6.108472589E-4,-9.926267667E-4,1.527118147E-3,1.921075768E-3
2.715127660E-1,-0.000000000E0,2.290677221E-4,1.527118147E-3,1.544202661E-3
2.739386510E-1,2.443389036E-3,-1.603474026E-3,3.054236295E-4,2.938462612E-3
2.763645370E-1,-0.000000000E0,-2.214321401E-3,1.527118147E-3,2.689852989E-3
2.787904220E-1,6.108472589E-4,8.399150101E-4,-3.054236295E-4,1.082531843E-3
2.812162550E-1,6.108472589E-4,2.290677221E-4,1.527118147E-3,1.660631275E-3
2.836421410E-1,-0.000000000E0,2.290677221E-4,1.527118147E-3,1.544202661E-3
2.860680260E-1,-0.000000000E0,2.290677221E-4,3.054236295E-4,3.817795368E-4
2.884939120E-1,-0.000000000E0,2.290677221E-4,9.162708884E-4,9.444704136E-4
2.909197450E-1,6.108472589E-4,-3.817795368E-4,3.054236295E-4,7.824152235E-4
2.933456300E-1,-0.000000000E0,-3.817795368E-4,9.162708884E-4,9.926267958E-4
2.957715160E-1,-0.000000000E0,2.290677221E-4,9.162708884E-4,9.444704136E-4
2.981974010E-1,-0.000000000E0,-3.817795368E-4,3.054236295E-4,4.889163611E-4
3.006232350E-1,-0.000000000E0,-1.603474026E-3,-3.054236295E-4,1.632302835E-3
3.030491200E-1,-6.108472589E-4,8.399150101E-4,3.054236295E-4,1.082531843E-3
3.054750050E-1,1.221694518E-3,-1.603474026E-3,-9.162708884E-4,2.214321293E-3
3.079008910E-1,1.832541777E-3,2.290677221E-4,-9.162708884E-4,2.061609499E-3
3.103267760E-1,-0.000000000E0,2.290677221E-4,3.054236295E-4,3.817795368E-4
3.127526100E-1,-0.000000000E0,-9.926267667E-4,-3.054236295E-4,1.038552594E-3
3.151784950E-1,-0.000000000E0,-9.926267667E-4,-3.054236295E-4,1.038552594E-3
3.176043800E-1,2.443389036E-3,-9.926267667E-4,-1.527118147E-3,3.047547820E-3
3.200302660E-1,6.108472589E-4,-9.926267667E-4,9.162708884E-4,1.482563527E-3
3.224561510E-1,-6.108472589E-4,-3.817795368E-4,-9.162708884E-4,1.165522342E-3
3.248819850E-1,1.221694518E-3,-1.603474026E-3,-3.054236295E-4,2.038859985E-3
3.273078700E-1,1.832541777E-3,-9.926267667E-4,-9.162708884E-4,2.276635588E-3
3.297337550E-1,6.108472589E-4,-1.603474026E-3,3.054236295E-4,1.742855966E-3
3.321596410E-1,6.108472589E-4,2.290677221E-4,3.054236295E-4,7.203401894E-4
3.345854740E-1,6.108472589E-4,2.290677221E-4,-3.054236295E-4,7.203401894E-4
3.370113600E-1,6.108472589E-4,2.290677221E-4,9.162708884E-4,1.124792752E-3
3.394372450E-1,-0.000000000E0,-9.926267667E-4,-3.054236295E-4,1.038552594E-3
3.418631300E-1,-0.000000000E0,-9.926267667E-4,9.162708884E-4,1.350873880E-3
3.442890160E-1,6.108472589E-4,-9.926267667E-4,3.054236295E-4,1.204875871E-3
3.467148490E-1,1.832541777E-3,-3.817795368E-4,-3.054236295E-4,1.896641393E-3
3.491407350E-1,1.221694518E-3,-9.926267667E-4,-3.054236295E-4,1.603474037E-3
3.515666200E-1,1.221694518E-3,2.290677221E-4,1.527118147E-3,1.969035132E-3
3.539925050E-1,1.221694518E-3,1.450762269E-3,-3.054236295E-4,1.921075805E-3
3.564183910E-1,1.221694518E-3,-3.817795368E-4,9.162708884E-4,1.574117356E-3
3.588442240E-1,1.221694518E-3,-9.926267667E-4,9.162708884E-4,1.821372486E-3
3.612701100E-1,1.221694518E-3,-9.926267667E-4,-9.162708884E-4,1.821372486E-3
3.636959950E-1,-0.000000000E0,2.290677221E-4,9.162708884E-4,9.444704136E-4
3.661218800E-1,-6.108472589E-4,-3.817795368E-4,-3.054236295E-4,7.824152235E-4
3.685477140E-1,1.221694518E-3,-3.817795368E-4,3.054236295E-4,1.315893880E-3
3.709735990E-1,-0.000000000E0,-3.817795368E-4,1.527118147E-3,1.574117356E-3
3.733994850E-1,-0.000000000E0,1.450762269E-3,3.054236295E-4,1.482563575E-3
3.758253700E-1,1.221694518E-3,-3.817795368E-4,-3.054236295E-4,1.315893880E-3
3.782512550E-1,1.832541777E-3,-3.817795368E-4,9.162708884E-4,2.084110678E-3
3.806770890E-1,-6.108472589E-4,-3.817795368E-4,3.054236295E-4,7.824152235E-4
3.831029740E-1,-0.000000000E0,-2.214321401E-3,-9.162708884E-4,2.396408064E-3
3.855288600E-1,-0.000000000E0,-9.926267667E-4,9.162708884E-4,1.350873880E-3
3.879547450E-1,-0.000000000E0,-1.603474026E-3,-3.054236295E-4,1.632302835E-3
3.903806300E-1,-6.108472589E-4,-9.926267667E-4,3.054236295E-4,1.204875871E-3
3.928064640E-1,-0.000000000E0,-1.603474026E-3,-3.054236295E-4,1.632302835E-3
3.952323490E-1,1.221694518E-3,2.290677221E-4,-9.162708884E-4,1.544202661E-3
3.976582350E-1,-0.000000000E0,8.399150101E-4,1.527118147E-3,1.742856007E-3
4.000841200E-1,-6.108472589E-4,8.399150101E-4,3.054236295E-4,1.082531843E-3
4.025100050E-1,-6.108472589E-4,-1.603474026E-3,9.162708884E-4,1.945203245E-3
4.049358390E-1,6.108472589E-4,-3.817795368E-4,-3.054236295E-4,7.824152235E-4
4.073617240E-1,-6.108472589E-4,2.290677221E-4,9.162708884E-4,1.124792752E-3
4.097876100E-1,-0.000000000E0,-9.926267667E-4,3.054236295E-4,1.038552594E-3
4.122134950E-1,6.108472589E-4,2.290677221E-4,-3.054236295E-4,7.203401894E-4
4.146393280E-1,-6.108472589E-4,-3.817795368E-4,9.162708884E-4,1.165522342E-3
4.170652140E-1,1.221694518E-3,-9.926267667E-4,-3.054236295E-4,1.603474037E-3
4.194910990E-1,-6.108472589E-4,-3.817795368E-4,-3.054236295E-4,7.824152235E-4
4.219169850E-1,-0.000000000E0,-1.603474026E-3,-3.054236295E-4,1.632302835E-3
4.243428700E-1,-0.000000000E0,-3.817795368E-4,9.162708884E-4,9.926267958E-4
4.267687030E-1,6.108472589E-4,8.399150101E-4,-9.162708884E-4,1.384970736E-3
4.291945890E-1,6.108472589E-4,8.399150101E-4,-9.162708884E-4,1.384970736E-3
4.316204740E-1,-0.000000000E0,8.399150101E-4,3.054236295E-4,8.937230095E-4
4.340463600E-1,-0.000000000E0,2.290677221E-4,3.054236295E-4,3.817795368E-4
4.364722450E-1,6.108472589E-4,-3.817795368E-4,-3.054236295E-4,7.824152235E-4
4.388980780E-1,6.108472589E-4,1.450762269E-3,3.054236295E-4,1.603474081E-3
4.413239640E-1,1.221694518E-3,-3.817795368E-4,-9.162708884E-4,1.574117356E-3
4.437498490E-1,6.108472589E-4,-9.926267667E-4,-1.527118147E-3,1.921075768E-3
4.461757350E-1,-1.221694518E-3,2.290677221E-4,3.054236295E-4,1.279958245E-3
4.486016200E-1,-6.108472589E-4,-3.817795368E-4,-1.527118147E-3,1.688484476E-3
4.510274530E-1,6.108472589E-4,1.450762269E-3,3.054236295E-4,1.603474081E-3
4.534533390E-1,1.221694518E-3,-3.817795368E-4,-3.054236295E-4,1.315893880E-3
4.558792240E-1,6.108472589E-4,2.290677221E-4,-9.162708884E-4,1.124792752E-3
4.583051100E-1,1.221694518E-3,2.290677221E-4,3.054236295E-4,1.279958245E-3
4.607309430E-1,6.108472589E-4,-3.817795368E-4,-9.162708884E-4,1.165522342E-3
4.631568280E-1,1.221694518E-3,2.290677221E-4,9.162708884E-4,1.544202661E-3
4.655827140E-1,6.108472589E-4,-9.926267667E-4,3.054236295E-4,1.204875871E-3
4.680085990E-1,-1.221694518E-3,-1.603474026E-3,1.527118147E-3,2.528983251E-3
4.704344850E-1,-0.000000000E0,-3.817795368E-4,3.054236295E-4,4.889163611E-4
4.728603180E-1,-6.108472589E-4,8.399150101E-4,9.162708884E-4,1.384970736E-3
4.752862030E-1,-0.000000000E0,-9.926267667E-4,-3.054236295E-4,1.038552594E-3
4.777120890E-1,-0.000000000E0,2.290677221E-4,-3.054236295E-4,3.817795368E-4
4.801379740E-1,-0.000000000E0,2.290677221E-4,3.054236295E-4,3.817795368E-4
4.825638600E-1,-0.000000000E0,2.290677221E-4,1.527118147E-3,1.544202661E-3
4.849896930E-1,-1.221694518E-3,1.450762269E-3,-3.054236295E-4,1.921075805E-3
4.874155780E-1,-1.221694518E-3,-1.603474026E-3,3.054236295E-4,2.038859985E-3
4.898414640E-1,-6.108472589E-4,-2.214321401E-3,-3.054236295E-4,2.317247771E-3
4.922673490E-1,-1.221694518E-3,-3.817795368E-4,9.162708884E-4,1.574117356E-3
4.946932350E-1,-0.000000000E0,-3.817795368E-4,3.054236295E-4,4.889163611E-4
4.971190680E-1,-0.000000000E0,2.290677221E-4,-9.162708884E-4,9.444704136E-4
4.995449530E-1,1.221694518E-3,-3.817795368E-4,-3.054236295E-4,1.315893880E-3
5.019708390E-1,6.108472589E-4,-3.817795368E-4,9.162708884E-4,1.165522342E-3
5.043967240E-1,-1.221694518E-3,2.290677221E-4,-3.054236295E-4,1.279958245E-3
5.068226100E-1,-0.000000000E0,2.290677221E-4,1.527118147E-3,1.544202661E-3
5.092484430E-1,-0.000000000E0,-1.603474026E-3,-3.054236295E-4,1.632302835E-3
5.116743280E-1,-6.108472589E-4,-2.214321401E-3,-3.054236295E-4,2.317247771E-3
5.141002140E-1,-0.000000000E0,-9.926267667E-4,3.054236295E-4,1.038552594E-3
5.165260990E-1,6.108472589E-4,-9.926267667E-4,9.162708884E-4,1.482563527E-3
5.189519850E-1,-0.000000000E0,8.399150101E-4,-3.054236295E-4,8.937230095E-4
5.213778180E-1,-6.108472589E-4,2.290677221E-4,3.054236295E-4,7.203401894E-4
5.238037030E-1,6.108472589E-4,-3.817795368E-4,3.054236295E-4,7.824152235E-4
5.262295890E-1,2.443389036E-3,-3.817795368E-4,9.162708884E-4,2.637320219E-3
5.286554740E-1,1.832541777E-3,2.290677221E-4,-3.054236295E-4,1.871888079E-3
5.310813600E-1,1.832541777E-3,-1.603474026E-3,-1.527118147E-3,2.874270020E-3
5.335071930E-1,-1.221694518E-3,2.290677221E-4,-3.054236295E-4,1.279958245E-3
5.359330780E-1,1.221694518E-3,8.399150101E-4,3.054236295E-4,1.513696903E-3
5.383589640E-1,1.221694518E-3,1.450762269E-3,3.054236295E-4,1.921075805E-3
5.407848490E-1,-6.108472589E-4,8.399150101E-4,3.054236295E-4,1.082531843E-3
5.432107350E-1,-6.108472589E-4,8.399150101E-4,3.054236295E-4,1.082531843E-3
5.456365680E-1,6.108472589E-4,2.290677221E-4,3.054236295E-4,7.203401894E-4
5.480624530E-1,-0.000000000E0,-3.817795368E-4,9.162708884E-4,9.926267958E-4
5.504883390E-1,-0.000000000E0,-9.926267667E-4,-3.054236295E-4,1.038552594E-3
5.529142240E-1,-6.108472589E-4,-9.926267667E-4,9.162708884E-4,1.482563527E-3
5.553401100E-1,1.832541777E-3,-3.817795368E-4,3.054236295E-4,1.896641393E-3
5.577659430E-1,1.221694518E-3,8.399150101E-4,3.054236295E-4,1.513696903E-3
5.601918280E-1,6.108472589E-4,-3.817795368E-4,3.054236295E-4,7.824152235E-4
5.626177140E-1,-0.000000000E0,2.290677221E-4,-3.054236295E-4,3.817795368E-4
5.650435990E-1,1.221694518E-3,2.290677221E-4,-3.054236295E-4,1.279958245E-3
5.674694850E-1,6.108472589E-4,-3.817795368E-4,1.527118147E-3,1.688484476E-3
5.698953180E-1,-0.000000000E0,-3.817795368E-4,-3.054236295E-4,4.889163611E-4
5.723212030E-1,6.108472589E-4,-3.817795368E-4,-9.162708884E-4,1.165522342E-3
5.747470890E-1,6.108472589E-4,2.290677221E-4,3.054236295E-4,7.203401894E-4
5.771729740E-1,1.221694518E-3,-9.926267667E-4,-3.054236295E-4,1.603474037E-3
5.795988080E-1,6.108472589E-4,-9.926267667E-4,9.162708884E-4,1.482563527E-3
5.820246930E-1,-0.000000000E0,-3.817795368E-4,9.162708884E-4,9.926267958E-4
5.844505780E-1,-6.108472589E-4,-1.603474026E-3,-9.162708884E-4,1.945203245E-3
5.868764640E-1,-0.000000000E0,2.290677221E-4,9.162708884E-4,9.444704136E-4
5.893023490E-1,-6.108472589E-4,-3.817795368E-4,9.162708884E-4,1.165522342E-3
5.917282350E-1,-1.221694518E-3,2.290677221E-4,-9.162708884E-4,1.544202661E-3
5.941540680E-1,1.221694518E-3,2.290677221E-4,-9.162708884E-4,1.544202661E-3
5.965799530E-1,1.221694518E-3,2.290677221E-4,3.054236295E-4,1.279958245E-3
5.990058390E-1,6.108472589E-4,-3.817795368E-4,3.054236295E-4,7.824152235E-4
6.014317240E-1,1.221694518E-3,8.399150101E-4,-3.054236295E-4,1.513696903E-3
6.038576100E-1,6.108472589E-4,8.399150101E-4,9.162708884E-4,1.384970736E-3
6.062834430E-1,6.108472589E-4,-1.603474026E-3,-3.054236295E-4,1.742855966E-3
6.087093280E-1,-0.000000000E0,-3.817795368E-4,-9.162708884E-4,9.926267958E-4
6.111352140E-1,6.108472589E-4,-3.817795368E-4,-3.054236295E-4,7.824152235E-4
6.135610990E-1,1.221694518E-3,-3.817795368E-4,9.162708884E-4,1.574117356E-3
6.159869330E-1,-6.108472589E-4,-3.817795368E-4,-9.162708884E-4,1.165522342E-3
6.184128180E-1,6.108472589E-4,2.290677221E-4,3.054236295E-4,7.203401894E-4
6.208387030E-1,-6.108472589E-4,-1.603474026E-3,3.054236295E-4,1.742855966E-3
6.232645890E-1,-6.108472589E-4,2.290677221E-4,-3.054236295E-4,7.203401894E-4
6.256904740E-1,6.108472589E-4,-9.926267667E-4,9.162708884E-4,1.482563527E-3
6.281163600E-1,6.108472589E-4,8.399150101E-4,-3.054236295E-4,1.082531843E-3
6.305421930E-1,1.221694518E-3,-3.817795368E-4,1.527118147E-3,1.992581980E-3
6.329680780E-1,-0.000000000E0,-1.603474026E-3,-9.162708884E-4,1.846802992E-3
6.353939640E-1,-0.000000000E0,-9.926267667E-4,3.054236295E-4,1.038552594E-3
6.378198490E-1,6.108472589E-4,-3.817795368E-4,3.054236295E-4,7.824152235E-4
6.402457350E-1,6.108472589E-4,-9.926267667E-4,-3.054236295E-4,1.204875871E-3
6.426715680E-1,1.221694518E-3,-1.603474026E-3,3.054236295E-4,2.038859985E-3
6.450974530E-1,1.221694518E-3,-1.603474026E-3,1.527118147E-3,2.528983251E-3
6.475233390E-1,6.108472589E-4,-3.817795368E-4,-3.054236295E-4,7.824152235E-4
6.499492240E-1,6.108472589E-4,-9.926267667E-4,-3.054236295E-4,1.204875871E-3
6.523751100E-1,-6.108472589E-4,-9.926267667E-4,3.054236295E-4,1.204875871E-3
6.548009430E-1,6.108472589E-4,2.290677221E-4,-3.054236295E-4,7.203401894E-4
6.572268280E-1,-6.108472589E-4,1.450762269E-3,9.162708884E-4,1.821372525E-3
6.596527140E-1,-6.108472589E-4,-3.817795368E-4,9.162708884E-4,1.165522342E-3
6.620785990E-1,6.108472589E-4,-9.926267667E-4,-9.162708884E-4,1.482563527E-3
6.645044850E-1,6.108472589E-4,-1.603474026E-3,-3.054236295E-4,1.742855966E-3
6.669303180E-1,-0.000000000E0,2.290677221E-4,-3.054236295E-4,3.817795368E-4
6.693562030E-1,6.108472589E-4,2.290677221E-4,-3.054236295E-4,7.203401894E-4
6.717820890E-1,-0.000000000E0,2.290677221E-4,-3.054236295E-4,3.817795368E-4
6.742079740E-1,6.108472589E-4,2.290677221E-4,3.054236295E-4,7.203401894E-4
6.766338600E-1,1.221694518E-3,8.399150101E-4,3.054236295E-4,1.513696903E-3
6.790596930E-1,-0.000000000E0,8.399150101E-4,-9.162708884E-4,1.242984137E-3
6.814855780E-1,-0.000000000E0,2.290677221E-4,3.054236295E-4,3.817795368E-4
6.839114640E-1,1.221694518E-3,-9.926267667E-4,-3.054236295E-4,1.603474037E-3
6.863373490E-1,6.108472589E-4,-3.817795368E-4,3.054236295E-4,7.824152235E-4
6.887632350E-1,1.221694518E-3,8.399150101E-4,1.527118147E-3,2.128399529E-3
6.911890680E-1,1.221694518E-3,8.399150101E-4,3.054236295E-4,1.513696903E-3
6.936149530E-1,-0.000000000E0,1.450762269E-3,3.054236295E-4,1.482563575E-3
6.960408390E-1,-0.000000000E0,2.290677221E-4,3.054236295E-4,3.817795368E-4
6.984667240E-1,6.108472589E-4,2.290677221E-4,-3.054236295E-4,7.203401894E-4
7.008926100E-1,6.108472589E-4,-1.603474026E-3,9.162708884E-4,1.945203245E-3
7.033184430E-1,-1.221694518E-3,-9.926267667E-4,9.162708884E-4,1.821372486E-3
7.057443280E-1,6.108472589E-4,-9.926267667E-4,-3.054236295E-4,1.204875871E-3
7.081702140E-1,-6.108472589E-4,2.290677221E-4,9.162708884E-4,1.124792752E-3
7.105960990E-1,-0.000000000E0,2.290677221E-4,1.527118147E-3,1.544202661E-3
7.130219850E-1,-6.108472589E-4,8.399150101E-4,-9.162708884E-4,1.384970736E-3
7.154478180E-1,6.108472589E-4,2.290677221E-4,-9.162708884E-4,1.124792752E-3
7.178737030E-1,-6.108472589E-4,2.290677221E-4,3.054236295E-4,7.203401894E-4
7.202995890E-1,6.108472589E-4,-9.926267667E-4,-3.054236295E-4,1.204875871E-3
7.227254740E-1,-0.000000000E0,-3.817795368E-4,-3.054236295E-4,4.889163611E-4
7.251513600E-1,6.108472589E-4,2.290677221E-4,3.054236295E-4,7.203401894E-4
7.275772450E-1,1.221694518E-3,-9.926267667E-4,-1.527118147E-3,2.193156453E-3
7.300030780E-1,1.221694518E-3,2.290677221E-4,-9.162708884E-4,1.544202661E-3
7.324289640E-1,-0.000000000E0,-3.817795368E-4,-3.054236295E-4,4.889163611E-4
7.348548490E-1,-6.108472589E-4,2.290677221E-4,-3.054236295E-4,7.203401894E-4
7.372807350E-1,6.108472589E-4,8.399150101E-4,-3.054236295E-4,1.082531843E-3
7.397066200E-1,-0.000000000E0,2.290677221E-4,-3.054236295E-4,3.817795368E-4
7.421324530E-1,-0.000000000E0,2.290677221E-4,-1.527118147E-3,1.544202661E-3
7.445583390E-1,-0.000000000E0,-1.603474026E-3,-3.054236295E-4,1.632302835E-3
7.469842240E-1,-0.000000000E0,2.290677221E-4,9.162708884E-4,9.444704136E-4
7.494101100E-1,-6.108472589E-4,2.290677221E-4,-3.054236295E-4,7.203401894E-4
7.518359950E-1,-0.000000000E0,2.290677221E-4,-9.162708884E-4,9.444704136E-4
7.542618280E-1,-0.000000000E0,-3.817795368E-4,-9.162708884E-4,9.926267958E-4
7.566877140E-1,6.108472589E-4,-9.926267667E-4,-3.054236295E-4,1.204875871E-3
7.591135990E-1,1.221694518E-3,-9.926267667E-4,-3.054236295E-4,1.603474037E-3
7.615394850E-1,1.221694518E-3,2.290677221E-4,-3.054236295E-4,1.279958245E-3
7.639653700E-1,-6.108472589E-4,-3.817795368E-4,-3.054236295E-4,7.824152235E-4
7.663912030E-1,-0.000000000E0,-9.926267667E-4,3.054236295E-4,1.038552594E-3
7.688170890E-1,1.221694518E-3,2.290677221E-4,3.054236295E-4,1.279958245E-3
7.712429740E-1,6.108472589E-4,-3.817795368E-4,3.054236295E-4,7.824152235E-4
7.736688600E-1,-0.000000000E0,2.290677221E-4,-3.054236295E-4,3.817795368E-4
7.760947450E-1,-0.000000000E0,-3.817795368E-4,9.162708884E-4,9.926267958E-4
7.785206300E-1,-0.000000000E0,-3.817795368E-4,-3.054236295E-4,4.889163611E-4
7.809464640E-1,1.221694518E-3,-9.926267667E-4,-3.054236295E-4,1.603474037E-3
7.833723490E-1,6.108472589E-4,8.399150101E-4,-3.054236295E-4,1.082531843E-3
7.857982350E-1,6.108472589E-4,8.399150101E-4,-1.527118147E-3,1.846803031E-3
7.882241200E-1,3.054236295E-3,2.290677221E-4,3.054236295E-4,3.078005029E-3
7.906500050E-1,-6.108472589E-4,8.399150101E-4,9.162708884E-4,1.384970736E-3
7.930758390E-1,-6.108472589E-4,2.290677221E-4,9.162708884E-4,1.124792752E-3
7.955017240E-1,-6.108472589E-4,2.290677221E-4,3.054236295E-4,7.203401894E-4
7.979276100E-1,-0.000000000E0,8.399150101E-4,3.054236295E-4,8.937230095E-4
8.003534950E-1,-0.000000000E0,-3.817795368E-4,3.054236295E-4,4.889163611E-4
8.027793800E-1,6.108472589E-4,1.450762269E-3,9.162708884E-4,1.821372525E-3
8.052052140E-1,-0.000000000E0,2.290677221E-4,3.054236295E-4,3.817795368E-4
8.076310990E-1,1.221694518E-3,8.399150101E-4,-3.054236295E-4,1.513696903E-3
8.100569850E-1,-0.000000000E0,2.290677221E-4,3.054236295E-4,3.817795368E-4
8.124828700E-1,6.108472589E-4,8.399150101E-4,-3.054236295E-4,1.082531843E-3
8.149087550E-1,1.221694518E-3,-3.817795368E-4,-9.162708884E-4,1.574117356E-3
8.173345890E-1,-0.000000000E0,-3.817795368E-4,3.054236295E-4,4.889163611E-4
8.197604740E-1,-0.000000000E0,1.450762269E-3,-3.054236295E-4,1.482563575E-3
8.221863600E-1,6.108472589E-4,2.290677221E-4,-3.054236295E-4,7.203401894E-4
8.246122450E-1,-0.000000000E0,-9.926267667E-4,-9.162708884E-4,1.350873880E-3
8.270381300E-1,6.108472589E-4,-3.817795368E-4,3.054236295E-4,7.824152235E-4
8.294640160E-1,-6.108472589E-4,-1.603474026E-3,3.054236295E-4,1.742855966E-3
8.318898490E-1,-1.221694518E-3,-1.603474026E-3,3.054236295E-4,2.038859985E-3
8.343157350E-1,-0.000000000E0,-3.817795368E-4,9.162708884E-4,9.926267958E-4
8.367416200E-1,-0.000000000E0,2.290677221E-4,-9.162708884E-4,9.444704136E-4
8.391675050E-1,6.108472589E-4,2.290677221E-4,-9.162708884E-4,1.124792752E-3
8.415933910E-1,-6.108472589E-4,-9.926267667E-4,3.054236295E-4,1.204875871E-3
8.440192240E-1,6.108472589E-4,-2.214321401E-3,3.054236295E-4,2.317247771E-3
8.464451100E-1,6.108472589E-4,-9.926267667E-4,3.054236295E-4,1.204875871E-3
8.488709950E-1,1.221694518E-3,-9.926267667E-4,9.162708884E-4,1.821372486E-3
8.512968800E-1,-1.221694518E-3,-1.603474026E-3,-9.162708884E-4,2.214321293E-3
8.537227660E-1,1.221694518E-3,-3.817795368E-4,-3.054236295E-4,1.315893880E-3
8.561485990E-1,1.221694518E-3,2.290677221E-4,3.054236295E-4,1.279958245E-3
8.585744850E-1,6.108472589E-4,2.290677221E-4,9.162708884E-4,1.124792752E-3
8.610003700E-1,-6.108472589E-4,-3.817795368E-4,-3.054236295E-4,7.824152235E-4
8.634262550E-1,-0.000000000E0,8.399150101E-4,-1.527118147E-3,1.742856007E-3
8.658521410E-1,6.108472589E-4,-9.926267667E-4,3.054236295E-4,1.204875871E-3
8.682780260E-1,6.108472589E-4,2.290677221E-4,-3.054236295E-4,7.203401894E-4
8.707038600E-1,1.221694518E-3,-3.817795368E-4,1.527118147E-3,1.992581980E-3
8.731297450E-1,1.221694518E-3,2.290677221E-4,9.162708884E-4,1.544202661E-3
8.755556300E-1,-0.000000000E0,-3.817795368E-4,2.137965523E-3,2.171785485E-3
8.779815160E-1,6.108472589E-4,-9.926267667E-4,1.527118147E-3,1.921075768E-3
8.804074010E-1,1.221694518E-3,-3.817795368E-4,1.527118147E-3,1.992581980E-3
8.828332350E-1,1.832541777E-3,8.399150101E-4,-3.054236295E-4,2.038860020E-3
8.852591200E-1,-0.000000000E0,8.399150101E-4,-3.054236295E-4,8.937230095E-4
8.876850050E-1,1.221694518E-3,2.290677221E-4,3.054236295E-4,1.279958245E-3
8.901108910E-1,-0.000000000E0,-3.817795368E-4,9.162708884E-4,9.926267958E-4
8.925367760E-1,-0.000000000E0,-1.603474026E-3,-3.054236295E-4,1.632302835E-3
8.949626620E-1,-0.000000000E0,-9.926267667E-4,-9.162708884E-4,1.350873880E-3
8.973884950E-1,-0.000000000E0,2.290677221E-4,3.054236295E-4,3.817795368E-4
8.998143800E-1,6.108472589E-4,-3.817795368E-4,-9.162708884E-4,1.165522342E-3
9.022402660E-1,-6.108472589E-4,1.450762269E-3,3.054236295E-4,1.603474081E-3
9.046661510E-1,-1.221694518E-3,8.399150101E-4,3.054236295E-4,1.513696903E-3
9.070920370E-1,-0.000000000E0,-3.817795368E-4,2.137965523E-3,2.171785485E-3
9.095178700E-1,1.832541777E-3,-3.817795368E-4,3.054236295E-4,1.896641393E-3
9.119437550E-1,-6.108472589E-4,-3.817795368E-4,3.054236295E-4,7.824152235E-4
9.143696410E-1,-0.000000000E0,-3.817795368E-4,3.054236295E-4,4.889163611E-4
9.167955260E-1,-0.000000000E0,-1.603474026E-3,-3.054236295E-4,1.632302835E-3
9.192214120E-1,-0.000000000E0,2.290677221E-4,-9.162708884E-4,9.444704136E-4
9.216472450E-1,1.221694518E-3,8.399150101E-4,3.054236295E-4,1.513696903E-3
9.240731300E-1,-0.000000000E0,8.399150101E-4,3.054236295E-4,8.937230095E-4
9.264990160E-1,-6.108472589E-4,-3.817795368E-4,-3.054236295E-4,7.824152235E-4
9.289249010E-1,-0.000000000E0,-1.603474026E-3,9.162708884E-4,1.846802992E-3
9.313507870E-1,-0.000000000E0,-3.817795368E-4,-3.054236295E-4,4.889163611E-4
9.337766200E-1,1.221694518E-3,-3.817795368E-4,-3.054236295E-4,1.315893880E-3
9.362025050E-1,-0.000000000E0,2.290677221E-4,-3.054236295E-4,3.817795368E-4
9.386283910E-1,-6.108472589E-4,-1.603474026E-3,-3.054236295E-4,1.742855966E-3
9.410542760E-1,-0.000000000E0,8.399150101E-4,-3.054236295E-4,8.937230095E-4
9.434801620E-1,1.832541777E-3,8.399150101E-4,-3.054236295E-4,2.038860020E-3
9.459060470E-1,1.221694518E-3,2.290677221E-4,3.054236295E-4,1.279958245E-3
9.483318800E-1,1.832541777E-3,-1.603474026E-3,-1.527118147E-3,2.874270020E-3
9.507577660E-1,1.221694518E-3,-1.603474026E-3,-9.162708884E-4,2.214321293E-3
9.531836510E-1,-0.000000000E0,2.290677221E-4,-1.527118147E-3,1.544202661E-3
9.556095370E-1,6.108472589E-4,8.399150101E-4,-1.527118147E-3,1.846803031E-3
9.580354220E-1,1.221694518E-3,-3.817795368E-4,-3.054236295E-4,1.315893880E-3
9.604613080E-1,1.221694518E-3,-9.926267667E-4,9.162708884E-4,1.821372486E-3
9.628871410E-1,2.443389036E-3,-9.926267667E-4,-3.054236295E-4,2.654946604E-3
9.653130260E-1,1.221694518E-3,-3.817795368E-4,-3.054236295E-4,1.315893880E-3
9.677389120E-1,-0.000000000E0,8.399150101E-4,3.054236295E-4,8.937230095E-4
9.701647970E-1,6.108472589E-4,2.290677221E-4,3.054236295E-4,7.203401894E-4
9.725906830E-1,6.108472589E-4,-9.926267667E-4,-3.054236295E-4,1.204875871E-3
9.750165160E-1,1.221694518E-3,-9.926267667E-4,-3.054236295E-4,1.603474037E-3
9.774424010E-1,1.221694518E-3,-1.603474026E-3,3.054236295E-4,2.038859985E-3
9.798682870E-1,-0.000000000E0,-3.817795368E-4,3.054236295E-4,4.889163611E-4
9.822941720E-1,-6.108472589E-4,-1.603474026E-3,3.054236295E-4,1.742855966E-3
9.847200580E-1,-0.000000000E0,-1.603474026E-3,2.137965523E-3,2.672456834E-3
9.871458910E-1,1.832541777E-3,2.290677221E-4,9.162708884E-4,2.061609499E-3
9.895717760E-1,6.108472589E-4,2.290677221E-4,-3.054236295E-4,7.203401894E-4
9.919976620E-1,-0.000000000E0,2.290677221E-4,9.162708884E-4,9.444704136E-4
9.944235470E-1,-0.000000000E0,2.290677221E-4,-9.162708884E-4,9.444704136E-4
9.968494330E-1,-0.000000000E0,2.290677221E-4,-3.054236295E-4,3.817795368E-4
9.992753180E-1,-0.000000000E0,-3.817795368E-4,3.054236295E-4,4.889163611E-4
1.001701151E0,1.221694518E-3,8.399150101E-4,3.054236295E-4,1.513696903E-3
1.004127037E0,-1.221694518E-3,8.399150101E-4,-3.054236295E-4,1.513696903E-3
1.006552922E0,-0.000000000E0,-3.817795368E-4,-3.054236295E-4,4.889163611E-4
1.008978808E0,6.108472589E-4,-3.817795368E-4,-9.162708884E-4,1.165522342E-3
1.011404693E0,6.108472589E-4,-9.926267667E-4,-1.527118147E-3,1.921075768E-3
1.013830578E0,2.443389036E-3,2.290677221E-4,-3.054236295E-4,2.473035704E-3
1.016256412E0,6.108472589E-4,-3.817795368E-4,-3.054236295E-4,7.824152235E-4
1.018682297E0,6.108472589E-4,-3.817795368E-4,-3.054236295E-4,7.824152235E-4
1.021108183E0,-6.108472589E-4,2.290677221E-4,-1.527118147E-3,1.660631275E-3
1.023534068E0,6.108472589E-4,-9.926267667E-4,9.162708884E-4,1.482563527E-3
1.025959953E0,-0.000000000E0,-1.603474026E-3,3.054236295E-4,1.632302835E-3
1.028385787E0,-1.221694518E-3,8.399150101E-4,3.054236295E-4,1.513696903E-3
1.030811672E0,1.221694518E-3,-3.817795368E-4,-9.162708884E-4,1.574117356E-3
1.033237558E0,-0.000000000E0,2.290677221E-4,3.054236295E-4,3.817795368E-4
1.035663443E0,1.221694518E-3,-3.817795368E-4,-9.162708884E-4,1.574117356E-3
1.038089328E0,1.221694518E-3,2.290677221E-4,3.054236295E-4,1.279958245E-3
1.040515162E0,1.221694518E-3,-3.817795368E-4,-3.054236295E-4,1.315893880E-3
1.042941047E0,6.108472589E-4,-1.603474026E-3,9.162708884E-4,1.945203245E-3
1.045366933E0,-0.000000000E0,-9.926267667E-4,-3.054236295E-4,1.038552594E-3
1.047792818E0,-0.000000000E0,-3.817795368E-4,-9.162708884E-4,9.926267958E-4
1.050218703E0,1.221694518E-3,-3.817795368E-4,-3.054236295E-4,1.315893880E-3
1.052644537E0,-0.000000000E0,2.061609412E-3,9.162708884E-4,2.256055342E-3
1.055070422E0,-0.000000000E0,2.290677221E-4,9.162708884E-4,9.444704136E-4
1.057496308E0,2.443389036E-3,-9.926267667E-4,9.162708884E-4,2.791954552E-3
1.059922193E0,1.221694518E-3,2.290677221E-4,2.137965523E-3,2.473035805E-3
1.062348078E0,1.221694518E-3,-9.926267667E-4,9.162708884E-4,1.821372486E-3
1.064773964E0,-6.108472589E-4,8.399150101E-4,-9.162708884E-4,1.384970736E-3
1.067199849E0,1.221694518E-3,-9.926267667E-4,-3.054236295E-4,1.603474037E-3
1.069625683E0,-0.000000000E0,-3.817795368E-4,-9.162708884E-4,9.926267958E-4
1.072051568E0,1.221694518E-3,-3.817795368E-4,3.054236295E-4,1.315893880E-3
1.074477453E0,-0.000000000E0,-3.817795368E-4,9.162708884E-4,9.926267958E-4
1.076903339E0,-6.108472589E-4,-3.817795368E-4,3.054236295E-4,7.824152235E-4
1.079329224E0,6.108472589E-4,-9.926267667E-4,3.054236295E-4,1.204875871E-3
1.081755058E0,6.108472589E-4,-3.817795368E-4,9.162708884E-4,1.165522342E-3
1.084180943E0,6.108472589E-4,2.290677221E-4,9.162708884E-4,1.124792752E-3
1.086606828E0,-0.000000000E0,2.290677221E-4,9.162708884E-4,9.444704136E-4
1.089032714E0,6.108472589E-4,-9.926267667E-4,1.527118147E-3,1.921075768E-3
1.091458599E0,-0.000000000E0,-1.603474026E-3,-2.137965523E-3,2.672456834E-3
1.093884433E0,1.221694518E-3,-3.817795368E-4,9.162708884E-4,1.574117356E-3
1.096310318E0,-6.108472589E-4,-1.603474026E-3,9.162708884E-4,1.945203245E-3
1.098736203E0,-0.000000000E0,-3.817795368E-4,3.054236295E-4,4.889163611E-4
1.101162089E0,-6.108472589E-4,2.290677221E-4,-3.054236295E-4,7.203401894E-4
1.103587974E0,-6.108472589E-4,2.290677221E-4,2.137965523E-3,2.235285881E-3
1.106013860E0,-1.221694518E-3,8.399150101E-4,-9.162708884E-4,1.742856007E-3
1.108439693E0,-6.108472589E-4,2.290677221E-4,-3.054236295E-4,7.203401894E-4
1.110865578E0,-0.000000000E0,-3.817795368E-4,-3.054236295E-4,4.889163611E-4
1.113291464E0,-1.221694518E-3,-3.817795368E-4,3.054236295E-4,1.315893880E-3
1.115717349E0,-0.000000000E0,-3.817795368E-4,-9.162708884E-4,9.926267958E-4
1.118143235E0,1.221694518E-3,-3.817795368E-4,-3.054236295E-4,1.315893880E-3
1.120569068E0,6.108472589E-4,8.399150101E-4,3.054236295E-4,1.082531843E-3
1.122994953E0,-0.000000000E0,-9.926267667E-4,-9.162708884E-4,1.350873880E-3
1.125420839E0,-6.108472589E-4,-9.926267667E-4,-1.527118147E-3,1.921075768E-3
1.127846724E0,1.221694518E-3,-9.926267667E-4,-1.527118147E-3,2.193156453E-3
1.130272610E0,1.221694518E-3,2.290677221E-4,-2.137965523E-3,2.473035805E-3
1.132698495E0,1.221694518E-3,-3.817795368E-4,-1.527118147E-3,1.992581980E-3
1.135124328E0,-0.000000000E0,-3.817795368E-4,3.054236295E-4,4.889163611E-4
1.137550214E0,-0.000000000E0,-9.926267667E-4,9.162708884E-4,1.350873880E-3
1.139976099E0,-6.108472589E-4,-1.603474026E-3,-3.054236295E-4,1.742855966E-3
1.142401985E0,-6.108472589E-4,-1.603474026E-3,-3.054236295E-4,1.742855966E-3
1.144827870E0,-6.108472589E-4,8.399150101E-4,9.162708884E-4,1.384970736E-3
1.147253755E0,-6.108472589E-4,8.399150101E-4,3.054236295E-4,1.082531843E-3
1.149679589E0,-0.000000000E0,2.290677221E-4,9.162708884E-4,9.444704136E-4
1.152105474E0,6.108472589E-4,-3.817795368E-4,-3.054236295E-4,7.824152235E-4
1.154531360E0,6.108472589E-4,-1.603474026E-3,3.054236295E-4,1.742855966E-3
1.156957245E0,-0.000000000E0,-3.817795368E-4,-3.054236295E-4,4.889163611E-4
1.159383130E0,6.108472589E-4,-9.926267667E-4,3.054236295E-4,1.204875871E-3
1.161808964E0,-1.221694518E-3,2.290677221E-4,3.054236295E-4,1.279958245E-3
1.164234849E0,6.108472589E-4,2.290677221E-4,9.162708884E-4,1.124792752E-3
1.166660735E0,-6.108472589E-4,2.290677221E-4,3.054236295E-4,7.203401894E-4
1.169086620E0,-0.000000000E0,-9.926267667E-4,9.162708884E-4,1.350873880E-3
1.171512505E0,-0.000000000E0,-3.817795368E-4,3.054236295E-4,4.889163611E-4
1.173938391E0,6.108472589E-4,2.290677221E-4,-9.162708884E-4,1.124792752E-3
1.176364224E0,-0.000000000E0,-3.817795368E-4,9.162708884E-4,9.926267958E-4
1.178790110E0,-6.108472589E-4,-3.817795368E-4,3.054236295E-4,7.824152235E-4
1.181215995E0,6.108472589E-4,-1.603474026E-3,9.162708884E-4,1.945203245E-3
1.183641880E0,-0.000000000E0,2.290677221E-4,-3.054236295E-4,3.817795368E-4
1.186067766E0,-6.108472589E-4,-3.817795368E-4,9.162708884E-4,1.165522342E-3
1.188493651E0,-1.832541777E-3,8.399150101E-4,-1.527118147E-3,2.528983279E-3
1.190919485E0,-0.000000000E0,-3.817795368E-4,3.054236295E-4,4.889163611E-4
1.193345370E0,1.832541777E-3,-3.817795368E-4,9.162708884E-4,2.084110678E-3
1.195771255E0,-6.108472589E-4,8.399150101E-4,3.054236295E-4,1.082531843E-3
1.198197141E0,-0.000000000E0,-3.817795368E-4,-1.527118147E-3,1.574117356E-3
1.200623026E0,6.108472589E-4,8.399150101E-4,3.054236295E-4,1.082531843E-3
1.203048860E0,-6.108472589E-4,8.399150101E-4,9.162708884E-4,1.384970736E-3
1.205474745E0,-6.108472589E-4,-3.817795368E-4,-9.162708884E-4,1.165522342E-3
1.207900630E0,-0.000000000E0,-9.926267667E-4,3.054236295E-4,1.038552594E-3
1.210326516E0,6.108472589E-4,-3.817795368E-4,3.054236295E-4,7.824152235E-4
1.212752401E0,-1.221694518E-3,-9.926267667E-4,9.162708884E-4,1.821372486E-3
1.215178287E0,-0.000000000E0,-3.817795368E-4,-3.054236295E-4,4.889163611E-4
1.217604120E0,-1.221694518E-3,2.290677221E-4,-9.162708884E-4,1.544202661E-3
1.220030005E0,-6.108472589E-4,-3.817795368E-4,3.054236295E-4,7.824152235E-4
1.222455891E0,-0.000000000E0,-9.926267667E-4,-3.054236295E-4,1.038552594E-3
1.224881776E0,-6.108472589E-4,2.290677221E-4,3.054236295E-4,7.203401894E-4
1.227307662E0,-0.000000000E0,-3.817795368E-4,-3.054236295E-4,4.889163611E-4
1.229733495E0,-0.000000000E0,-3.817795368E-4,-3.054236295E-4,4.889163611E-4
1.232159380E0,-0.000000000E0,-3.817795368E-4,1.527118147E-3,1.574117356E-3
1.234585266E0,1.221694518E-3,-3.817795368E-4,2.137965523E-3,2.491824570E-3
1.237011151E0,2.443389036E-3,8.399150101E-4,3.054236295E-4,2.601709207E-3
1.239437037E0,-0.000000000E0,2.290677221E-4,9.162708884E-4,9.444704136E-4
1.241862922E0,1.221694518E-3,-9.926267667E-4,3.054236295E-4,1.603474037E-3
1.244288808E0,-6.108472589E-4,2.290677221E-4,3.054236295E-4,7.203401894E-4
1.246714641E0,-6.108472589E-4,-3.817795368E-4,3.054236295E-4,7.824152235E-4
1.249140526E0,-0.000000000E0,-3.817795368E-4,9.162708884E-4,9.926267958E-4
1.251566412E0,6.108472589E-4,2.290677221E-4,9.162708884E-4,1.124792752E-3
1.253992297E0,-6.108472589E-4,-3.817795368E-4,-1.527118147E-3,1.688484476E-3
1.256418130E0,-1.221694518E-3,2.290677221E-4,-3.054236295E-4,1.279958245E-3
1.258844016E0,6.108472589E-4,2.290677221E-4,-1.527118147E-3,1.660631275E-3
1.261269901E0,-0.000000000E0,2.290677221E-4,-9.162708884E-4,9.444704136E-4
1.263695787E0,-1.221694518E-3,-3.817795368E-4,3.054236295E-4,1.315893880E-3
1.266121672E0,1.221694518E-3,2.290677221E-4,9.162708884E-4,1.544202661E-3
1.268547558E0,6.108472589E-4,-3.817795368E-4,-9.162708884E-4,1.165522342E-3
1.270973443E0,6.108472589E-4,-3.817795368E-4,-9.162708884E-4,1.165522342E-3
1.273399276E0,-1.221694518E-3,-3.817795368E-4,3.054236295E-4,1.315893880E-3
1.275825162E0,-1.221694518E-3,-9.926267667E-4,-3.054236295E-4,1.603474037E-3
1.278251047E0,6.108472589E-4,2.290677221E-4,-3.054236295E-4,7.203401894E-4
1.280676933E0,1.832541777E-3,-3.817795368E-4,-9.162708884E-4,2.084110678E-3
1.283102818E0,6.108472589E-4,2.290677221E-4,-9.162708884E-4,1.124792752E-3
1.285528651E0,-0.000000000E0,8.399150101E-4,-2.137965523E-3,2.297031519E-3
1.287954537E0,1.221694518E-3,-3.817795368E-4,-9.162708884E-4,1.574117356E-3
1.290380422E0,6.108472589E-4,2.290677221E-4,9.162708884E-4,1.124792752E-3
1.292806308E0,-0.000000000E0,8.399150101E-4,-3.054236295E-4,8.937230095E-4
1.295232193E0,-0.000000000E0,8.399150101E-4,3.054236295E-4,8.937230095E-4
1.297658078E0,1.221694518E-3,-3.817795368E-4,3.054236295E-4,1.315893880E-3
1.300083912E0,6.108472589E-4,-9.926267667E-4,3.054236295E-4,1.204875871E-3
1.302509797E0,6.108472589E-4,2.290677221E-4,3.054236295E-4,7.203401894E-4
1.304935683E0,1.221694518E-3,-1.603474026E-3,3.054236295E-4,2.038859985E-3
1.307361568E0,6.108472589E-4,-1.603474026E-3,3.054236295E-4,1.742855966E-3
1.309787453E0,-0.000000000E0,2.290677221E-4,9.162708884E-4,9.444704136E-4
1.312213287E0,6.108472589E-4,-3.817795368E-4,3.054236295E-4,7.824152235E-4
1.314639172E0,1.221694518E-3,8.399150101E-4,1.527118147E-3,2.128399529E-3
1.317065058E0,6.108472589E-4,8.399150101E-4,3.054236295E-4,1.082531843E-3
1.319490943E0,-6.108472589E-4,-9.926267667E-4,-9.162708884E-4,1.482563527E-3
1.321916828E0,6.108472589E-4,2.290677221E-4,3.054236295E-4,7.203401894E-4
1.324342714E0,6.108472589E-4,2.290677221E-4,1.527118147E-3,1.660631275E-3
1.326768547E0,-0.000000000E0,8.399150101E-4,-3.054236295E-4,8.937230095E-4
1.329194433E0,-1.221694518E-3,8.399150101E-4,3.054236295E-4,1.513696903E-3
1.331620318E0,-6.108472589E-4,-2.214321401E-3,-9.162708884E-4,2.473035782E-3
1.334046203E0,-0.000000000E0,-1.603474026E-3,-3.054236295E-4,1.632302835E-3
1.336472089E0,-0.000000000E0,-3.817795368E-4,3.054236295E-4,4.889163611E-4
1.338897974E0,1.221694518E-3,-3.817795368E-4,-9.162708884E-4,1.574117356E-3
1.341323808E0,6.108472589E-4,-1.603474026E-3,-9.162708884E-4,1.945203245E-3
1.343749693E0,-0.000000000E0,-1.603474026E-3,-3.054236295E-4,1.632302835E-3
1.346175578E0,-6.108472589E-4,-9.926267667E-4,-1.527118147E-3,1.921075768E-3
1.348601464E0,-6.108472589E-4,2.290677221E-4,-1.527118147E-3,1.660631275E-3
1.351027349E0,6.108472589E-4,2.290677221E-4,-1.527118147E-3,1.660631275E-3
1.353453183E0,-0.000000000E0,8.399150101E-4,1.527118147E-3,1.742856007E-3
1.355879068E0,6.108472589E-4,-3.817795368E-4,-1.527118147E-3,1.688484476E-3
1.358304953E0,-6.108472589E-4,-3.817795368E-4,3.054236295E-4,7.824152235E-4
1.360730839E0,-6.108472589E-4,8.399150101E-4,3.054236295E-4,1.082531843E-3
1.363156724E0,1.221694518E-3,-9.926267667E-4,3.054236295E-4,1.603474037E-3
1.365582610E0,1.221694518E-3,-9.926267667E-4,-9.162708884E-4,1.821372486E-3
1.368008443E0,-0.000000000E0,-3.817795368E-4,-9.162708884E-4,9.926267958E-4
1.370434328E0,-0.000000000E0,2.290677221E-4,3.054236295E-4,3.817795368E-4
1.372860214E0,-0.000000000E0,2.290677221E-4,-3.054236295E-4,3.817795368E-4
1.375286099E0,-0.000000000E0,2.290677221E-4,1.527118147E-3,1.544202661E-3
1.377711985E0,-6.108472589E-4,-9.926267667E-4,-3.054236295E-4,1.204875871E-3
1.380137870E0,-0.000000000E0,-9.926267667E-4,9.162708884E-4,1.350873880E-3
1.382563703E0,-0.000000000E0,-3.817795368E-4,-9.162708884E-4,9.926267958E-4
1.384989589E0,1.221694518E-3,-9.926267667E-4,3.054236295E-4,1.603474037E-3
1.387415474E0,6.108472589E-4,-9.926267667E-4,3.054236295E-4,1.204875871E-3
1.389841360E0,6.108472589E-4,-3.817795368E-4,9.162708884E-4,1.165522342E-3
1.392267245E0,-6.108472589E-4,-1.603474026E-3,3.054236295E-4,1.742855966E-3
1.394693130E0,1.221694518E-3,2.290677221E-4,-9.162708884E-4,1.544202661E-3
1.397118964E0,1.221694518E-3,8.399150101E-4,-3.054236295E-4,1.513696903E-3
1.399544849E0,-6.108472589E-4,-3.817795368E-4,9.162708884E-4,1.165522342E-3
1.401970735E0,6.108472589E-4,2.290677221E-4,1.527118147E-3,1.660631275E-3
1.404396620E0,-0.000000000E0,-9.926267667E-4,3.054236295E-4,1.038552594E-3
1.406822505E0,6.108472589E-4,-3.817795368E-4,-3.054236295E-4,7.824152235E-4
1.409248339E0,1.221694518E-3,-3.817795368E-4,-3.054236295E-4,1.315893880E-3
1.411674224E0,-6.108472589E-4,2.290677221E-4,9.162708884E-4,1.124792752E-3
1.414100110E0,-0.000000000E0,2.290677221E-4,9.162708884E-4,9.444704136E-4
1.416525995E0,-6.108472589E-4,-3.817795368E-4,-1.527118147E-3,1.688484476E-3
1.418951880E0,1.221694518E-3,-3.817795368E-4,-3.054236295E-4,1.315893880E-3
1.421377766E0,1.221694518E-3,-3.817795368E-4,1.527118147E-3,1.992581980E-3
1.423803599E0,1.221694518E-3,-3.817795368E-4,9.162708884E-4,1.574117356E-3
1.426229485E0,-0.000000000E0,-9.926267667E-4,9.162708884E-4,1.350873880E-3
1.428655370E0,-0.000000000E0,-9.926267667E-4,-3.054236295E-4,1.038552594E-3
1.431081255E0,-6.108472589E-4,-9.926267667E-4,-9.162708884E-4,1.482563527E-3
1.433507141E0,6.108472589E-4,-3.817795368E-4,2.137965523E-3,2.256055532E-3
1.435933026E0,-6.108472589E-4,-3.817795368E-4,9.162708884E-4,1.165522342E-3
1.438358860E0,-0.000000000E0,-9.926267667E-4,3.054236295E-4,1.038552594E-3
1.440784745E0,-0.000000000E0,-3.817795368E-4,3.054236295E-4,4.889163611E-4
1.443210630E0,-0.000000000E0,2.290677221E-4,-9.162708884E-4,9.444704136E-4
1.445636516E0,-6.108472589E-4,-2.214321401E-3,3.054236295E-4,2.317247771E-3
1.448062401E0,-0.000000000E0,-3.817795368E-4,3.054236295E-4,4.889163611E-4
1.450488287E0,-0.000000000E0,-3.817795368E-4,-3.054236295E-4,4.889163611E-4
1.452914120E0,1.832541777E-3,2.290677221E-4,-1.527118147E-3,2.396407983E-3
1.455340005E0,-0.000000000E0,-9.926267667E-4,-9.162708884E-4,1.350873880E-3
1.457765891E0,-1.832541777E-3,-9.926267667E-4,3.054236295E-4,2.106371490E-3
1.460191776E0,-1.221694518E-3,-3.817795368E-4,-3.054236295E-4,1.315893880E-3
1.462617662E0,-0.000000000E0,8.399150101E-4,9.162708884E-4,1.242984137E-3
1.465043547E0,-0.000000000E0,1.450762269E-3,9.162708884E-4,1.715885632E-3
1.467469380E0,-0.000000000E0,8.399150101E-4,-3.054236295E-4,8.937230095E-4
1.469895266E0,-6.108472589E-4,-9.926267667E-4,-3.054236295E-4,1.204875871E-3
1.472321151E0,6.108472589E-4,-1.603474026E-3,-3.054236295E-4,1.742855966E-3
1.474747037E0,-6.108472589E-4,2.290677221E-4,9.162708884E-4,1.124792752E-3
1.477172922E0,1.221694518E-3,-3.817795368E-4,-3.054236295E-4,1.315893880E-3
1.479598755E0,-0.000000000E0,-3.817795368E-4,-1.527118147E-3,1.574117356E-3
1.482024641E0,1.832541777E-3,2.290677221E-4,-9.162708884E-4,2.061609499E-3
1.484450526E0,1.221694518E-3,-9.926267667E-4,-3.054236295E-4,1.603474037E-3
1.486876412E0,6.108472589E-4,-3.817795368E-4,1.527118147E-3,1.688484476E-3
1.489302297E0,-0.000000000E0,8.399150101E-4,9.162708884E-4,1.242984137E-3
1.491728130E0,-0.000000000E0,-3.817795368E-4,3.054236295E-4,4.889163611E-4
1.494154016E0,6.108472589E-4,-3.817795368E-4,3.054236295E-4,7.824152235E-4
1.496579901E0,1.221694518E-3,-3.817795368E-4,-3.054236295E-4,1.315893880E-3
1.499005787E0,6.108472589E-4,-3.817795368E-4,9.162708884E-4,1.165522342E-3
1.501431672E0,1.221694518E-3,8.399150101E-4,1.527118147E-3,2.128399529E-3
1.503857558E0,-0.000000000E0,2.290677221E-4,-3.054236295E-4,3.817795368E-4
1.506283391E0,6.108472589E-4,2.290677221E-4,3.054236295E-4,7.203401894E-4
1.508709276E0,1.221694518E-3,-3.817795368E-4,3.054236295E-4,1.315893880E-3
1.511135162E0,6.108472589E-4,8.399150101E-4,-3.054236295E-4,1.082531843E-3
1.513561047E0,6.108472589E-4,8.399150101E-4,-9.162708884E-4,1.384970736E-3
1.515986933E0,-0.000000000E0,8.399150101E-4,-3.054236295E-4,8.937230095E-4
1.518412818E0,-0.000000000E0,8.399150101E-4,3.054236295E-4,8.937230095E-4
1.520838703E0,1.221694518E-3,8.399150101E-4,3.054236295E-4,1.513696903E-3
1.523264537E0,6.108472589E-4,-3.817795368E-4,-3.054236295E-4,7.824152235E-4
1.525690422E0,-0.000000000E0,8.399150101E-4,1.527118147E-3,1.742856007E-3
1.528116308E0,6.108472589E-4,8.399150101E-4,-9.162708884E-4,1.384970736E-3
1.530542193E0,6.108472589E-4,2.290677221E-4,9.162708884E-4,1.124792752E-3
1.532968078E0,-0.000000000E0,-3.817795368E-4,9.162708884E-4,9.926267958E-4
1.535393964E0,1.221694518E-3,2.290677221E-4,3.054236295E-4,1.279958245E-3
1.537819797E0,1.221694518E-3,2.290677221E-4,9.162708884E-4,1.544202661E-3
1.540245683E0,-0.000000000E0,-3.817795368E-4,3.054236295E-4,4.889163611E-4
1.542671568E0,6.108472589E-4,-3.817795368E-4,9.162708884E-4,1.165522342E-3
1.545097453E0,6.108472589E-4,2.290677221E-4,-3.054236295E-4,7.203401894E-4
1.547523339E0,6.108472589E-4,2.290677221E-4,-3.054236295E-4,7.203401894E-4
1.549949172E0,1.221694518E-3,-3.817795368E-4,-9.162708884E-4,1.574117356E-3
1.552375058E0,-0.000000000E0,-9.926267667E-4,-3.054236295E-4,1.038552594E-3
1.554800943E0,-0.000000000E0,2.290677221E-4,-3.054236295E-4,3.817795368E-4
1.557226828E0,6.108472589E-4,-3.817795368E-4,-9.162708884E-4,1.165522342E-3
1.559652714E0,-0.000000000E0,-3.817795368E-4,-9.162708884E-4,9.926267958E-4
1.562078599E0,-0.000000000E0,2.290677221E-4,3.054236295E-4,3.817795368E-4
1.564504433E0,-6.108472589E-4,2.290677221E-4,3.054236295E-4,7.203401894E-4
1.566930318E0,6.108472589E-4,2.290677221E-4,3.054236295E-4,7.203401894E-4
1.569356203E0,6.108472589E-4,2.290677221E-4,1.527118147E-3,1.660631275E-3
1.571782089E0,-6.108472589E-4,8.399150101E-4,3.054236295E-4,1.082531843E-3
1.574207974E0,-0.000000000E0,2.290677221E-4,9.162708884E-4,9.444704136E-4
1.576633860E0,-0.000000000E0,-3.817795368E-4,9.162708884E-4,9.926267958E-4
1.579059693E0,1.221694518E-3,-2.214321401E-3,-3.054236295E-4,2.547359487E-3
1.581485578E0,-0.000000000E0,-1.603474026E-3,-3.054236295E-4,1.632302835E-3
1.583911464E0,-0.000000000E0,-3.817795368E-4,9.162708884E-4,9.926267958E-4
1.586337349E0,1.832541777E-3,-1.603474026E-3,-9.162708884E-4,2.601709180E-3
1.588763235E0,1.221694518E-3,2.290677221E-4,-9.162708884E-4,1.544202661E-3
1.591189068E0,6.108472589E-4,8.399150101E-4,-3.054236295E-4,1.082531843E-3
1.593614953E0,6.108472589E-4,2.290677221E-4,3.054236295E-4,7.203401894E-4
1.596040839E0,1.832541777E-3,-3.817795368E-4,-9.162708884E-4,2.084110678E-3
1.598466724E0,-0.000000000E0,-9.926267667E-4,-3.054236295E-4,1.038552594E-3
1.600892610E0,-1.450762269E-3,1.679830020E-3,-9.162708884E-4,2.401268914E-3
1.603318495E0,9.926267667E-4,4.581354442E-4,-3.054236295E-4,1.135112143E-3
1.605744380E0,-2.290677221E-4,-7.635590737E-4,3.054236295E-4,8.536849968E-4
1.608170214E0,9.926267667E-4,-1.527118147E-4,3.054236295E-4,1.049720148E-3
1.610596099E0,3.817795368E-4,-7.635590737E-4,-3.054236295E-4,9.066761644E-4
1.613021985E0,-8.399150101E-4,-1.527118147E-4,-9.162708884E-4,1.252330014E-3
1.615447870E0,3.817795368E-4,1.068982761E-3,9.162708884E-4,1.458777605E-3
1.617873755E0,9.926267667E-4,4.581354442E-4,9.162708884E-4,1.426446047E-3
1.620299589E0,3.817795368E-4,-7.635590737E-4,-3.054236295E-4,9.066761644E-4
1.622725474E0,-2.290677221E-4,4.581354442E-4,-9.162708884E-4,1.049720176E-3
1.625151360E0,-2.290677221E-4,-1.985253533E-3,-3.054236295E-4,2.021629839E-3
1.627577245E0,-2.290677221E-4,4.581354442E-4,9.162708884E-4,1.049720176E-3
1.630003130E0,3.817795368E-4,4.581354442E-4,-3.054236295E-4,6.700203679E-4
1.632429016E0,-2.290677221E-4,-1.527118147E-4,-1.527118147E-3,1.551735401E-3
1.634854849E0,9.926267667E-4,1.679830020E-3,-1.527118147E-3,2.477746281E-3
1.637280735E0,-8.399150101E-4,4.581354442E-4,-3.054236295E-4,1.004305184E-3
1.639706620E0,-2.290677221E-4,-1.527118147E-4,-3.054236295E-4,4.111891452E-4
1.642132505E0,-2.290677221E-4,4.581354442E-4,-3.054236295E-4,5.963587008E-4
1.644558391E0,3.817795368E-4,-7.635590737E-4,9.162708884E-4,1.252329994E-3
1.646984276E0,-2.290677221E-4,4.581354442E-4,1.527118147E-3,1.610729630E-3
1.649410110E0,3.817795368E-4,-7.635590737E-4,3.054236295E-4,9.066761644E-4
1.651835995E0,3.817795368E-4,-1.527118147E-4,-9.162708884E-4,1.004305160E-3
1.654261880E0,9.926267667E-4,1.679830020E-3,-3.054236295E-4,1.974948199E-3
1.656687766E0,9.926267667E-4,1.068982761E-3,-3.054236295E-4,1.490407876E-3
1.659113651E0,-2.290677221E-4,2.290677279E-3,-9.162708884E-4,2.477746307E-3
1.661539537E0,1.603474026E-3,1.068982761E-3,9.162708884E-4,2.133870998E-3
1.663965370E0,1.603474026E-3,4.581354442E-4,3.054236295E-4,1.695376250E-3
1.666391255E0,9.926267667E-4,-1.527118147E-4,9.162708884E-4,1.359478259E-3
1.668817141E0,-8.399150101E-4,-1.527118147E-4,-3.054236295E-4,9.066761914E-4
1.671243026E0,-2.290677221E-4,-1.527118147E-4,3.054236295E-4,4.111891452E-4
1.673668912E0,-2.290677221E-4,4.581354442E-4,-3.054236295E-4,5.963587008E-4
1.676094745E0,9.926267667E-4,-1.527118147E-4,3.054236295E-4,1.049720148E-3
1.678520630E0,-2.290677221E-4,4.581354442E-4,-3.054236295E-4,5.963587008E-4
1.680946516E0,3.817795368E-4,-1.374406274E-3,3.054236295E-4,1.458777507E-3
1.683372401E0,-2.290677221E-4,-1.527118147E-4,-9.162708884E-4,9.567367771E-4
1.685798287E0,-1.450762269E-3,4.581354442E-4,3.054236295E-4,1.551735429E-3
1.688224172E0,3.817795368E-4,-7.635590737E-4,9.162708884E-4,1.252329994E-3
1.690650058E0,3.054236295E-4,-1.985253533E-3,-3.054236295E-4,2.031698496E-3
1.693075891E0,9.162708884E-4,-1.527118147E-4,-3.054236295E-4,9.778327223E-4
1.695501776E0,-3.054236295E-4,4.581354442E-4,-9.162708884E-4,1.068982703E-3
1.697927662E0,-3.054236295E-4,4.581354442E-4,-3.054236295E-4,6.296469424E-4
1.700353547E0,-9.162708884E-4,2.290677279E-3,9.162708884E-4,2.631787810E-3
1.702779433E0,3.054236295E-4,-1.527118147E-4,-9.162708884E-4,9.778327223E-4
1.705205266E0,-3.054236295E-4,-2.290677221E-4,3.054236295E-4,4.889163611E-4
1.707631151E0,-9.162708884E-4,3.817795368E-4,9.162708884E-4,1.350873901E-3
1.710057037E0,-3.054236295E-4,1.603474026E-3,1.527118147E-3,2.235285749E-3
1.712482922E0,3.054236295E-4,-2.290677221E-4,3.054236295E-4,4.889163611E-4
1.714908808E0,3.054236295E-4,-1.450762269E-3,-1.527118147E-3,2.128399537E-3
1.717334693E0,3.054236295E-4,3.817795368E-4,3.054236295E-4,5.764744588E-4
1.719760526E0,-9.162708884E-4,3.817795368E-4,3.054236295E-4,1.038552622E-3
1.722186412E0,-3.054236295E-4,-8.399150101E-4,-3.054236295E-4,9.444704395E-4
1.724612297E0,-3.054236295E-4,-2.290677221E-4,-9.162708884E-4,9.926267958E-4
1.727038183E0,-3.054236295E-4,-2.290677221E-4,-3.054236295E-4,4.889163611E-4
1.729464068E0,-3.054236295E-4,3.817795368E-4,-1.527118147E-3,1.603474055E-3
1.731889953E0,-3.054236295E-4,-2.290677221E-4,1.527118147E-3,1.574117356E-3
1.734315787E0,3.054236295E-4,3.817795368E-4,-9.162708884E-4,1.038552622E-3
1.736741672E0,3.054236295E-4,3.817795368E-4,-3.054236295E-4,5.764744588E-4
1.739167558E0,-3.054236295E-4,3.817795368E-4,-3.054236295E-4,5.764744588E-4
1.741593443E0,3.054236295E-4,-8.399150101E-4,3.054236295E-4,9.444704395E-4
1.744019328E0,-3.054236295E-4,-2.061609412E-3,3.054236295E-4,2.106371419E-3
1.746445214E0,-9.162708884E-4,-2.290677221E-4,9.162708884E-4,1.315893880E-3
1.748871047E0,-9.162708884E-4,3.817795368E-4,1.527118147E-3,1.821372502E-3
1.751296933E0,-3.054236295E-4,-2.290677221E-4,-9.162708884E-4,9.926267958E-4
1.753722818E0,-3.054236295E-4,-2.290677221E-4,-3.054236295E-4,4.889163611E-4
1.756148703E0,3.054236295E-4,3.817795368E-4,-3.054236295E-4,5.764744588E-4
1.758574589E0,3.054236295E-4,3.817795368E-4,3.054236295E-4,5.764744588E-4
1.761000474E0,3.054236295E-4,-8.399150101E-4,1.527118147E-3,1.769415342E-3
1.763426308E0,3.054236295E-4,-2.290677221E-4,1.527118147E-3,1.574117356E-3
1.765852193E0,-3.054236295E-4,-8.399150101E-4,9.162708884E-4,1.279958264E-3
1.768278078E0,-3.054236295E-4,-2.061609412E-3,-9.162708884E-4,2.276635522E-3
1.770703964E0,-3.054236295E-4,-2.290677221E-4,3.054236295E-4,4.889163611E-4
1.773129849E0,9.162708884E-4,-2.061609412E-3,-9.162708884E-4,2.435023213E-3
1.775555735E0,-3.054236295E-4,-1.450762269E-3,3.054236295E-4,1.513696914E-3
1.777981568E0,3.054236295E-4,-2.061609412E-3,-3.054236295E-4,2.106371419E-3
1.780407453E0,1.527118147E-3,-2.672456671E-3,-3.054236295E-4,3.093121091E-3
1.782833339E0,-2.137965523E-3,-2.290677221E-4,-3.054236295E-4,2.171785485E-3
1.785259224E0,1.527118147E-3,-8.399150101E-4,-3.054236295E-4,1.769415342E-3
1.787685110E0,3.054236295E-4,-1.450762269E-3,9.162708884E-4,1.742856017E-3
1.790110943E0,9.162708884E-4,9.926267667E-4,-9.162708884E-4,1.632302846E-3
1.792536828E0,-3.054236295E-4,3.817795368E-4,-3.054236295E-4,5.764744588E-4
1.794962714E0,3.054236295E-4,9.926267667E-4,-1.527118147E-3,1.846803002E-3
1.797388599E0,-3.054236295E-4,9.926267667E-4,-9.162708884E-4,1.384970697E-3
1.799814485E0,3.054236295E-4,-2.290677221E-4,3.054236295E-4,4.889163611E-4
1.802240370E0,-3.054236295E-4,-8.399150101E-4,-3.054236295E-4,9.444704395E-4
1.804666203E0,3.054236295E-4,-2.290677221E-4,-3.054236295E-4,4.889163611E-4
1.807092089E0,9.162708884E-4,-1.450762269E-3,-3.054236295E-4,1.742856017E-3
1.809517974E0,-3.054236295E-4,-2.290677221E-4,3.054236295E-4,4.889163611E-4
1.811943860E0,3.054236295E-4,3.817795368E-4,3.054236295E-4,5.764744588E-4
1.814369745E0,-1.527118147E-3,3.817795368E-4,9.162708884E-4,1.821372502E-3
1.816795630E0,-9.162708884E-4,-2.290677221E-4,3.054236295E-4,9.926267958E-4
1.819221516E0,-3.054236295E-4,-1.450762269E-3,3.054236295E-4,1.513696914E-3
1.821647349E0,-3.054236295E-4,3.817795368E-4,-9.162708884E-4,1.038552622E-3
1.824073235E0,1.527118147E-3,-2.290677221E-4,3.054236295E-4,1.574117356E-3
1.826499120E0,9.162708884E-4,9.926267667E-4,-9.162708884E-4,1.632302846E-3
1.828925005E0,3.054236295E-4,3.817795368E-4,-3.054236295E-4,5.764744588E-4
1.831350891E0,-9.162708884E-4,3.817795368E-4,-9.162708884E-4,1.350873901E-3
1.833776724E0,-3.054236295E-4,1.603474026E-3,-1.527118147E-3,2.235285749E-3
1.836202610E0,-2.137965523E-3,9.926267667E-4,9.162708884E-4,2.528983356E-3
1.838628495E0,3.054236295E-4,3.817795368E-4,9.162708884E-4,1.038552622E-3
1.841054380E0,1.527118147E-3,-1.450762269E-3,-3.054236295E-4,2.128399537E-3
1.843480266E0,1.527118147E-3,-8.399150101E-4,-3.054236295E-4,1.769415342E-3
1.845906151E0,-3.054236295E-4,3.817795368E-4,1.527118147E-3,1.603474055E-3
1.848331985E0,-3.054236295E-4,-2.290677221E-4,9.162708884E-4,9.926267958E-4
1.850757870E0,9.162708884E-4,3.817795368E-4,1.527118147E-3,1.821372502E-3
1.853183755E0,9.162708884E-4,3.817795368E-4,-3.054236295E-4,1.038552622E-3
1.855609641E0,-9.162708884E-4,9.926267667E-4,-1.527118147E-3,2.038859994E-3
1.858035526E0,3.054236295E-4,9.926267667E-4,3.054236295E-4,1.082531794E-3
1.860461412E0,-9.162708884E-4,-1.527118147E-4,-3.054236295E-4,9.778327223E-4
1.862887245E0,-9.162708884E-4,4.581354442E-4,9.162708884E-4,1.374406333E-3
1.865313130E0,-1.527118147E-3,-1.527118147E-4,3.054236295E-4,1.564830447E-3
1.867739016E0,-9.162708884E-4,-1.527118147E-4,-3.054236295E-4,9.778327223E-4
1.870164901E0,3.054236295E-4,1.068982761E-3,-9.162708884E-4,1.440680422E-3
1.872590787E0,3.054236295E-4,4.581354442E-4,-1.527118147E-3,1.623348858E-3
1.875016672E0,-1.527118147E-3,-7.635590737E-4,-3.054236295E-4,1.734472798E-3
1.877442505E0,-3.054236295E-4,-7.635590737E-4,3.054236295E-4,8.772625866E-4
1.879868391E0,3.054236295E-4,-7.635590737E-4,3.054236295E-4,8.772625866E-4
1.882294276E0,3.054236295E-4,4.581354442E-4,1.527118147E-3,1.623348858E-3
1.884720162E0,3.054236295E-4,4.581354442E-4,-3.054236295E-4,6.296469424E-4
1.887146047E0,-3.054236295E-4,4.581354442E-4,3.054236295E-4,6.296469424E-4
1.889571933E0,3.054236295E-4,-1.527118147E-4,3.054236295E-4,4.581354442E-4
1.891997766E0,-9.162708884E-4,1.068982761E-3,3.054236295E-4,1.440680422E-3
1.894423651E0,-3.054236295E-4,4.581354442E-4,-3.054236295E-4,6.296469424E-4
1.896849537E0,-3.054236295E-4,1.068982761E-3,3.054236295E-4,1.152948972E-3
1.899275422E0,-3.054236295E-4,-1.527118147E-4,3.054236295E-4,4.581354442E-4
1.901701308E0,-3.054236295E-4,-1.374406274E-3,-3.054236295E-4,1.440680323E-3
1.904127193E0,9.162708884E-4,-1.374406274E-3,3.054236295E-4,1.679829914E-3
1.906553026E0,3.054236295E-4,-7.635590737E-4,9.162708884E-4,1.231202012E-3
1.908978912E0,-3.054236295E-4,-1.374406274E-3,-3.054236295E-4,1.440680323E-3
1.911404797E0,3.054236295E-4,-1.985253533E-3,-9.162708884E-4,2.207729043E-3
1.913830683E0,3.054236295E-4,-7.635590737E-4,-3.054236295E-4,8.772625866E-4
1.916256568E0,-9.162708884E-4,-1.527118147E-4,-3.054236295E-4,9.778327223E-4
1.918682453E0,3.054236295E-4,1.679830020E-3,3.054236295E-4,1.734472855E-3
1.921108287E0,3.054236295E-4,4.581354442E-4,3.054236295E-4,6.296469424E-4
1.923534172E0,-3.054236295E-4,-1.527118147E-4,3.054236295E-4,4.581354442E-4
1.925960058E0,9.162708884E-4,1.068982761E-3,9.162708884E-4,1.679829999E-3
1.928385943E0,3.054236295E-4,4.581354442E-4,-1.527118147E-3,1.623348858E-3
1.930811828E0,-9.162708884E-4,4.581354442E-4,-1.527118147E-3,1.838893760E-3
1.933237662E0,-3.054236295E-4,1.068982761E-3,-3.054236295E-4,1.152948972E-3
1.935663547E0,3.054236295E-4,-1.527118147E-4,-3.054236295E-4,4.581354442E-4
1.938089433E0,3.054236295E-4,4.581354442E-4,9.162708884E-4,1.068982703E-3
1.940515318E0,9.162708884E-4,-7.635590737E-4,3.054236295E-4,1.231202012E-3
1.942941203E0,1.527118147E-3,4.581354442E-4,-3.054236295E-4,1.623348858E-3
1.945367089E0,3.054236295E-4,-1.527118147E-4,-3.054236295E-4,4.581354442E-4
1.947792974E0,9.162708884E-4,1.068982761E-3,-3.054236295E-4,1.440680422E-3
1.950218808E0,-3.054236295E-4,-1.527118147E-4,9.162708884E-4,9.778327223E-4
1.952644693E0,-3.054236295E-4,-1.527118147E-4,9.162708884E-4,9.778327223E-4
1.955070578E0,3.054236295E-4,-1.527118147E-4,3.054236295E-4,4.581354442E-4
1.957496464E0,-9.162708884E-4,-1.527118147E-4,-9.162708884E-4,1.304770317E-3
1.959922349E0,-3.054236295E-4,1.068982761E-3,-9.162708884E-4,1.440680422E-3
1.962348235E0,3.054236295E-4,-1.527118147E-4,-9.162708884E-4,9.778327223E-4
1.964774068E0,3.054236295E-4,4.581354442E-4,-3.054236295E-4,6.296469424E-4
1.967199953E0,3.054236295E-4,4.581354442E-4,3.054236295E-4,6.296469424E-4
1.969625839E0,-3.054236295E-4,-1.527118147E-4,-1.527118147E-3,1.564830447E-3
1.972051724E0,-3.054236295E-4,-1.527118147E-4,-3.054236295E-4,4.581354442E-4
1.974477610E0,-3.054236295E-4,4.581354442E-4,-3.054236295E-4,6.296469424E-4
1.976903495E0,-3.054236295E-4,-1.985253533E-3,-9.162708884E-4,2.207729043E-3
1.979329328E0,-3.054236295E-4,-7.635590737E-4,3.054236295E-4,8.772625866E-4
1.981755214E0,3.054236295E-4,4.581354442E-4,-3.054236295E-4,6.296469424E-4
1.984181099E0,-9.162708884E-4,1.068982761E-3,-9.162708884E-4,1.679829999E-3
1.986606985E0,9.162708884E-4,1.068982761E-3,-9.162708884E-4,1.679829999E-3
1.989032870E0,9.162708884E-4,-1.527118147E-4,-3.054236295E-4,9.778327223E-4
1.991458703E0,1.527118147E-3,4.581354442E-4,-1.527118147E-3,2.207729095E-3
1.993884589E0,1.527118147E-3,-1.527118147E-4,-9.162708884E-4,1.787445964E-3
1.996310474E0,3.054236295E-4,-7.635590737E-4,1.527118147E-3,1.734472798E-3
1.998736360E0,-1.527118147E-3,4.581354442E-4,9.162708884E-4,1.838893760E-3
2.001162245E0,9.162708884E-4,-1.527118147E-4,-9.162708884E-4,1.304770317E-3
2.003588130E0,-3.054236295E-4,-1.374406274E-3,-9.162708884E-4,1.679829914E-3
2.006013964E0,-3.054236295E-4,-1.527118147E-4,-3.054236295E-4,4.581354442E-4
2.008439849E0,-9.162708884E-4,4.581354442E-4,-9.162708884E-4,1.374406333E-3
2.010865735E0,9.162708884E-4,-1.527118147E-4,-1.527118147E-3,1.787445964E-3
2.013291620E0,9.162708884E-4,-1.374406274E-3,-1.527118147E-3,2.249585469E-3
2.015717505E0,-3.054236295E-4,4.581354442E-4,3.054236295E-4,6.296469424E-4
2.018143391E0,9.162708884E-4,1.068982761E-3,-3.054236295E-4,1.440680422E-3
2.020569276E0,3.054236295E-4,-1.527118147E-4,-3.054236295E-4,4.581354442E-4
2.022995110E0,-9.162708884E-4,-7.635590737E-4,-3.054236295E-4,1.231202012E-3
2.025420995E0,9.162708884E-4,-1.527118147E-4,-3.054236295E-4,9.778327223E-4
2.027846880E0,-3.054236295E-4,4.581354442E-4,9.162708884E-4,1.068982703E-3
2.030272766E0,3.054236295E-4,-1.527118147E-4,-9.162708884E-4,9.778327223E-4
2.032698651E0,-3.054236295E-4,4.581354442E-4,-1.527118147E-3,1.623348858E-3
2.035124485E0,-3.054236295E-4,-1.527118147E-4,-3.054236295E-4,4.581354442E-4
2.037550370E0,1.527118147E-3,-1.527118147E-4,-9.162708884E-4,1.787445964E-3
2.039976255E0,-3.054236295E-4,-7.635590737E-4,9.162708884E-4,1.231202012E-3
2.042402141E0,1.527118147E-3,-1.527118147E-4,9.162708884E-4,1.787445964E-3
2.044828026E0,-3.054236295E-4,4.581354442E-4,-8.399150101E-4,1.004305184E-3
2.047253912E0,3.054236295E-4,-7.635590737E-4,3.817795368E-4,9.066761644E-4
2.049679745E0,-9.162708884E-4,1.068982761E-3,3.817795368E-4,1.458777605E-3
2.052105630E0,1.527118147E-3,-7.635590737E-4,-8.399150101E-4,1.902779419E-3
2.054531516E0,9.162708884E-4,4.581354442E-4,3.817795368E-4,1.093250219E-3
2.056957401E0,-3.054236295E-4,4.581354442E-4,9.926267667E-4,1.135112143E-3
2.059383287E0,-2.137965523E-3,-1.374406274E-3,-8.399150101E-4,2.676816469E-3
2.061809172E0,-3.054236295E-4,-7.635590737E-4,-8.399150101E-4,1.175484273E-3
2.064235058E0,-3.054236295E-4,1.068982761E-3,-8.399150101E-4,1.393364619E-3
2.066660891E0,-3.054236295E-4,4.581354442E-4,3.817795368E-4,6.700203679E-4
2.069086776E0,-3.054236295E-4,4.581354442E-4,-8.399150101E-4,1.004305184E-3
2.071512662E0,3.054236295E-4,-1.527118147E-4,-8.399150101E-4,9.066761914E-4
2.073938547E0,3.054236295E-4,4.581354442E-4,3.817795368E-4,6.700203679E-4
2.076364433E0,3.054236295E-4,-1.527118147E-4,-1.450762269E-3,1.490407881E-3
2.078790318E0,-9.162708884E-4,-7.635590737E-4,-8.399150101E-4,1.458777579E-3
2.081216151E0,-9.162708884E-4,4.581354442E-4,-2.290677221E-4,1.049720176E-3
2.083642037E0,-3.054236295E-4,4.581354442E-4,-8.399150101E-4,1.004305184E-3
2.086067922E0,3.054236295E-4,1.068982761E-3,-2.290677221E-4,1.135112223E-3
2.088493808E0,9.162708884E-4,-1.527118147E-4,-8.399150101E-4,1.252330014E-3
2.090919693E0,-9.162708884E-4,-1.527118147E-4,-8.399150101E-4,1.252330014E-3
2.093345526E0,3.054236295E-4,1.068982761E-3,-8.399150101E-4,1.393364619E-3
2.095771412E0,3.054236295E-4,-1.527118147E-4,3.817795368E-4,5.122109981E-4
2.098197297E0,-3.054236295E-4,-7.635590737E-4,-8.399150101E-4,1.175484273E-3
2.100623183E0,3.054236295E-4,-7.635590737E-4,-1.450762269E-3,1.667638214E-3
2.103049068E0,9.162708884E-4,4.581354442E-4,3.817795368E-4,1.093250219E-3
2.105474953E0,1.527118147E-3,1.068982761E-3,9.926267667E-4,2.111900063E-3
2.107900839E0,9.162708884E-4,2.290677279E-3,3.817795368E-4,2.496499620E-3
2.110326672E0,3.054236295E-4,-1.527118147E-4,3.817795368E-4,5.122109981E-4
2.112752558E0,-3.054236295E-4,-1.527118147E-4,-2.290677221E-4,4.111891452E-4
2.115178443E0,3.054236295E-4,-1.527118147E-4,-1.450762269E-3,1.490407881E-3
2.117604328E0,9.162708884E-4,4.581354442E-4,-1.450762269E-3,1.775993127E-3
2.120030214E0,3.054236295E-4,-1.527118147E-4,9.926267667E-4,1.049720148E-3
2.122456047E0,3.054236295E-4,-7.635590737E-4,-2.290677221E-4,8.536849968E-4
2.124881933E0,3.054236295E-4,-1.527118147E-4,1.068982761E-3,1.122198127E-3
2.127307818E0,-3.054236295E-4,4.581354442E-4,-7.635590737E-4,9.413788492E-4
2.129733703E0,1.527118147E-3,-1.527118147E-4,4.581354442E-4,1.601655025E-3
2.132159589E0,3.054236295E-4,-7.635590737E-4,-1.527118147E-4,8.364370573E-4
2.134585474E0,9.162708884E-4,4.581354442E-4,4.581354442E-4,1.122198071E-3
2.137011308E0,2.290677221E-4,-1.527118147E-4,-1.527118147E-4,3.148234712E-4
2.139437193E0,2.290677221E-4,1.679830020E-3,4.581354442E-4,1.756185925E-3
2.141863078E0,-9.926267667E-4,1.068982761E-3,-1.527118147E-4,1.466749106E-3
2.144288964E0,2.290677221E-4,-1.527118147E-4,1.068982761E-3,1.103864604E-3
2.146714849E0,-1.603474026E-3,-1.527118147E-4,1.068982761E-3,1.933177176E-3
2.149140735E0,2.290677221E-4,1.068982761E-3,1.068982761E-3,1.529025935E-3
2.151566568E0,-3.817795368E-4,4.581354442E-4,4.581354442E-4,7.520184740E-4
2.153992453E0,-9.926267667E-4,-1.527118147E-4,-7.635590737E-4,1.261606617E-3
2.156418339E0,-1.603474026E-3,-1.527118147E-4,4.581354442E-4,1.674615757E-3
2.158844224E0,-3.817795368E-4,4.581354442E-4,-1.527118147E-4,6.156010058E-4
2.161270110E0,-3.817795368E-4,-1.374406274E-3,4.581354442E-4,1.498211036E-3
2.163695995E0,-9.926267667E-4,-1.374406274E-3,-7.635590737E-4,1.859387793E-3
2.166121828E0,-3.817795368E-4,-7.635590737E-4,-7.635590737E-4,1.145338611E-3
2.168547714E0,8.399150101E-4,-7.635590737E-4,1.068982761E-3,1.559231807E-3
2.170973599E0,2.290677221E-4,-7.635590737E-4,4.581354442E-4,9.194468802E-4
2.173399485E0,2.290677221E-4,-7.635590737E-4,-1.527118147E-4,8.116744290E-4
2.175825370E0,-9.926267667E-4,-1.527118147E-4,-1.527118147E-4,1.015849248E-3
2.178251255E0,-3.817795368E-4,-1.527118147E-4,4.581354442E-4,6.156010058E-4
2.180677089E0,-3.817795368E-4,-1.527118147E-4,-1.527118147E-4,4.386312933E-4
2.183102974E0,-9.926267667E-4,-7.635590737E-4,-1.527118147E-4,1.261606617E-3
2.185528860E0,8.399150101E-4,-7.635590737E-4,4.581354442E-4,1.224078334E-3
2.187954745E0,8.399150101E-4,-7.635590737E-4,1.679830020E-3,2.027389598E-3
2.190380630E0,-3.817795368E-4,4.581354442E-4,2.290677279E-3,2.367033185E-3
2.192806516E0,1.450762269E-3,-7.635590737E-4,2.290677279E-3,2.816901847E-3
2.195232401E0,2.061609412E-3,-7.635590737E-4,-1.527118147E-4,2.203764217E-3
2.197658235E0,1.450762269E-3,-1.527118147E-4,-7.635590737E-4,1.646528019E-3
2.200084120E0,1.450762269E-3,-1.527118147E-4,-1.374406274E-3,2.004251648E-3
2.202510005E0,8.399150101E-4,4.581354442E-4,-1.374406274E-3,1.674615752E-3
2.204935891E0,-1.603474026E-3,1.679830020E-3,-1.527118147E-4,2.327290000E-3
2.207361776E0,-3.817795368E-4,-1.527118147E-4,1.679830020E-3,1.729423433E-3
2.209787610E0,-3.817795368E-4,-7.635590737E-4,1.679830020E-3,1.884305435E-3
2.212213495E0,-3.817795368E-4,-1.527118147E-4,4.581354442E-4,6.156010058E-4
2.214639380E0,8.399150101E-4,-1.527118147E-4,4.581354442E-4,9.688478765E-4
2.217065266E0,-1.603474026E-3,1.679830020E-3,4.581354442E-4,2.367033150E-3
2.219491151E0,-3.817795368E-4,-1.527118147E-4,-7.635590737E-4,8.672363992E-4
2.221917037E0,8.399150101E-4,-1.374406274E-3,-1.527118147E-4,1.617952635E-3
2.224342870E0,8.399150101E-4,-1.527118147E-4,-7.635590737E-4,1.145338632E-3
2.226768755E0,-3.817795368E-4,-7.635590737E-4,-1.374406274E-3,1.617952620E-3
2.229194641E0,-9.926267667E-4,-1.527118147E-4,1.068982761E-3,1.466749106E-3
2.231620526E0,-9.926267667E-4,1.679830020E-3,4.581354442E-4,2.004251701E-3
2.234046412E0,-2.214321401E-3,-1.527118147E-4,-1.527118147E-4,2.224828322E-3
2.236472297E0,-9.926267667E-4,-1.527118147E-4,1.068982761E-3,1.466749106E-3
2.238898130E0,-3.817795368E-4,4.581354442E-4,-7.635590737E-4,9.688478513E-4
2.241324016E0,8.399150101E-4,4.581354442E-4,-7.635590737E-4,1.224078334E-3
2.243749901E0,2.290677221E-4,-1.527118147E-4,4.581354442E-4,5.344913516E-4
2.246175787E0,-3.817795368E-4,-7.635590737E-4,4.581354442E-4,9.688478513E-4
2.248601672E0,-3.817795368E-4,-1.527118147E-4,-1.527118147E-4,4.386312933E-4
2.251027558E0,8.399150101E-4,-1.527118147E-4,-1.527118147E-4,8.672364274E-4
2.253453391E0,2.290677221E-4,-1.985253533E-3,1.068982761E-3,2.266368848E-3
2.255879276E0,2.290677221E-4,4.581354442E-4,4.581354442E-4,6.872031663E-4
2.258305162E0,8.399150101E-4,4.581354442E-4,1.068982761E-3,1.434597314E-3
2.260731047E0,8.399150101E-4,1.068982761E-3,-1.527118147E-4,1.368028606E-3
2.263156933E0,2.290677221E-4,-7.635590737E-4,-1.527118147E-4,8.116744290E-4
2.265582818E0,2.290677221E-4,-1.374406274E-3,-7.635590737E-4,1.588863458E-3
2.268008651E0,-3.817795368E-4,-7.635590737E-4,4.581354442E-4,9.688478513E-4
2.270434537E0,2.290677221E-4,1.068982761E-3,4.581354442E-4,1.185362498E-3
2.272860422E0,-1.603474026E-3,-7.635590737E-4,-1.527118147E-4,1.782546580E-3
2.275286308E0,-1.603474026E-3,4.581354442E-4,4.581354442E-4,1.729423349E-3
2.277712193E0,-1.603474026E-3,-7.635590737E-4,-1.527118147E-4,1.782546580E-3
2.280138078E0,-1.603474026E-3,-7.635590737E-4,-1.374406274E-3,2.245694551E-3
2.282563964E0,-3.817795368E-4,-7.635590737E-4,1.068982761E-3,1.368028588E-3
2.284989797E0,-3.817795368E-4,-1.527118147E-4,4.581354442E-4,6.156010058E-4
2.287415683E0,-3.817795368E-4,-7.635590737E-4,-1.527118147E-4,8.672363992E-4
2.289841568E0,2.290677221E-4,-7.635590737E-4,-1.527118147E-4,8.116744290E-4
2.292267453E0,2.290677221E-4,-1.527118147E-4,-1.527118147E-4,3.148234712E-4
2.294693339E0,-9.926267667E-4,-1.527118147E-4,-7.635590737E-4,1.261606617E-3
2.297119172E0,-9.926267667E-4,4.581354442E-4,1.679830020E-3,2.004251701E-3
2.299545058E0,-9.926267667E-4,-7.635590737E-4,-1.527118147E-4,1.261606617E-3
2.301970943E0,-3.817795368E-4,-1.527118147E-4,-1.374406274E-3,1.434597198E-3
2.304396828E0,8.399150101E-4,-7.635590737E-4,-7.635590737E-4,1.368028560E-3
2.306822714E0,-3.817795368E-4,-7.635590737E-4,-1.527118147E-4,8.672363992E-4
2.309248599E0,-9.926267667E-4,-1.527118147E-4,-7.635590737E-4,1.261606617E-3
2.311674433E0,2.290677221E-4,1.068982761E-3,-1.527118147E-4,1.103864604E-3
2.314100318E0,-3.817795368E-4,-7.635590737E-4,4.581354442E-4,9.688478513E-4
2.316526203E0,-3.817795368E-4,-7.635590737E-4,-1.527118147E-4,8.672363992E-4
2.318952089E0,8.399150101E-4,1.068982761E-3,1.068982761E-3,1.729423462E-3
2.321377974E0,1.450762269E-3,4.581354442E-4,-1.527118147E-4,1.529025881E-3
2.323803860E0,8.399150101E-4,-7.635590737E-4,-1.527118147E-4,1.145338632E-3
2.326229745E0,8.399150101E-4,-1.527118147E-4,-1.527118147E-4,8.672364274E-4
2.328655578E0,-3.817795368E-4,1.068982761E-3,-1.527118147E-4,1.145338665E-3
2.331081464E0,-3.817795368E-4,-7.635590737E-4,4.581354442E-4,9.688478513E-4
2.333507349E0,-3.817795368E-4,-1.374406274E-3,1.068982761E-3,1.782546596E-3
2.335933235E0,8.399150101E-4,1.068982761E-3,4.581354442E-4,1.434597314E-3
2.338359120E0,1.450762269E-3,1.068982761E-3,1.679830020E-3,2.463587669E-3
2.340784953E0,2.290677221E-4,4.581354442E-4,4.581354442E-4,6.872031663E-4
2.343210839E0,-3.817795368E-4,4.581354442E-4,-7.635590737E-4,9.688478513E-4
2.345636724E0,8.399150101E-4,1.068982761E-3,4.581354442E-4,1.434597314E-3
2.348062610E0,2.290677221E-4,-1.527118147E-4,4.581354442E-4,5.344913516E-4
2.350488495E0,2.290677221E-4,-7.635590737E-4,-7.635590737E-4,1.103864548E-3
2.352914380E0,8.399150101E-4,-1.374406274E-3,1.679830020E-3,2.327289997E-3
2.355340214E0,8.399150101E-4,-1.527118147E-4,4.581354442E-4,9.688478765E-4
2.357766099E0,2.290677221E-4,-7.635590737E-5,4.581354442E-4,5.178709599E-4
2.360191985E0,-9.926267667E-4,-6.872031372E-4,-1.527118147E-4,1.216912876E-3
2.362617870E0,8.399150101E-4,5.344913807E-4,4.581354442E-4,1.095913475E-3
2.365043755E0,-1.603474026E-3,5.344913807E-4,-7.635590737E-4,1.854678529E-3
2.367469641E0,-9.926267667E-4,-7.635590737E-5,-7.635590737E-4,1.254655563E-3
2.369895526E0,2.290677221E-4,1.145338640E-3,-1.527118147E-4,1.177961595E-3
2.372321360E0,-3.817795368E-4,-7.635590737E-5,1.679830020E-3,1.724359225E-3
2.374747245E0,-9.926267667E-4,-6.872031372E-4,4.581354442E-4,1.291295526E-3
2.377173130E0,-9.926267667E-4,1.145338640E-3,4.581354442E-4,1.583349798E-3
2.379599016E0,8.399150101E-4,5.344913807E-4,-1.527118147E-4,1.007203633E-3
2.382024901E0,-3.817795368E-4,-6.872031372E-4,4.581354442E-4,9.098856257E-4
2.384450735E0,-3.817795368E-4,-6.872031372E-4,-7.635590737E-4,1.095913421E-3
2.386876620E0,-2.137965523E-3,-7.635590737E-5,1.068982761E-3,2.391537360E-3
2.389302505E0,-9.162708884E-4,5.344913807E-4,1.068982761E-3,1.505973944E-3
2.391728391E0,-1.527118147E-3,5.344913807E-4,4.581354442E-4,1.681564437E-3
2.394154276E0,3.054236295E-4,-6.872031372E-4,-1.527118147E-4,7.673673459E-4
2.396580162E0,9.162708884E-4,-6.872031372E-4,4.581354442E-4,1.233567419E-3
2.399006047E0,-3.054236295E-4,5.344913807E-4,-1.527118147E-4,6.342598267E-4
2.401431880E0,3.054236295E-4,1.145338640E-3,-1.374406274E-3,1.814959173E-3
2.403857766E0,9.162708884E-4,-6.872031372E-4,-1.985253533E-3,2.291949407E-3
2.406283651E0,-9.162708884E-4,1.145338640E-3,4.581354442E-4,1.536633016E-3
2.408709537E0,-3.054236295E-4,5.344913807E-4,-7.635590737E-4,9.808094048E-4
2.411135422E0,-9.162708884E-4,-6.872031372E-4,-1.527118147E-4,1.155474531E-3
2.413561308E0,-3.054236295E-4,-7.635590737E-5,4.581354442E-4,5.558793963E-4
2.415987141E0,-1.527118147E-3,-6.872031372E-4,-7.635590737E-4,1.840478320E-3
2.418413026E0,-9.162708884E-4,-7.635590737E-5,-1.527118147E-4,9.320426299E-4
2.420838912E0,-3.054236295E-4,-1.298050396E-3,-7.635590737E-4,1.536632970E-3
2.423264797E0,-3.054236295E-4,-6.872031372E-4,-1.527118147E-4,7.673673459E-4
2.425690683E0,-3.054236295E-4,-7.635590737E-5,-1.527118147E-4,3.499067253E-4
2.428116568E0,-1.527118147E-3,-7.635590737E-5,4.581354442E-4,1.596185499E-3
2.430542401E0,3.054236295E-4,1.145338640E-3,-7.635590737E-4,1.410002359E-3
2.432968287E0,-1.527118147E-3,1.145338640E-3,4.581354442E-4,1.963104307E-3
2.435394172E0,-9.162708884E-4,-7.635590737E-5,-1.985253533E-3,2.187833211E-3
2.437820058E0,-1.527118147E-3,5.344913807E-4,-7.635590737E-4,1.789076111E-3
2.440245943E0,-3.054236295E-4,5.344913807E-4,-1.527118147E-4,6.342598267E-4
2.442671828E0,-9.162708884E-4,5.344913807E-4,1.068982761E-3,1.505973944E-3
2.445097662E0,3.054236295E-4,5.344913807E-4,1.679830020E-3,1.789076166E-3
2.447523547E0,-9.162708884E-4,-1.298050396E-3,-1.527118147E-4,1.596185475E-3
2.449949433E0,3.054236295E-4,-6.872031372E-4,4.581354442E-4,8.805792585E-4
2.452375318E0,3.054236295E-4,-7.635590737E-5,-7.635590737E-4,8.259154176E-4
2.454801203E0,3.054236295E-4,-6.872031372E-4,1.679830020E-3,1.840478373E-3
2.457227037E0,9.162708884E-4,5.344913807E-4,4.581354442E-4,1.155474561E-3
2.459652922E0,-3.054236295E-4,-7.635590737E-5,-7.635590737E-4,8.259154176E-4
2.462078808E0,3.054236295E-4,5.344913807E-4,-7.635590737E-4,9.808094048E-4
2.464504693E0,9.162708884E-4,-1.298050396E-3,4.581354442E-4,1.653594647E-3
2.466930578E0,-3.054236295E-4,-6.872031372E-4,-1.527118147E-4,7.673673459E-4
2.469356464E0,-3.054236295E-4,-1.298050396E-3,-7.635590737E-4,1.536632970E-3
2.471782349E0,3.054236295E-4,-1.298050396E-3,4.581354442E-4,1.410002308E-3
2.474208183E0,-9.162708884E-4,5.344913807E-4,-1.527118147E-4,1.071706245E-3
2.476634068E0,9.162708884E-4,5.344913807E-4,4.581354442E-4,1.155474561E-3
2.479059953E0,-3.054236295E-4,-7.635590737E-5,-1.527118147E-4,3.499067253E-4
2.481485839E0,-2.137965523E-3,-6.872031372E-4,-7.635590737E-4,2.371954297E-3
2.483911724E0,3.054236295E-4,-7.635590737E-5,4.581354442E-4,5.558793963E-4
2.486337610E0,3.054236295E-4,-1.908897655E-3,4.581354442E-4,1.986721404E-3
2.488763443E0,9.162708884E-4,-6.872031372E-4,-1.527118147E-4,1.155474531E-3
2.491189328E0,3.054236295E-4,5.344913807E-4,1.068982761E-3,1.233567499E-3
2.493615214E0,-3.054236295E-4,5.344913807E-4,4.581354442E-4,7.673673923E-4
2.496041099E0,-9.162708884E-4,-7.635590737E-5,-1.527118147E-4,9.320426299E-4
2.498466985E0,-3.054236295E-4,-7.635590737E-5,1.068982761E-3,1.114377836E-3
2.500892870E0,-9.162708884E-4,5.344913807E-4,1.068982761E-3,1.505973944E-3
2.503318703E0,-9.162708884E-4,1.145338640E-3,4.581354442E-4,1.536633016E-3
2.505744589E0,9.162708884E-4,-6.872031372E-4,-1.985253533E-3,2.291949407E-3
2.508170474E0,9.162708884E-4,-1.298050396E-3,-1.374406274E-3,2.100828355E-3
2.510596360E0,3.054236295E-4,5.344913807E-4,-1.374406274E-3,1.505973850E-3
2.513022245E0,-8.399150101E-4,-7.635590737E-5,-1.527118147E-4,8.570929630E-4
2.515448130E0,-2.290677221E-4,-6.872031372E-4,1.679830020E-3,1.829357557E-3
2.517873964E0,-2.290677221E-4,-7.635590737E-5,1.068982761E-3,1.095913496E-3
2.520299849E0,-2.290677221E-4,-7.635590737E-5,1.679830020E-3,1.697094913E-3
2.522725735E0,9.926267667E-4,1.145338640E-3,1.068982761E-3,1.854678582E-3
2.525151620E0,3.817795368E-4,-6.872031372E-4,4.581354442E-4,9.098856257E-4
2.527577505E0,-2.290677221E-4,-7.635590737E-5,-1.527118147E-4,2.856976448E-4
2.530003391E0,-8.399150101E-4,-6.872031372E-4,4.581354442E-4,1.177961570E-3
2.532429224E0,-2.290677221E-4,-7.635590737E-5,-7.635590737E-4,8.008275126E-4
2.534855110E0,-2.290677221E-4,1.145338640E-3,-1.527118147E-4,1.177961595E-3
2.537280995E0,3.817795368E-4,-7.635590737E-5,-1.527118147E-4,4.182185286E-4
2.539706880E0,-2.290677221E-4,5.344913807E-4,-7.635590737E-4,9.597788893E-4
2.542132766E0,3.817795368E-4,-6.872031372E-4,4.581354442E-4,9.098856257E-4
2.544558651E0,3.817795368E-4,5.344913807E-4,1.068982761E-3,1.254655648E-3
2.546984485E0,-2.290677221E-4,5.344913807E-4,1.068982761E-3,1.216912980E-3
2.549410370E0,-8.399150101E-4,-7.635590737E-5,4.581354442E-4,9.597788985E-4
2.551836255E0,3.817795368E-4,5.344913807E-4,1.603474026E-3,1.732791275E-3
2.554262141E0,-2.290677221E-4,1.756185899E-3,-8.399150101E-4,1.960132178E-3
2.556688026E0,3.817795368E-4,5.344913807E-4,3.817795368E-4,7.597317063E-4
2.559113912E0,3.817795368E-4,-7.635590737E-5,-1.450762269E-3,1.502097534E-3
2.561539745E0,3.817795368E-4,-1.298050396E-3,-8.399150101E-4,1.592528703E-3
2.563965630E0,-2.290677221E-4,-6.872031372E-4,3.817795368E-4,8.188258593E-4
2.566391516E0,3.817795368E-4,-6.872031372E-4,-2.290677221E-4,8.188258593E-4
2.568817401E0,3.817795368E-4,5.344913807E-4,3.817795368E-4,7.597317063E-4
2.571243287E0,-8.399150101E-4,-7.635590737E-5,-8.399150101E-4,1.190270840E-3
2.573669172E0,-2.061609412E-3,-7.635590737E-5,-2.290677221E-4,2.075701234E-3
2.576095058E0,3.817795368E-4,-1.298050396E-3,3.817795368E-4,1.405861323E-3
2.578520891E0,-8.399150101E-4,-1.298050396E-3,-8.399150101E-4,1.759502566E-3
2.580946776E0,-2.290677221E-4,1.145338640E-3,9.926267667E-4,1.532834146E-3
2.583372662E0,-1.450762269E-3,1.756185899E-3,-2.290677221E-4,2.289404310E-3
2.585798547E0,-8.399150101E-4,1.756185899E-3,3.817795368E-4,1.983784703E-3
2.588224433E0,3.817795368E-4,5.344913807E-4,-8.399150101E-4,1.066252257E-3
2.590650266E0,9.926267667E-4,5.344913807E-4,-8.399150101E-4,1.405861358E-3
2.593076151E0,3.817795368E-4,-6.872031372E-4,-2.290677221E-4,8.188258593E-4
2.595502037E0,3.817795368E-4,-6.872031372E-4,-8.399150101E-4,1.150417746E-3
2.597927922E0,-2.290677221E-4,-7.635590737E-5,9.926267667E-4,1.021572388E-3
2.600353808E0,-2.290677221E-4,1.145338640E-3,3.817795368E-4,1.228832062E-3
2.602779693E0,3.817795368E-4,-7.635590737E-5,-2.290677221E-4,4.517276399E-4
2.605205578E0,3.817795368E-4,5.344913807E-4,-8.399150101E-4,1.066252257E-3
2.607631412E0,-8.399150101E-4,-7.635590737E-5,3.817795368E-4,9.257662035E-4
2.610057297E0,3.817795368E-4,-7.635590737E-5,9.926267667E-4,1.066252192E-3
2.612483183E0,-2.290677221E-4,5.344913807E-4,9.926267667E-4,1.150417731E-3
2.614909068E0,-8.399150101E-4,5.344913807E-4,-1.450762269E-3,1.759502606E-3
2.617334953E0,3.817795368E-4,5.344913807E-4,3.817795368E-4,7.597317063E-4
2.619760787E0,9.926267667E-4,-6.872031372E-4,-1.450762269E-3,1.887396941E-3
2.622186672E0,9.926267667E-4,-7.635590737E-5,-8.399150101E-4,1.302534202E-3
2.624612558E0,-2.290677221E-4,-6.872031372E-4,-2.290677221E-4,7.597316595E-4
2.627038443E0,9.926267667E-4,5.344913807E-4,-2.290677221E-4,1.150417731E-3
2.629464328E0,-2.290677221E-4,-7.635590737E-5,-2.290677221E-4,3.328276840E-4
2.631890214E0,3.817795368E-4,-7.635590737E-5,-8.399150101E-4,9.257662035E-4
2.634316099E0,4.581354442E-4,-6.872031372E-4,-8.399150101E-4,1.177961570E-3
2.636741933E0,4.581354442E-4,-1.298050396E-3,3.817795368E-4,1.428488198E-3
2.639167818E0,-1.374406274E-3,-6.872031372E-4,-2.290677221E-4,1.553612815E-3
2.641593703E0,4.581354442E-4,5.344913807E-4,-1.450762269E-3,1.612538459E-3
2.644019589E0,-1.527118147E-4,-1.298050396E-3,3.817795368E-4,1.361620852E-3
2.646445474E0,-1.985253533E-3,-1.908897655E-3,-8.399150101E-4,2.879336568E-3
2.648871308E0,-1.527118147E-4,-7.635590737E-5,-2.290677221E-4,2.856976448E-4
2.651297193E0,-1.374406274E-3,1.145338640E-3,9.926267667E-4,2.045996360E-3
2.653723078E0,4.581354442E-4,-7.635590737E-5,3.817795368E-4,6.012270158E-4
2.656148964E0,-1.527118147E-4,-7.635590737E-5,3.817795368E-4,4.182185286E-4
2.658574849E0,-1.527118147E-4,-7.635590737E-5,-2.290677221E-4,2.856976448E-4
2.661000735E0,-7.635590737E-4,-7.635590737E-5,-8.399150101E-4,1.137677418E-3
2.663426620E0,-1.374406274E-3,5.344913807E-4,3.817795368E-4,1.523295525E-3
2.665852453E0,4.581354442E-4,5.344913807E-4,-2.290677221E-4,7.402980093E-4
2.668278339E0,4.581354442E-4,-7.635590737E-5,-2.290677221E-4,5.178709599E-4
2.670704224E0,-2.596100792E-3,5.344913807E-4,-2.290677221E-4,2.660430864E-3
2.673130110E0,4.581354442E-4,-7.635590737E-5,3.817795368E-4,6.012270158E-4
2.675555995E0,4.581354442E-4,-1.298050396E-3,3.817795368E-4,1.428488198E-3
2.677981880E0,-1.527118147E-4,-6.872031372E-4,3.817795368E-4,8.008274876E-4
2.680407714E0,4.581354442E-4,1.756185899E-3,3.817795368E-4,1.854678573E-3
2.682833599E0,1.068982761E-3,-6.872031372E-4,-8.399150101E-4,1.523295612E-3
2.685259485E0,1.068982761E-3,-7.635590737E-5,3.817795368E-4,1.137677451E-3
2.687685370E0,4.581354442E-4,-6.872031372E-4,-2.290677221E-4,8.570929111E-4
2.690111255E0,4.581354442E-4,5.344913807E-4,9.926267667E-4,1.216912905E-3
2.692537141E0,-1.527118147E-4,5.344913807E-4,3.817795368E-4,6.743571377E-4
2.694962974E0,-1.527118147E-4,5.344913807E-4,9.926267667E-4,1.137677385E-3
2.697388860E0,-7.635590737E-4,-7.635590737E-5,9.926267667E-4,1.254655563E-3
2.699814745E0,-7.635590737E-4,5.344913807E-4,9.926267667E-4,1.361620870E-3
2.702240630E0,-1.374406274E-3,-7.635590737E-5,-2.290677221E-4,1.395455070E-3
2.704666516E0,-1.527118147E-4,1.145338640E-3,-8.399150101E-4,1.428488265E-3
2.707092401E0,4.581354442E-4,-7.635590737E-5,3.817795368E-4,6.012270158E-4
2.709518235E0,1.068982761E-3,-7.635590737E-5,9.926267667E-4,1.460774543E-3
2.711944120E0,1.068982761E-3,5.344913807E-4,3.817795368E-4,1.254655648E-3
2.714370005E0,1.068982761E-3,-7.635590737E-5,3.817795368E-4,1.137677451E-3
2.716795891E0,-1.527118147E-4,-6.872031372E-4,-2.290677221E-4,7.402979613E-4
2.719221776E0,4.581354442E-4,1.145338640E-3,3.817795368E-4,1.291295589E-3
2.721647662E0,1.679830020E-3,-6.872031372E-4,-2.290677221E-4,1.829357557E-3
2.724073495E0,4.581354442E-4,-7.635590737E-5,3.817795368E-4,6.012270158E-4
2.726499380E0,-7.635590737E-4,-6.872031372E-4,3.817795368E-4,1.095913421E-3
2.728925266E0,1.068982761E-3,5.344913807E-4,3.817795368E-4,1.254655648E-3
2.731351151E0,4.581354442E-4,-7.635590737E-5,9.926267667E-4,1.095913413E-3
2.733777037E0,1.679830020E-3,5.344913807E-4,2.214321401E-3,2.830323162E-3
2.736202922E0,1.068982761E-3,-6.872031372E-4,1.603474026E-3,2.045996395E-3
2.738628755E0,-1.527118147E-4,-6.872031372E-4,3.817795368E-4,8.008274876E-4
2.741054641E0,-1.527118147E-4,5.344913807E-4,-2.290677221E-4,6.012270417E-4
2.743480526E0,-1.527118147E-4,1.145338640E-3,-2.290677221E-4,1.177961595E-3
2.745906412E0,-7.635590737E-4,5.344913807E-4,-2.290677221E-4,9.597788893E-4
2.748332297E0,-1.527118147E-4,-6.872031372E-4,9.926267667E-4,1.216912876E-3
2.750758183E0,1.068982761E-3,-7.635590737E-5,3.817795368E-4,1.137677451E-3
2.753184016E0,-1.527118147E-4,1.145338640E-3,9.926267667E-4,1.523295571E-3
2.755609901E0,4.581354442E-4,-7.635590737E-5,-2.290677221E-4,5.178709599E-4
2.758035787E0,-1.985253533E-3,-7.635590737E-5,3.817795368E-4,2.023071287E-3
2.760461672E0,-1.527118147E-4,-7.635590737E-5,-2.290677221E-4,2.856976448E-4
2.762887558E0,4.581354442E-4,-6.872031372E-4,-2.290677221E-4,8.570929111E-4
2.765313443E0,-1.527118147E-4,5.344913807E-4,-2.290677221E-4,6.012270417E-4
2.767739276E0,-1.527118147E-4,1.145338640E-3,3.817795368E-4,1.216912944E-3
2.770165162E0,1.068982761E-3,1.145338640E-3,3.817795368E-4,1.612538483E-3
2.772591047E0,1.068982761E-3,5.344913807E-4,9.926267667E-4,1.553612911E-3
2.775016933E0,4.581354442E-4,-7.635590737E-5,9.926267667E-4,1.095913413E-3
2.777442818E0,1.068982761E-3,-7.635590737E-5,1.603474026E-3,1.928648055E-3
2.779868703E0,4.581354442E-4,-7.635590737E-5,3.817795368E-4,6.012270158E-4
2.782294537E0,-1.527118147E-4,1.145338640E-3,-2.290677221E-4,1.177961595E-3
2.784720422E0,1.679830020E-3,5.344913807E-4,3.817795368E-4,1.803681110E-3
2.787146308E0,4.581354442E-4,-6.872031372E-4,-2.290677221E-4,8.570929111E-4
2.789572193E0,4.581354442E-4,-6.872031372E-4,9.926267667E-4,1.291295526E-3
2.791998078E0,-1.374406274E-3,5.344913807E-4,-2.290677221E-4,1.492362444E-3
2.794423964E0,-1.374406274E-3,-6.872031372E-4,2.214321401E-3,2.695266225E-3
2.796849849E0,-1.527118147E-4,-1.298050396E-3,3.817795368E-4,1.361620852E-3
2.799275683E0,1.068982761E-3,-1.298050396E-3,3.817795368E-4,1.724359182E-3
2.801701568E0,1.068982761E-3,-7.635590737E-5,-2.290677221E-4,1.095913496E-3
2.804127453E0,-1.527118147E-4,5.344913807E-4,3.817795368E-4,6.743571377E-4
2.806553339E0,-7.635590737E-4,5.344913807E-4,2.214321401E-3,2.402482625E-3
2.808979224E0,-7.635590737E-4,-6.872031372E-4,-8.399150101E-4,1.326924201E-3
2.811405110E0,4.581354442E-4,-6.872031372E-4,-2.290677221E-4,8.570929111E-4
2.813830943E0,-1.527118147E-4,-6.872031372E-4,3.817795368E-4,8.008274876E-4
2.816256828E0,-1.527118147E-4,5.344913807E-4,-8.399150101E-4,1.007203633E-3
2.818682714E0,1.679830020E-3,-1.298050396E-3,3.817795368E-4,2.156969945E-3
2.821108599E0,1.068982761E-3,5.344913807E-4,2.214321401E-3,2.516271934E-3
2.823534485E0,-1.374406274E-3,-6.872031372E-4,9.926267667E-4,1.829357444E-3
2.825960318E0,4.581354442E-4,-7.635590737E-5,-2.290677221E-4,5.178709599E-4
2.828386203E0,-1.374406274E-3,5.344913807E-4,1.603474026E-3,2.178486308E-3
2.830812089E0,-1.527118147E-4,-7.635590737E-5,3.817795368E-4,4.182185286E-4
2.833237974E0,-1.527118147E-4,5.344913807E-4,-2.290677221E-4,6.012270417E-4
2.835663860E0,-1.527118147E-4,5.344913807E-4,-8.399150101E-4,1.007203633E-3
2.838089745E0,-1.527118147E-4,-7.635590737E-5,3.054236295E-4,3.499067253E-4
2.840515630E0,-7.635590737E-4,5.344913807E-4,-3.054236295E-4,9.808094048E-4
2.842941464E0,4.581354442E-4,-1.908897655E-3,-9.162708884E-4,2.166409630E-3
2.845367349E0,-1.527118147E-4,-1.908897655E-3,3.054236295E-4,1.939199513E-3
2.847793235E0,4.581354442E-4,1.756185899E-3,9.162708884E-4,2.033132887E-3
2.850219120E0,1.068982761E-3,1.756185899E-3,-3.054236295E-4,2.078508275E-3
2.852645005E0,4.581354442E-4,1.145338640E-3,-3.054236295E-4,1.270815596E-3
2.855070891E0,-1.527118147E-4,5.344913807E-4,-9.162708884E-4,1.071706245E-3
2.857496724E0,1.068982761E-3,-7.635590737E-5,-2.137965523E-3,2.391537360E-3
2.859922610E0,4.581354442E-4,-7.635590737E-5,-3.054236295E-4,5.558793963E-4
2.862348495E0,4.581354442E-4,5.344913807E-4,-3.054236295E-4,7.673673923E-4
2.864774380E0,4.581354442E-4,-6.872031372E-4,-3.054236295E-4,8.805792585E-4
2.867200266E0,-1.527118147E-4,5.344913807E-4,3.054236295E-4,6.342598267E-4
2.869626151E0,-1.527118147E-4,5.344913807E-4,-3.054236295E-4,6.342598267E-4
2.872051985E0,4.581354442E-4,5.344913807E-4,3.054236295E-4,7.673673923E-4
2.874477870E0,-1.527118147E-4,-7.635590737E-5,3.054236295E-4,3.499067253E-4
2.876903755E0,4.581354442E-4,-6.872031372E-4,-3.054236295E-4,8.805792585E-4
2.879329641E0,-1.374406274E-3,-7.635590737E-5,-9.162708884E-4,1.653594622E-3
2.881755526E0,-1.527118147E-4,5.344913807E-4,-9.162708884E-4,1.071706245E-3
2.884181412E0,1.068982761E-3,1.145338640E-3,3.054236295E-4,1.596185558E-3
2.886607245E0,4.581354442E-4,1.145338640E-3,1.527118147E-3,1.963104307E-3
2.889033130E0,9.926267667E-4,-6.872031372E-4,-3.054236295E-4,1.245327123E-3
2.891459016E0,9.926267667E-4,-7.635590737E-5,3.054236295E-4,1.041355711E-3
2.893884901E0,3.817795368E-4,-7.635590737E-5,9.162708884E-4,9.955592299E-4
2.896310787E0,1.603474026E-3,-6.872031372E-4,-3.054236295E-4,1.771062025E-3
2.898736672E0,3.817795368E-4,-7.635590737E-5,-9.162708884E-4,9.955592299E-4
2.901162505E0,-8.399150101E-4,-7.635590737E-5,3.054236295E-4,8.969788416E-4
2.903588391E0,-2.290677221E-4,5.344913807E-4,9.162708884E-4,1.085221359E-3
2.906014276E0,-8.399150101E-4,-7.635590737E-5,-9.162708884E-4,1.245327182E-3
2.908440162E0,-2.290677221E-4,-6.872031372E-4,9.162708884E-4,1.168020768E-3
2.910866047E0,-2.290677221E-4,5.344913807E-4,9.162708884E-4,1.085221359E-3
2.913291933E0,-8.399150101E-4,-1.298050396E-3,1.527118147E-3,2.173127215E-3
2.915717766E0,-8.399150101E-4,-7.635590737E-5,3.054236295E-4,8.969788416E-4
2.918143651E0,-1.450762269E-3,5.344913807E-4,-9.162708884E-4,1.797204646E-3
2.920569537E0,-8.399150101E-4,-6.872031372E-4,-1.527118147E-3,1.873444745E-3
2.922995422E0,9.926267667E-4,5.344913807E-4,-9.926267667E-4,1.502097477E-3
2.925421308E0,1.603474026E-3,1.145338640E-3,-1.603474026E-3,2.540483911E-3
2.927847193E0,-2.290677221E-4,5.344913807E-4,-9.926267667E-4,1.150417731E-3
2.930273078E0,-8.399150101E-4,5.344913807E-4,2.290677221E-4,1.021572455E-3
2.932698912E0,-8.399150101E-4,1.756185899E-3,2.290677221E-4,1.960132178E-3
2.935124797E0,3.817795368E-4,5.344913807E-4,-3.817795368E-4,7.597317063E-4
2.937550683E0,3.817795368E-4,1.145338640E-3,-1.603474026E-3,2.007158480E-3
2.939976568E0,3.817795368E-4,-7.635590737E-5,-9.926267667E-4,1.066252192E-3
2.942402453E0,-2.290677221E-4,1.145338640E-3,-3.817795368E-4,1.228832062E-3
2.944828287E0,-8.399150101E-4,-7.635590737E-5,-3.817795368E-4,9.257662035E-4
2.947254172E0,-2.290677221E-4,1.145338640E-3,-3.817795368E-4,1.228832062E-3
2.949680058E0,-2.290677221E-4,1.145338640E-3,-3.817795368E-4,1.228832062E-3
2.952105943E0,3.817795368E-4,-7.635590737E-5,-3.817795368E-4,5.452902476E-4
2.954531828E0,3.817795368E-4,1.145338640E-3,-3.817795368E-4,1.266219503E-3
2.956957714E0,3.817795368E-4,1.145338640E-3,-1.603474026E-3,2.007158480E-3
2.959383547E0,3.817795368E-4,5.344913807E-4,-9.926267667E-4,1.190270788E-3
2.961809433E0,9.926267667E-4,5.344913807E-4,-3.817795368E-4,1.190270788E-3
2.964235318E0,3.817795368E-4,5.344913807E-4,-9.926267667E-4,1.190270788E-3
2.966661203E0,-2.290677221E-4,-7.635590737E-5,8.399150101E-4,8.739333328E-4
2.969087089E0,-8.399150101E-4,5.344913807E-4,-3.817795368E-4,1.066252257E-3
2.971512974E0,3.817795368E-4,-1.908897655E-3,-9.926267667E-4,2.185166760E-3
2.973938808E0,3.817795368E-4,5.344913807E-4,-3.817795368E-4,7.597317063E-4
2.976364693E0,-2.290677221E-4,-7.635590737E-5,2.290677221E-4,3.328276840E-4
2.978790578E0,3.817795368E-4,-1.298050396E-3,8.399150101E-4,1.592528703E-3
2.981216464E0,9.926267667E-4,-6.872031372E-4,1.450762269E-3,1.887396941E-3
2.983642349E0,9.926267667E-4,5.344913807E-4,-3.817795368E-4,1.190270788E-3
2.986068235E0,3.817795368E-4,5.344913807E-4,-3.817795368E-4,7.597317063E-4
2.988494120E0,-1.450762269E-3,-7.635590737E-5,8.399150101E-4,1.678093743E-3
2.990919953E0,-2.290677221E-4,5.344913807E-4,2.290677221E-4,6.250000629E-4
2.993345839E0,3.817795368E-4,1.068982761E-3,-3.817795368E-4,1.197595664E-3
2.995771724E0,-2.290677221E-4,1.068982761E-3,2.290677221E-4,1.116990683E-3
2.998197610E0,-8.399150101E-4,-1.527118147E-4,2.290677221E-4,8.838835579E-4
3.000623495E0,-2.290677221E-4,4.581354442E-4,8.399150101E-4,9.837770737E-4
3.003049380E0,-1.450762269E-3,-1.527118147E-4,2.290677221E-4,1.476653000E-3
3.005475214E0,2.214321401E-3,-1.527118147E-4,-3.817795368E-4,2.252175788E-3
3.007901099E0,3.817795368E-4,-1.527118147E-4,-9.926267667E-4,1.074422827E-3
3.010326985E0,3.817795368E-4,2.290677279E-3,-3.817795368E-4,2.353447180E-3
3.012752870E0,1.603474026E-3,-1.527118147E-4,-3.054236295E-4,1.639430829E-3
3.015178755E0,-2.290677221E-4,-7.635590737E-4,9.162708884E-4,1.214515056E-3
3.017604641E0,3.817795368E-4,-1.527118147E-4,1.527118147E-3,1.581507619E-3
3.020030474E0,-2.290677221E-4,-7.635590737E-4,-3.054236295E-4,8.536849968E-4
3.022456360E0,3.817795368E-4,4.581354442E-4,3.054236295E-4,6.700203679E-4
3.024882245E0,3.817795368E-4,-1.527118147E-4,-3.054236295E-4,5.122109981E-4
3.027308130E0,-2.290677221E-4,-1.527118147E-4,-1.527118147E-3,1.551735401E-3
3.029734016E0,9.926267667E-4,-7.635590737E-4,3.054236295E-4,1.289036055E-3
3.032159901E0,9.926267667E-4,1.068982761E-3,-3.054236295E-4,1.490407876E-3
3.034585735E0,3.817795368E-4,1.068982761E-3,3.054236295E-4,1.175484305E-3
3.037011620E0,-2.290677221E-4,-7.635590737E-4,-2.137965523E-3,2.281751752E-3
3.039437505E0,-2.290677221E-4,4.581354442E-4,-3.054236295E-4,5.963587008E-4
3.041863391E0,3.817795368E-4,4.581354442E-4,9.162708884E-4,1.093250219E-3
3.044289276E0,3.817795368E-4,-1.374406274E-3,9.162708884E-4,1.695376230E-3
3.046715162E0,-2.290677221E-4,-1.527118147E-4,2.748812549E-3,2.762564632E-3
3.049140995E0,-2.290677221E-4,4.581354442E-4,1.527118147E-3,1.610729630E-3
3.051566880E0,3.817795368E-4,-1.527118147E-4,3.054236295E-4,5.122109981E-4
3.053992766E0,-2.290677221E-4,-1.527118147E-4,-9.162708884E-4,9.567367771E-4
3.056418651E0,9.926267667E-4,-1.527118147E-4,3.054236295E-4,1.049720148E-3
3.058844537E0,-8.399150101E-4,-1.527118147E-4,-1.527118147E-3,1.749533640E-3
3.061270422E0,-1.450762269E-3,4.581354442E-4,-3.054236295E-4,1.551735429E-3
3.063696308E0,3.817795368E-4,1.068982761E-3,3.054236295E-4,1.175484305E-3
3.066122141E0,3.817795368E-4,1.068982761E-3,-3.054236295E-4,1.175484305E-3
3.068548026E0,9.926267667E-4,-7.635590737E-4,-3.054236295E-4,1.289036055E-3
3.070973912E0,-2.290677221E-4,4.581354442E-4,-3.054236295E-4,5.963587008E-4
3.073399797E0,-2.290677221E-4,-7.635590737E-4,9.162708884E-4,1.214515056E-3
3.075825683E0,-2.290677221E-4,1.068982761E-3,-9.162708884E-4,1.426446111E-3
3.078251568E0,3.817795368E-4,4.581354442E-4,-3.054236295E-4,6.700203679E-4
3.080677401E0,-2.290677221E-4,-1.527118147E-4,3.054236295E-4,4.111891452E-4
3.083103287E0,-2.290677221E-4,-1.527118147E-4,-9.162708884E-4,9.567367771E-4
3.085529172E0,-8.399150101E-4,4.581354442E-4,-3.054236295E-4,1.004305184E-3
3.087955058E0,3.817795368E-4,-1.527118147E-4,3.054236295E-4,5.122109981E-4
3.090380943E0,9.926267667E-4,-1.527118147E-4,3.054236295E-4,1.049720148E-3
3.092806776E0,9.926267667E-4,-7.635590737E-4,-9.162708884E-4,1.551735383E-3
3.095232662E0,3.817795368E-4,1.068982761E-3,3.054236295E-4,1.175484305E-3
3.097658547E0,9.926267667E-4,-2.290677221E-4,-9.162708884E-4,1.370157750E-3
3.100084433E0,1.527118147E-3,-1.450762269E-3,3.054236295E-4,2.128399537E-3
3.102510318E0,-3.054236295E-4,-8.399150101E-4,-9.162708884E-4,1.279958264E-3
3.104936203E0,3.054236295E-4,-2.290677221E-4,3.054236295E-4,4.889163611E-4
3.107362037E0,-3.054236295E-4,-2.290677221E-4,-3.054236295E-4,4.889163611E-4
3.109787922E0,-3.054236295E-4,-2.290677221E-4,3.054236295E-4,4.889163611E-4
3.112213808E0,-3.054236295E-4,3.817795368E-4,9.162708884E-4,1.038552622E-3
3.114639693E0,3.054236295E-4,-2.290677221E-4,3.054236295E-4,4.889163611E-4
3.117065578E0,-9.162708884E-4,3.817795368E-4,9.162708884E-4,1.350873901E-3
3.119491464E0,-3.054236295E-4,3.817795368E-4,9.162708884E-4,1.038552622E-3
3.121917349E0,9.162708884E-4,3.817795368E-4,-9.162708884E-4,1.350873901E-3
3.124343183E0,-9.162708884E-4,-8.399150101E-4,3.054236295E-4,1.279958264E-3
3.126769068E0,3.054236295E-4,3.817795368E-4,3.054236295E-4,5.764744588E-4
3.129194953E0,-3.054236295E-4,9.926267667E-4,-3.054236295E-4,1.082531794E-3
3.131620839E0,3.054236295E-4,-8.399150101E-4,-3.054236295E-4,9.444704395E-4
3.134046724E0,-3.054236295E-4,-2.290677221E-4,3.054236295E-4,4.889163611E-4
3.136472610E0,-9.162708884E-4,-2.290677221E-4,-3.054236295E-4,9.926267958E-4
3.138898443E0,3.054236295E-4,1.603474026E-3,-3.054236295E-4,1.660631247E-3
3.141324328E0,3.054236295E-4,3.817795368E-4,-9.162708884E-4,1.038552622E-3
3.143750214E0,-9.162708884E-4,3.817795368E-4,9.162708884E-4,1.350873901E-3
3.146176099E0,3.054236295E-4,-2.290677221E-4,-3.054236295E-4,4.889163611E-4
3.148601985E0,3.054236295E-4,3.817795368E-4,-9.162708884E-4,1.038552622E-3
3.151027870E0,2.137965523E-3,-2.290677221E-4,3.054236295E-4,2.171785485E-3
3.153453703E0,-1.527118147E-3,3.817795368E-4,3.054236295E-4,1.603474055E-3
3.155879589E0,-9.162708884E-4,-2.290677221E-4,-3.054236295E-4,9.926267958E-4
3.158305474E0,-3.054236295E-4,3.817795368E-4,-9.162708884E-4,1.038552622E-3
3.160731360E0,-9.162708884E-4,3.817795368E-4,3.054236295E-4,1.038552622E-3
3.163157245E0,-3.054236295E-4,9.926267667E-4,9.162708884E-4,1.384970697E-3
3.165583130E0,-3.054236295E-4,3.817795368E-4,1.527118147E-3,1.603474055E-3
3.168008964E0,-9.162708884E-4,3.817795368E-4,3.054236295E-4,1.038552622E-3
3.170434849E0,3.054236295E-4,-8.399150101E-4,-1.527118147E-3,1.769415342E-3
3.172860735E0,3.054236295E-4,-2.290677221E-4,-3.054236295E-4,4.889163611E-4
3.175286620E0,-3.054236295E-4,3.817795368E-4,-3.054236295E-4,5.764744588E-4
3.177712505E0,-9.162708884E-4,9.926267667E-4,3.054236295E-4,1.384970697E-3
3.180138391E0,-9.162708884E-4,-1.450762269E-3,3.054236295E-4,1.742856017E-3
3.182564224E0,9.162708884E-4,3.817795368E-4,3.054236295E-4,1.038552622E-3
3.184990110E0,2.137965523E-3,-2.290677221E-4,-9.162708884E-4,2.337289229E-3
3.187415995E0,1.527118147E-3,3.817795368E-4,-3.054236295E-4,1.603474055E-3
3.189841880E0,-3.054236295E-4,3.817795368E-4,-3.054236295E-4,5.764744588E-4
3.192267766E0,9.162708884E-4,-2.290677221E-4,3.054236295E-4,9.926267958E-4
3.194693651E0,-3.054236295E-4,3.817795368E-4,-3.054236295E-4,5.764744588E-4
3.197119537E0,-9.162708884E-4,-8.399150101E-4,-9.162708884E-4,1.544202677E-3
3.199545370E0,9.162708884E-4,3.817795368E-4,-3.054236295E-4,1.038552622E-3
3.201971255E0,9.162708884E-4,-8.399150101E-4,-3.054236295E-4,1.279958264E-3
3.204397141E0,-3.054236295E-4,-2.290677221E-4,9.162708884E-4,9.926267958E-4
3.206823026E0,-3.054236295E-4,3.817795368E-4,3.054236295E-4,5.764744588E-4
3.209248912E0,-1.527118147E-3,9.926267667E-4,3.054236295E-4,1.846803002E-3
3.211674745E0,-3.054236295E-4,-1.450762269E-3,-9.162708884E-4,1.742856017E-3
3.214100630E0,3.054236295E-4,-8.399150101E-4,-9.162708884E-4,1.279958264E-3
3.216526516E0,-9.162708884E-4,3.817795368E-4,-3.054236295E-4,1.038552622E-3
3.218952401E0,3.054236295E-4,3.817795368E-4,-9.162708884E-4,1.038552622E-3
3.221378287E0,-3.054236295E-4,-8.399150101E-4,3.054236295E-4,9.444704395E-4
3.223804172E0,-3.054236295E-4,-8.399150101E-4,-9.162708884E-4,1.279958264E-3
3.226230058E0,-9.162708884E-4,-2.061609412E-3,-3.054236295E-4,2.276635522E-3
3.228655891E0,3.054236295E-4,-1.450762269E-3,-9.162708884E-4,1.742856017E-3
3.231081776E0,9.162708884E-4,-2.290677221E-4,3.054236295E-4,9.926267958E-4
3.233507662E0,-3.054236295E-4,9.926267667E-4,9.162708884E-4,1.384970697E-3
3.235933547E0,-9.162708884E-4,-2.290677221E-4,3.054236295E-4,9.926267958E-4
3.238359433E0,-3.054236295E-4,-2.290677221E-4,-1.527118147E-3,1.574117356E-3
3.240785266E0,3.054236295E-4,-8.399150101E-4,-3.054236295E-4,9.444704395E-4
3.243211151E0,3.054236295E-4,-2.290677221E-4,9.162708884E-4,9.926267958E-4
3.245637037E0,3.054236295E-4,-8.399150101E-4,-9.162708884E-4,1.279958264E-3
3.248062922E0,-3.054236295E-4,3.817795368E-4,-3.054236295E-4,5.764744588E-4
3.250488808E0,9.162708884E-4,-2.290677221E-4,3.054236295E-4,9.926267958E-4
3.252914693E0,9.162708884E-4,3.817795368E-4,-9.162708884E-4,1.350873901E-3
3.255340578E0,-3.054236295E-4,3.817795368E-4,3.054236295E-4,5.764744588E-4
3.257766412E0,-9.162708884E-4,1.603474026E-3,-9.162708884E-4,2.061609476E-3
3.260192297E0,-3.054236295E-4,-2.290677221E-4,-3.054236295E-4,4.889163611E-4
3.262618183E0,-3.054236295E-4,3.817795368E-4,3.054236295E-4,5.764744588E-4
3.265044068E0,3.054236295E-4,-2.290677221E-4,3.054236295E-4,4.889163611E-4
3.267469953E0,1.527118147E-3,-2.290677221E-4,3.054236295E-4,1.574117356E-3
3.269895839E0,9.162708884E-4,-2.290677221E-4,-3.054236295E-4,9.926267958E-4
3.272321672E0,-9.162708884E-4,9.926267667E-4,9.162708884E-4,1.632302846E-3
3.274747558E0,1.527118147E-3,-8.399150101E-4,-9.162708884E-4,1.969035145E-3
3.277173443E0,-3.054236295E-4,3.817795368E-4,-3.054236295E-4,5.764744588E-4
3.279599328E0,-9.162708884E-4,-8.399150101E-4,-3.054236295E-4,1.279958264E-3
3.282025214E0,-3.054236295E-4,1.603474026E-3,-3.054236295E-4,1.660631247E-3
3.284451099E0,-3.054236295E-4,3.817795368E-4,-3.054236295E-4,5.764744588E-4
3.286876933E0,9.162708884E-4,3.817795368E-4,9.162708884E-4,1.350873901E-3
3.289302818E0,3.054236295E-4,9.926267667E-4,9.162708884E-4,1.384970697E-3
3.291728703E0,9.162708884E-4,1.603474026E-3,-3.054236295E-4,1.871888054E-3
3.294154589E0,3.054236295E-4,3.817795368E-4,9.162708884E-4,1.038552622E-3
3.296580474E0,9.162708884E-4,-8.399150101E-4,-3.054236295E-4,1.279958264E-3
3.299006360E0,3.054236295E-4,-2.290677221E-4,-9.162708884E-4,9.926267958E-4
3.301432193E0,-3.054236295E-4,-2.061609412E-3,3.817795368E-4,2.118790356E-3
3.303858078E0,-3.054236295E-4,-2.672456671E-3,-1.450762269E-3,3.056144534E-3
3.306283964E0,-3.054236295E-4,9.926267667E-4,-8.399150101E-4,1.335682865E-3
3.308709849E0,3.054236295E-4,-2.290677221E-4,-2.290677221E-4,4.452276227E-4
3.311135735E0,3.054236295E-4,-1.450762269E-3,3.817795368E-4,1.530931210E-3
3.313561620E0,-3.054236295E-4,-8.399150101E-4,-8.399150101E-4,1.226457517E-3
3.315987505E0,9.162708884E-4,-2.290677221E-4,-2.061609412E-3,2.267654676E-3
3.318413339E0,3.054236295E-4,-8.399150101E-4,9.926267667E-4,1.335682865E-3
3.320839224E0,-3.054236295E-4,3.817795368E-4,-2.290677221E-4,5.399177988E-4
3.323265110E0,-3.054236295E-4,9.926267667E-4,-2.290677221E-4,1.063514698E-3
3.325690995E0,3.054236295E-4,3.817795368E-4,3.817795368E-4,6.203183239E-4
3.328116880E0,3.054236295E-4,-2.290677221E-4,3.817795368E-4,5.399177988E-4
3.330542714E0,3.054236295E-4,-8.399150101E-4,3.817795368E-4,9.718520631E-4
3.332968599E0,-3.054236295E-4,-2.290677221E-4,-2.290677221E-4,4.452276227E-4
3.335394485E0,3.054236295E-4,9.926267667E-4,3.817795368E-4,1.106502194E-3
3.337820370E0,-3.054236295E-4,-1.450762269E-3,-2.290677221E-4,1.500155584E-3
3.340246255E0,9.162708884E-4,9.926267667E-4,-1.450762269E-3,1.982314657E-3
3.342672141E0,3.054236295E-4,3.817795368E-4,-8.399150101E-4,9.718520631E-4
3.345097974E0,3.054236295E-4,-2.290677221E-4,-8.399150101E-4,9.226119656E-4
3.347523860E0,3.054236295E-4,-2.290677221E-4,3.817795368E-4,5.399177988E-4
3.349949745E0,1.527118147E-3,3.817795368E-4,-8.399150101E-4,1.784181234E-3
3.352375630E0,9.162708884E-4,9.926267667E-4,-1.450762269E-3,1.982314657E-3
3.354801516E0,3.054236295E-4,-2.290677221E-4,3.817795368E-4,5.399177988E-4
3.357227401E0,-9.162708884E-4,-8.399150101E-4,-8.399150101E-4,1.500155588E-3
3.359653287E0,3.054236295E-4,-2.290677221E-4,3.817795368E-4,5.399177988E-4
3.362079120E0,-3.054236295E-4,1.603474026E-3,-2.290677221E-4,1.648297475E-3
3.364505005E0,3.054236295E-4,-8.399150101E-4,-2.290677221E-4,9.226119656E-4
3.366930891E0,3.054236295E-4,-8.399150101E-4,9.926267667E-4,1.335682865E-3
3.369356776E0,-3.054236295E-4,3.817795368E-4,-2.290677221E-4,5.399177988E-4
3.371782662E0,9.162708884E-4,9.926267667E-4,3.817795368E-4,1.403786256E-3
3.374208547E0,3.054236295E-4,3.817795368E-4,-2.290677221E-4,5.399177988E-4
3.376634380E0,-2.137965523E-3,-8.399150101E-4,-8.399150101E-4,2.445774116E-3
3.379060266E0,-3.054236295E-4,9.926267667E-4,3.817795368E-4,1.106502194E-3
3.381486151E0,9.162708884E-4,-8.399150101E-4,3.817795368E-4,1.300294267E-3
3.383912037E0,3.054236295E-4,-2.290677221E-4,3.817795368E-4,5.399177988E-4
3.386337922E0,-3.054236295E-4,-2.290677221E-4,3.817795368E-4,5.399177988E-4
3.388763808E0,9.162708884E-4,3.817795368E-4,-1.450762269E-3,1.757845021E-3
3.391189641E0,-3.054236295E-4,1.603474026E-3,-8.399150101E-4,1.835720504E-3
3.393615526E0,-9.162708884E-4,9.926267667E-4,-8.399150101E-4,1.590697163E-3
3.396041412E0,-1.527118147E-3,3.817795368E-4,-8.399150101E-4,1.784181234E-3
3.398467297E0,-3.054236295E-4,-2.290677221E-4,-8.399150101E-4,9.226119656E-4
3.400893183E0,3.054236295E-4,-8.399150101E-4,-2.290677221E-4,9.226119656E-4
3.403319068E0,1.527118147E-3,-8.399150101E-4,1.603474026E-3,2.368264346E-3
3.405744953E0,9.162708884E-4,3.817795368E-4,-2.290677221E-4,1.018714865E-3
3.408170787E0,2.290677221E-4,-2.290677221E-4,-1.450762269E-3,1.486490903E-3
3.410596672E0,1.450762269E-3,3.817795368E-4,3.817795368E-4,1.547973640E-3
3.413022558E0,2.290677221E-4,-2.290677221E-4,9.926267667E-4,1.044151302E-3
3.415448443E0,-9.926267667E-4,-2.290677221E-4,3.817795368E-4,1.087904193E-3
3.417874328E0,-1.603474026E-3,-2.290677221E-4,3.817795368E-4,1.664138392E-3
3.420300162E0,-3.817795368E-4,-1.450762269E-3,-8.399150101E-4,1.719280082E-3
3.422726047E0,2.290677221E-4,9.926267667E-4,3.817795368E-4,1.087904193E-3
3.425151933E0,1.450762269E-3,-2.290677221E-4,9.926267667E-4,1.772707274E-3
3.427577818E0,2.290677221E-4,-8.399150101E-4,-2.290677221E-4,9.002228984E-4
3.430003703E0,-3.817795368E-4,3.817795368E-4,1.068982761E-3,1.197595664E-3
3.432429589E0,-3.817795368E-4,9.926267667E-4,1.679830020E-3,1.988188223E-3
3.434855422E0,-3.817795368E-4,-1.450762269E-3,1.679830020E-3,2.252175764E-3
3.437281308E0,8.399150101E-4,-1.450762269E-3,1.068982761E-3,1.988188253E-3
3.439707193E0,1.450762269E-3,3.817795368E-4,4.581354442E-4,1.568551836E-3
3.442133078E0,2.290677221E-4,-2.290677221E-4,1.068982761E-3,1.116990683E-3
3.444558964E0,-3.817795368E-4,3.817795368E-4,1.068982761E-3,1.197595664E-3
3.446984849E0,-3.817795368E-4,3.817795368E-4,4.581354442E-4,7.080955548E-4
3.449410735E0,-3.817795368E-4,3.817795368E-4,4.581354442E-4,7.080955548E-4
3.451836568E0,-3.817795368E-4,3.817795368E-4,4.581354442E-4,7.080955548E-4
3.454262453E0,2.290677221E-4,3.817795368E-4,-1.527118147E-4,4.706894246E-4
3.456688339E0,-3.817795368E-4,9.926267667E-4,1.679830020E-3,1.988188223E-3
3.459114224E0,-3.817795368E-4,-1.450762269E-3,1.679830020E-3,2.252175764E-3
3.461540110E0,8.399150101E-4,-2.290677221E-4,1.679830020E-3,1.892024879E-3
3.463965943E0,8.399150101E-4,-8.399150101E-4,1.679830020E-3,2.057363202E-3
3.466391828E0,-9.926267667E-4,3.817795368E-4,4.581354442E-4,1.157994645E-3
3.468817714E0,-3.817795368E-4,-2.290677221E-4,1.068982761E-3,1.157994724E-3
3.471243599E0,8.399150101E-4,9.926267667E-4,-1.527118147E-4,1.309231080E-3
3.473669485E0,2.290677221E-4,-2.290677221E-4,-1.527118147E-4,3.581409513E-4
3.476095370E0,-3.817795368E-4,-1.450762269E-3,4.581354442E-4,1.568551836E-3
3.478521203E0,2.290677221E-4,-8.399150101E-4,4.581354442E-4,9.837770737E-4
3.480947089E0,8.399150101E-4,-8.399150101E-4,4.581354442E-4,1.273107432E-3
3.483372974E0,-9.926267667E-4,-8.399150101E-4,4.581354442E-4,1.378641798E-3
3.485798860E0,-3.817795368E-4,3.817795368E-4,-7.635590737E-4,9.351650595E-4
3.488224745E0,8.399150101E-4,-2.290677221E-4,-1.374406274E-3,1.626936339E-3
3.490650630E0,2.290677221E-4,3.817795368E-4,4.581354442E-4,6.388393548E-4
3.493076516E0,-3.817795368E-4,3.817795368E-4,-1.527118147E-4,5.610990357E-4
3.495502349E0,8.399150101E-4,3.817795368E-4,-7.635590737E-4,1.197595632E-3
3.497928235E0,2.290677221E-4,-8.399150101E-4,4.581354442E-4,9.837770737E-4
3.500354120E0,-3.817795368E-4,3.817795368E-4,-7.635590737E-4,9.351650595E-4
3.502780005E0,-1.603474026E-3,-2.290677221E-4,4.581354442E-4,1.683297079E-3
3.505205891E0,-3.817795368E-4,9.926267667E-4,4.581354442E-4,1.157994645E-3
3.507631776E0,-3.817795368E-4,1.603474026E-3,-1.527118147E-4,1.655356597E-3
3.510057610E0,-9.926267667E-4,3.817795368E-4,-1.527118147E-4,1.074422827E-3
3.512483495E0,2.290677221E-4,3.817795368E-4,-1.527118147E-4,4.706894246E-4
3.514909380E0,2.290677221E-4,-1.450762269E-3,-2.290677221E-4,1.486490903E-3
3.517335266E0,2.290677221E-4,-8.399150101E-4,3.817795368E-4,9.506234062E-4
3.519761151E0,2.061609412E-3,9.926267667E-4,3.817795368E-4,2.319762246E-3
3.522187037E0,2.290677221E-4,-2.290677221E-4,3.817795368E-4,5.006991685E-4
3.524612922E0,2.061609412E-3,3.817795368E-4,-2.290677221E-4,2.109137502E-3
3.527038755E0,-3.817795368E-4,-8.399150101E-4,3.817795368E-4,9.984830764E-4
3.529464641E0,-1.603474026E-3,3.817795368E-4,9.926267667E-4,1.924108226E-3
3.531890526E0,-1.603474026E-3,9.926267667E-4,3.817795368E-4,1.924108226E-3
3.534316412E0,-3.817795368E-4,3.817795368E-4,1.603474026E-3,1.691933858E-3
3.536742297E0,2.290677221E-4,-8.399150101E-4,-2.290677221E-4,9.002228984E-4
3.539168130E0,1.450762269E-3,3.817795368E-4,-2.290677221E-4,1.517543672E-3
3.541594016E0,2.290677221E-4,-2.290677221E-4,-8.399150101E-4,9.002228984E-4
3.544019901E0,8.399150101E-4,-2.290677221E-4,-2.290677221E-4,9.002228984E-4
3.546445787E0,2.290677221E-4,-8.399150101E-4,3.817795368E-4,9.506234062E-4
3.548871672E0,8.399150101E-4,3.817795368E-4,3.817795368E-4,9.984830764E-4
3.551297558E0,-3.817795368E-4,-2.290677221E-4,9.926267667E-4,1.087904193E-3
3.553723443E0,-9.926267667E-4,-2.290677221E-4,-8.399150101E-4,1.320317062E-3
3.556149276E0,-9.926267667E-4,-2.290677221E-4,1.603474026E-3,1.899712839E-3
3.558575162E0,-3.817795368E-4,-2.290677221E-4,-2.290677221E-4,5.006991685E-4
3.561001047E0,-3.817795368E-4,-2.290677221E-4,3.817795368E-4,5.865008532E-4
3.563426933E0,2.290677221E-4,1.603474026E-3,9.926267667E-4,1.899712839E-3
3.565852818E0,-3.817795368E-4,-8.399150101E-4,1.603474026E-3,1.849957240E-3
3.568278651E0,-3.817795368E-4,-2.290677221E-4,9.926267667E-4,1.087904193E-3
3.570704537E0,-3.817795368E-4,-2.290677221E-4,-2.290677221E-4,5.006991685E-4
3.573130422E0,-9.926267667E-4,-2.290677221E-4,3.817795368E-4,1.087904193E-3
3.575556308E0,2.290677221E-4,-2.290677221E-4,-1.450762269E-3,1.486490903E-3
3.577982193E0,-3.817795368E-4,3.817795368E-4,-8.399150101E-4,9.984830764E-4
3.580408078E0,-9.926267667E-4,3.817795368E-4,9.926267667E-4,1.454775381E-3
3.582833964E0,-9.926267667E-4,-2.290677221E-4,-2.290677221E-4,1.044151302E-3
3.585259797E0,-2.825168660E-3,3.817795368E-4,-2.290677221E-4,2.860035943E-3
3.587685683E0,2.290677221E-4,-1.450762269E-3,-8.399150101E-4,1.691933925E-3
3.590111568E0,1.450762269E-3,9.926267667E-4,-8.399150101E-4,1.948198215E-3
3.592537453E0,2.290677221E-4,-2.290677221E-4,-8.399150101E-4,9.002228984E-4
3.594963339E0,8.399150101E-4,-2.290677221E-4,-2.290677221E-4,9.002228984E-4
3.597389224E0,8.399150101E-4,-8.399150101E-4,1.603474026E-3,1.995505800E-3
3.599815058E0,2.290677221E-4,1.603474026E-3,9.926267667E-4,1.899712839E-3
3.602240943E0,-3.817795368E-4,2.825168660E-3,9.926267667E-4,3.018715202E-3
3.604666828E0,2.290677221E-4,-2.290677221E-4,-2.290677221E-4,3.967569331E-4
3.607092714E0,2.290677221E-4,-8.399150101E-4,-8.399150101E-4,1.209705117E-3
3.609518599E0,2.290677221E-4,3.817795368E-4,3.817795368E-4,5.865008532E-4
3.611944485E0,-3.817795368E-4,9.926267667E-4,-2.290677221E-4,1.087904193E-3
3.614370318E0,2.290677221E-4,3.817795368E-4,-8.399150101E-4,9.506234062E-4
3.616796203E0,-1.603474026E-3,-2.290677221E-4,3.817795368E-4,1.664138392E-3
3.619222089E0,8.399150101E-4,-2.290677221E-4,-1.450762269E-3,1.691933925E-3
3.621647974E0,2.290677221E-4,1.603474026E-3,-8.399150101E-4,1.824570688E-3
3.624073860E0,2.290677221E-4,1.603474026E-3,3.054236295E-4,1.648297475E-3
3.626499745E0,2.290677221E-4,2.214321401E-3,9.162708884E-4,2.407331225E-3
3.628925578E0,2.290677221E-4,9.926267667E-4,-3.054236295E-4,1.063514698E-3
3.631351464E0,8.399150101E-4,-1.450762269E-3,9.162708884E-4,1.910424227E-3
3.633777349E0,2.290677221E-4,-2.061609412E-3,-9.162708884E-4,2.267654676E-3
3.636203235E0,8.399150101E-4,-2.290677221E-4,9.162708884E-4,1.263915182E-3
3.638629120E0,2.290677221E-4,-1.450762269E-3,-3.054236295E-4,1.500155584E-3
3.641055005E0,2.290677221E-4,-2.290677221E-4,-9.162708884E-4,9.718520379E-4
3.643480839E0,-3.817795368E-4,-8.399150101E-4,-3.054236295E-4,9.718520631E-4
3.645906724E0,-3.817795368E-4,-8.399150101E-4,3.054236295E-4,9.718520631E-4
3.648332610E0,1.450762269E-3,-2.290677221E-4,3.054236295E-4,1.500155584E-3
3.650758495E0,8.399150101E-4,-2.290677221E-4,-3.054236295E-4,9.226119656E-4
3.653184380E0,-1.603474026E-3,-2.290677221E-4,3.054236295E-4,1.648297475E-3
3.655610266E0,-9.926267667E-4,3.817795368E-4,3.054236295E-4,1.106502194E-3
3.658036099E0,2.290677221E-4,9.926267667E-4,9.162708884E-4,1.370157750E-3
3.660461985E0,2.290677221E-4,9.926267667E-4,-3.054236295E-4,1.063514698E-3
3.662887870E0,2.290677221E-4,-2.290677221E-4,3.054236295E-4,4.452276227E-4
3.665313755E0,8.399150101E-4,-8.399150101E-4,3.054236295E-4,1.226457517E-3
3.667739641E0,2.290677221E-4,-2.061609412E-3,3.054236295E-4,2.096661389E-3
3.670165526E0,-3.817795368E-4,-8.399150101E-4,3.054236295E-4,9.718520631E-4
3.672591360E0,2.290677221E-4,-2.290677221E-4,3.054236295E-4,4.452276227E-4
3.675017245E0,-1.603474026E-3,-2.290677221E-4,1.527118147E-3,2.226138093E-3
3.677443130E0,-9.926267667E-4,-8.399150101E-4,9.162708884E-4,1.590697163E-3
3.679869016E0,8.399150101E-4,9.926267667E-4,3.054236295E-4,1.335682865E-3
3.682294901E0,8.399150101E-4,9.926267667E-4,-3.054236295E-4,1.335682865E-3
3.684720787E0,-3.817795368E-4,3.817795368E-4,3.054236295E-4,6.203183239E-4
3.687146620E0,-1.603474026E-3,3.817795368E-4,3.054236295E-4,1.676355618E-3
3.689572505E0,-3.817795368E-4,-8.399150101E-4,-3.054236295E-4,9.718520631E-4
3.691998391E0,8.399150101E-4,3.817795368E-4,3.054236295E-4,9.718520631E-4
3.694424276E0,2.290677221E-4,-2.290677221E-4,3.054236295E-4,4.452276227E-4
3.696850162E0,-3.817795368E-4,3.817795368E-4,9.162708884E-4,1.063514725E-3
3.699276047E0,2.290677221E-4,-8.399150101E-4,-9.162708884E-4,1.263915182E-3
3.701701933E0,-3.817795368E-4,-8.399150101E-4,-3.054236295E-4,9.718520631E-4
3.704127766E0,8.399150101E-4,-2.290677221E-4,-1.527118147E-3,1.757845011E-3
3.706553651E0,8.399150101E-4,-8.399150101E-4,-1.527118147E-3,1.934684544E-3
3.708979537E0,2.290677221E-4,3.817795368E-4,-2.748812549E-3,2.784636074E-3
3.711405422E0,-3.817795368E-4,-8.399150101E-4,-3.054236295E-4,9.718520631E-4
3.713831308E0,-3.817795368E-4,-8.399150101E-4,3.054236295E-4,9.718520631E-4
3.716257141E0,-3.817795368E-4,-2.290677221E-4,1.527118147E-3,1.590697165E-3
3.718683026E0,8.399150101E-4,-8.399150101E-4,3.054236295E-4,1.226457517E-3
3.721108912E0,8.399150101E-4,-2.290677221E-4,-2.137965523E-3,2.308424966E-3
3.723534797E0,2.290677221E-4,9.926267667E-4,-1.527118147E-3,1.835720500E-3
3.725960683E0,-3.817795368E-4,3.817795368E-4,-9.162708884E-4,1.063514725E-3
3.728386568E0,-3.817795368E-4,9.926267667E-4,3.054236295E-4,1.106502194E-3
3.730812453E0,-3.817795368E-4,9.926267667E-4,3.054236295E-4,1.106502194E-3
3.733238287E0,2.290677221E-4,-2.061609412E-3,-9.162708884E-4,2.267654676E-3
3.735664172E0,-9.926267667E-4,-2.061609412E-3,9.162708884E-4,2.464770497E-3
3.738090058E0,-9.926267667E-4,-8.399150101E-4,1.527118147E-3,2.005705601E-3
3.740515943E0,-3.817795368E-4,-2.290677221E-4,-9.162708884E-4,1.018714865E-3
3.742941828E0,-3.817795368E-4,-2.290677221E-4,3.054236295E-4,5.399177988E-4
3.745367714E0,8.399150101E-4,-2.290677221E-4,-9.162708884E-4,1.263915182E-3
3.747793547E0,-3.817795368E-4,-2.290677221E-4,-9.162708884E-4,1.018714865E-3
3.750219433E0,8.399150101E-4,9.926267667E-4,-3.054236295E-4,1.335682865E-3
3.752645318E0,-1.603474026E-3,-2.290677221E-4,-3.054236295E-4,1.648297475E-3
3.755071203E0,-3.817795368E-4,9.926267667E-4,3.054236295E-4,1.106502194E-3
3.757497089E0,2.290677221E-4,-2.061609412E-3,-3.054236295E-4,2.096661389E-3
3.759922974E0,8.399150101E-4,3.817795368E-4,3.054236295E-4,9.718520631E-4
3.762348808E0,2.290677221E-4,-1.450762269E-3,-3.054236295E-4,1.500155584E-3
3.764774693E0,-3.817795368E-4,3.817795368E-4,3.054236295E-4,6.203183239E-4
3.767200578E0,-9.926267667E-4,9.926267667E-4,-3.054236295E-4,1.436627784E-3
3.769626464E0,-1.603474026E-3,-2.290677221E-4,9.162708884E-4,1.860954947E-3
3.772052349E0,2.290677221E-4,-1.450762269E-3,9.162708884E-4,1.731108178E-3
3.774478235E0,-9.926267667E-4,3.817795368E-4,-3.054236295E-4,1.106502194E-3
3.776904120E0,-3.817795368E-4,-2.290677221E-4,3.054236295E-4,5.399177988E-4
3.779329953E0,-3.817795368E-4,-2.290677221E-4,9.162708884E-4,1.018714865E-3
3.781755839E0,2.290677221E-4,-8.399150101E-4,3.054236295E-4,9.226119656E-4
3.784181724E0,-3.817795368E-4,1.603474026E-3,3.054236295E-4,1.676355618E-3
3.786607610E0,-9.926267667E-4,-2.290677221E-4,3.054236295E-4,1.063514698E-3
3.789033495E0,2.290677221E-4,-8.399150101E-4,-3.054236295E-4,9.226119656E-4
3.791459328E0,-9.926267667E-4,-2.061609412E-3,-3.054236295E-4,2.308424757E-3
3.793885214E0,8.399150101E-4,3.817795368E-4,-3.054236295E-4,9.718520631E-4
3.796311099E0,8.399150101E-4,-7.635590737E-4,3.054236295E-4,1.175484273E-3
3.798736985E0,-9.926267667E-4,4.581354442E-4,3.054236295E-4,1.135112143E-3
3.801162870E0,2.290677221E-4,-1.527118147E-4,9.162708884E-4,9.567367771E-4
3.803588755E0,-3.817795368E-4,-7.635590737E-4,3.054236295E-4,9.066761644E-4
3.806014641E0,-1.603474026E-3,-1.527118147E-4,3.054236295E-4,1.639430829E-3
3.808440474E0,-3.817795368E-4,-7.635590737E-4,9.162708884E-4,1.252329994E-3
3.810866360E0,8.399150101E-4,-1.527118147E-4,9.162708884E-4,1.252330014E-3
3.813292245E0,8.399150101E-4,-1.527118147E-4,9.162708884E-4,1.252330014E-3
3.815718130E0,-3.817795368E-4,4.581354442E-4,9.162708884E-4,1.093250219E-3
3.818144016E0,-3.817795368E-4,-1.527118147E-4,-3.054236295E-4,5.122109981E-4
3.820569901E0,-3.817795368E-4,-7.635590737E-4,3.054236295E-4,9.066761644E-4
3.822995735E0,2.290677221E-4,4.581354442E-4,3.054236295E-4,5.963587008E-4
3.825421620E0,2.290677221E-4,-7.635590737E-4,-9.162708884E-4,1.214515056E-3
3.827847505E0,1.450762269E-3,4.581354442E-4,3.054236295E-4,1.551735429E-3
3.830273391E0,-3.817795368E-4,-1.527118147E-4,9.162708884E-4,1.004305160E-3
3.832699276E0,-3.817795368E-4,4.581354442E-4,-3.054236295E-4,6.700203679E-4
3.835125162E0,-3.817795368E-4,4.581354442E-4,-3.054236295E-4,6.700203679E-4
3.837551047E0,2.290677221E-4,-1.374406274E-3,-3.054236295E-4,1.426446011E-3
3.839976880E0,-3.817795368E-4,-1.527118147E-4,-3.054236295E-4,5.122109981E-4
3.842402766E0,-9.926267667E-4,-1.527118147E-4,-9.162708884E-4,1.359478259E-3
3.844828651E0,-9.926267667E-4,-1.374406274E-3,3.054236295E-4,1.722667727E-3
3.847254537E0,-9.926267667E-4,-1.527118147E-4,3.054236295E-4,1.049720148E-3
3.849680422E0,2.290677221E-4,4.581354442E-4,9.162708884E-4,1.049720176E-3
3.852106308E0,-3.817795368E-4,1.068982761E-3,9.162708884E-4,1.458777605E-3
3.854532141E0,-2.214321401E-3,1.068982761E-3,1.527118147E-3,2.894483243E-3
3.856958026E0,-3.817795368E-4,-1.527118147E-4,3.054236295E-4,5.122109981E-4
3.859383912E0,-9.926267667E-4,4.581354442E-4,3.054236295E-4,1.135112143E-3
3.861809797E0,2.290677221E-4,-1.374406274E-3,-3.054236295E-4,1.426446011E-3
3.864235683E0,-9.926267667E-4,1.068982761E-3,9.162708884E-4,1.722667810E-3
3.866661568E0,-9.926267667E-4,1.068982761E-3,2.748812549E-3,3.111912992E-3
3.869087401E0,2.290677221E-4,4.581354442E-4,1.527118147E-3,1.610729630E-3
3.871513287E0,-9.926267667E-4,4.581354442E-4,9.162708884E-4,1.426446047E-3
3.873939172E0,8.399150101E-4,-1.527118147E-4,3.054236295E-4,9.066761914E-4
3.876365058E0,-3.054236295E-4,-7.635590737E-4,3.054236295E-4,8.772625866E-4
3.878790943E0,-3.054236295E-4,-1.527118147E-4,-3.054236295E-4,4.581354442E-4
3.881216828E0,-9.162708884E-4,-1.527118147E-4,9.162708884E-4,1.304770317E-3
3.883642662E0,-2.748812549E-3,1.068982761E-3,-3.054236295E-4,2.965127007E-3
3.886068547E0,-3.054236295E-4,1.679830020E-3,-3.054236295E-4,1.734472855E-3
3.888494433E0,-3.054236295E-4,1.068982761E-3,-3.054236295E-4,1.152948972E-3
3.890920318E0,3.054236295E-4,-1.527118147E-4,3.054236295E-4,4.581354442E-4
3.893346203E0,3.054236295E-4,-7.635590737E-4,3.054236295E-4,8.772625866E-4
3.895772089E0,3.054236295E-4,1.679830020E-3,3.054236295E-4,1.734472855E-3
3.898197922E0,-9.162708884E-4,-7.635590737E-4,-3.054236295E-4,1.231202012E-3
3.900623808E0,1.527118147E-3,4.581354442E-4,-3.054236295E-4,1.623348858E-3
3.903049693E0,1.527118147E-3,-1.527118147E-4,-3.054236295E-4,1.564830447E-3
3.905475578E0,1.527118147E-3,-1.527118147E-4,-1.527118147E-3,2.165063641E-3
3.907901464E0,3.054236295E-4,4.581354442E-4,-3.054236295E-4,6.296469424E-4
