"Time (s)","Gyroscope x (rad/s)","Gyroscope y (rad/s)","Gyroscope z (rad/s)","Absolute (rad/s)"
6.270595700E-2,-1.603474026E-3,1.298050396E-3,-4.275931045E-3,4.747594137E-3
6.513179100E-2,2.061609412E-3,-2.367033157E-3,3.665083554E-3,4.825548341E-3
6.755762400E-2,-9.926267667E-4,2.519744914E-3,-3.665083554E-3,4.557110903E-3
6.998350900E-2,8.399150101E-4,1.908897655E-3,1.221694518E-3,2.416999168E-3
7.240934300E-2,3.283303929E-3,7.635590737E-5,0.000000000E0,3.284191669E-3
7.483517600E-2,8.399150101E-4,2.519744914E-3,-6.108472589E-4,2.725381814E-3
7.726106100E-2,2.061609412E-3,-1.756185899E-3,1.832541777E-3,3.269958966E-3
7.968689500E-2,8.399150101E-4,7.635590737E-5,0.000000000E0,8.433785917E-4
8.211272800E-2,-3.817795368E-4,1.908897655E-3,3.054236295E-3,3.621878686E-3
8.453856100E-2,2.290677221E-4,7.635590737E-5,-2.443389036E-3,2.455290660E-3
8.696439500E-2,8.399150101E-4,1.298050396E-3,3.054236295E-3,3.423266189E-3
8.939022800E-2,8.399150101E-4,-5.344913807E-4,-1.221694518E-3,1.575968196E-3
9.181611300E-2,8.399150101E-4,-1.145338640E-3,1.221694518E-3,1.873444773E-3
9.424194700E-2,-3.817795368E-4,6.872031372E-4,0.000000000E0,7.861321559E-4
9.666778000E-2,2.290677221E-4,-1.756185899E-3,6.108472589E-4,1.873444770E-3
9.909361300E-2,2.290677221E-4,6.872031372E-4,1.221694518E-3,1.420301964E-3
1.015194470E-1,-3.817795368E-4,1.298050396E-3,-1.832541777E-3,2.277915672E-3
1.039453320E-1,8.399150101E-4,-5.344913807E-4,3.054236295E-3,3.212397485E-3
1.063711660E-1,8.399150101E-4,7.635590737E-5,-2.443389036E-3,2.584847661E-3
1.087969990E-1,-3.817795368E-4,7.635590737E-5,1.221694518E-3,1.282233728E-3
1.112228320E-1,2.290677221E-4,6.872031372E-4,-1.221694518E-3,1.420301964E-3
1.136487180E-1,8.399150101E-4,6.872031372E-4,2.443389036E-3,2.673547336E-3
1.160745510E-1,8.399150101E-4,1.908897655E-3,6.108472589E-4,2.173127206E-3
1.185003840E-1,2.290677221E-4,7.635590737E-5,1.832541777E-3,1.848380808E-3
1.209262180E-1,2.290677221E-4,1.298050396E-3,6.108472589E-4,1.452770190E-3
1.233520510E-1,2.290677221E-4,6.872031372E-4,-1.832541777E-3,1.970515044E-3
1.257779360E-1,8.399150101E-4,-1.756185899E-3,6.108472589E-4,2.040289320E-3
1.282037700E-1,8.399150101E-4,-5.344913807E-4,-1.221694518E-3,1.575968196E-3
1.306296030E-1,2.290677221E-4,-1.145338640E-3,0.000000000E0,1.168020813E-3
1.330554360E-1,8.399150101E-4,6.872031372E-4,-1.832541777E-3,2.129768706E-3
1.354812700E-1,2.290677221E-4,6.872031372E-4,1.832541777E-3,1.970515044E-3
1.379071030E-1,2.290677221E-4,6.872031372E-4,-6.108472589E-4,9.475518703E-4
1.403329880E-1,8.399150101E-4,-5.344913807E-4,1.832541777E-3,2.085508960E-3
1.427588220E-1,-9.926267667E-4,7.635590737E-5,1.221694518E-3,1.575968152E-3
1.451846550E-1,2.290677221E-4,-5.344913807E-4,-6.108472589E-4,8.433785811E-4
1.476104880E-1,-3.817795368E-4,6.872031372E-4,-6.108472589E-4,9.955592098E-4
1.500363740E-1,8.399150101E-4,-5.344913807E-4,-6.108472589E-4,1.168020819E-3
1.524622070E-1,2.290677221E-4,7.635590737E-5,0.000000000E0,2.414585801E-4
1.548880410E-1,-9.926267667E-4,1.298050396E-3,-6.108472589E-4,1.744527759E-3
1.573138740E-1,-3.817795368E-4,7.635590737E-5,1.221694518E-3,1.282233728E-3
1.597397590E-1,2.290677221E-4,1.908897655E-3,-6.108472589E-4,2.017299346E-3
1.621655930E-1,2.290677221E-4,6.872031372E-4,0.000000000E0,7.243757127E-4
1.645914260E-1,8.399150101E-4,6.872031372E-4,0.000000000E0,1.085221349E-3
1.670172590E-1,2.290677221E-4,7.635590737E-5,-6.108472589E-4,6.568383512E-4
1.694430930E-1,8.399150101E-4,6.872031372E-4,1.221694518E-3,1.634087779E-3
1.718689780E-1,2.290677221E-4,1.298050396E-3,1.221694518E-3,1.797204592E-3
1.742948110E-1,1.450762269E-3,6.872031372E-4,6.108472589E-4,1.717583677E-3
1.767206450E-1,1.450762269E-3,7.635590737E-5,1.221694518E-3,1.898177779E-3
1.791464780E-1,8.399150101E-4,-5.344913807E-4,1.221694518E-3,1.575968196E-3
1.815723110E-1,-3.817795368E-4,-5.344913807E-4,-1.221694518E-3,1.387073951E-3
1.839981970E-1,2.290677221E-4,7.635590737E-5,6.108472589E-4,6.568383512E-4
1.864240300E-1,2.290677221E-4,7.635590737E-5,0.000000000E0,2.414585801E-4
1.888498630E-1,8.399150101E-4,1.298050396E-3,1.832541777E-3,2.397624120E-3
1.912756970E-1,2.290677221E-4,-1.145338640E-3,-6.108472589E-4,1.318107353E-3
1.937015300E-1,1.450762269E-3,-5.344913807E-4,0.000000000E0,1.546089324E-3
1.961274160E-1,1.450762269E-3,1.298050396E-3,1.221694518E-3,2.298300130E-3
1.985532490E-1,2.290677221E-4,6.872031372E-4,-1.221694518E-3,1.420301964E-3
2.009790820E-1,-3.817795368E-4,6.872031372E-4,0.000000000E0,7.861321559E-4
2.034049160E-1,8.399150101E-4,7.635590737E-5,-1.221694518E-3,1.484528526E-3
2.058307490E-1,-3.817795368E-4,7.635590737E-5,0.000000000E0,3.893402616E-4
2.082566340E-1,8.399150101E-4,6.872031372E-4,-1.221694518E-3,1.634087779E-3
2.106824680E-1,-3.817795368E-4,7.635590737E-5,1.221694518E-3,1.282233728E-3
2.131083010E-1,-3.817795368E-4,6.872031372E-4,-6.108472589E-4,9.955592098E-4
2.155341340E-1,2.290677221E-4,7.635590737E-5,1.221694518E-3,1.245327162E-3
2.179600200E-1,2.290677221E-4,6.872031372E-4,6.108472589E-4,9.475518703E-4
2.203858530E-1,-9.926267667E-4,7.635590737E-5,0.000000000E0,9.955592009E-4
2.228116860E-1,-3.817795368E-4,-5.344913807E-4,0.000000000E0,6.568383749E-4
2.252375200E-1,-3.817795368E-4,-5.344913807E-4,0.000000000E0,6.568383749E-4
2.276633530E-1,-9.926267667E-4,6.872031372E-4,1.832541777E-3,2.194485227E-3
2.300892380E-1,8.399150101E-4,-5.344913807E-4,6.108472589E-4,1.168020819E-3
2.325150720E-1,2.290677221E-4,6.872031372E-4,1.221694518E-3,1.420301964E-3
2.349409050E-1,8.399150101E-4,-5.344913807E-4,6.108472589E-4,1.168020819E-3
2.373667380E-1,2.290677221E-4,7.635590737E-5,-6.108472589E-4,6.568383512E-4
2.397926240E-1,-9.926267667E-4,-5.344913807E-4,-1.221694518E-3,1.662385764E-3
2.422184570E-1,-9.926267667E-4,-1.756185899E-3,-6.108472589E-4,2.107755010E-3
2.446442910E-1,-3.817795368E-4,7.635590737E-5,6.108472589E-4,7.243757403E-4
2.470701240E-1,-3.817795368E-4,6.872031372E-4,0.000000000E0,7.861321559E-4
2.494959570E-1,8.399150101E-4,7.635590737E-5,0.000000000E0,8.433785917E-4
2.519218430E-1,8.399150101E-4,-1.145338640E-3,0.000000000E0,1.420302018E-3
2.543476760E-1,2.290677221E-4,-1.145338640E-3,0.000000000E0,1.168020813E-3
2.567735090E-1,1.450762269E-3,6.872031372E-4,1.221694518E-3,2.017299385E-3
2.591993430E-1,2.290677221E-4,6.872031372E-4,1.221694518E-3,1.420301964E-3
2.616252280E-1,2.290677221E-4,-1.145338640E-3,-6.108472589E-4,1.318107353E-3
2.640510610E-1,8.399150101E-4,-1.145338640E-3,0.000000000E0,1.420302018E-3
2.664768950E-1,2.290677221E-4,-1.145338640E-3,-1.221694518E-3,1.690210080E-3
2.689027280E-1,2.290677221E-4,7.635590737E-5,-1.221694518E-3,1.245327162E-3
2.713285610E-1,-3.817795368E-4,7.635590737E-5,-1.221694518E-3,1.282233728E-3
2.737544470E-1,2.290677221E-4,-1.145338640E-3,0.000000000E0,1.168020813E-3
2.761802800E-1,-9.926267667E-4,-1.145338640E-3,6.108472589E-4,1.634087779E-3
2.786061130E-1,-1.603474026E-3,-5.344913807E-4,6.108472589E-4,1.797204596E-3
2.810319470E-1,-3.817795368E-4,7.635590737E-5,6.108472589E-4,7.243757403E-4
2.834578320E-1,8.399150101E-4,6.872031372E-4,0.000000000E0,1.085221349E-3
2.858836660E-1,2.290677221E-4,1.298050396E-3,-6.108472589E-4,1.452770190E-3
2.883094990E-1,2.290677221E-4,6.872031372E-4,-6.108472589E-4,9.475518703E-4
2.907353320E-1,2.290677221E-4,1.298050396E-3,-6.108472589E-4,1.452770190E-3
2.931611660E-1,-3.817795368E-4,-1.145338640E-3,1.221694518E-3,1.717583683E-3
2.955870510E-1,-1.603474026E-3,-5.344913807E-4,-6.108472589E-4,1.797204596E-3
2.980128840E-1,2.290677221E-4,6.872031372E-4,-6.108472589E-4,9.475518703E-4
3.004387180E-1,-9.926267667E-4,7.635590737E-5,6.108472589E-4,1.168020760E-3
3.028645510E-1,8.399150101E-4,7.635590737E-5,-6.108472589E-4,1.041355762E-3
3.052903840E-1,1.450762269E-3,6.872031372E-4,-6.108472589E-4,1.717583677E-3
3.077162700E-1,2.290677221E-4,7.635590737E-5,1.221694518E-3,1.245327162E-3
3.101421030E-1,2.290677221E-4,7.635590737E-5,6.108472589E-4,6.568383512E-4
3.125679360E-1,8.399150101E-4,7.635590737E-5,-1.221694518E-3,1.484528526E-3
3.149937700E-1,8.399150101E-4,6.872031372E-4,0.000000000E0,1.085221349E-3
3.174196550E-1,8.399150101E-4,6.872031372E-4,-6.108472589E-4,1.245327166E-3
3.198454880E-1,-1.603474026E-3,6.872031372E-4,-1.221694518E-3,2.129768672E-3
3.222713220E-1,-3.817795368E-4,1.298050396E-3,-6.108472589E-4,1.484528484E-3
3.246971550E-1,-3.817795368E-4,-5.344913807E-4,6.108472589E-4,8.969788317E-4
3.271230410E-1,-1.603474026E-3,-5.344913807E-4,-6.108472589E-4,1.797204596E-3
3.295488740E-1,2.290677221E-4,7.635590737E-5,-6.108472589E-4,6.568383512E-4
3.319747070E-1,2.290677221E-4,1.298050396E-3,-6.108472589E-4,1.452770190E-3
3.344005410E-1,-9.926267667E-4,1.298050396E-3,6.108472589E-4,1.744527759E-3
3.368263740E-1,-9.926267667E-4,6.872031372E-4,-6.108472589E-4,1.353030090E-3
3.392522590E-1,-3.817795368E-4,6.872031372E-4,-1.221694518E-3,1.452770203E-3
3.416780930E-1,2.290677221E-4,7.635590737E-5,-6.108472589E-4,6.568383512E-4
3.441039260E-1,-3.817795368E-4,7.635590737E-5,1.221694518E-3,1.282233728E-3
3.465297590E-1,-9.926267667E-4,-5.344913807E-4,1.832541777E-3,2.151557180E-3
3.489556450E-1,-3.817795368E-4,-5.344913807E-4,6.108472589E-4,8.969788317E-4
3.513814780E-1,-3.817795368E-4,7.635590737E-5,-6.108472589E-4,7.243757403E-4
3.538073110E-1,2.290677221E-4,-5.344913807E-4,0.000000000E0,5.815092926E-4
3.562331450E-1,2.290677221E-4,-1.145338640E-3,6.108472589E-4,1.318107353E-3
3.586589780E-1,2.290677221E-4,6.872031372E-4,6.108472589E-4,9.475518703E-4
3.610848630E-1,8.399150101E-4,7.635590737E-5,1.221694518E-3,1.484528526E-3
3.635106970E-1,2.290677221E-4,6.872031372E-4,0.000000000E0,7.243757127E-4
3.659365300E-1,-3.817795368E-4,7.635590737E-5,-6.108472589E-4,7.243757403E-4
3.683623630E-1,-9.926267667E-4,-5.344913807E-4,6.108472589E-4,1.282233718E-3
3.707882490E-1,2.290677221E-4,6.872031372E-4,-1.221694518E-3,1.420301964E-3
3.732140820E-1,8.399150101E-4,-5.344913807E-4,1.221694518E-3,1.575968196E-3
3.756399160E-1,-9.926267667E-4,-5.344913807E-4,-6.108472589E-4,1.282233718E-3
3.780657490E-1,8.399150101E-4,-1.145338640E-3,-1.832541777E-3,2.318505378E-3
3.804916340E-1,8.399150101E-4,6.872031372E-4,0.000000000E0,1.085221349E-3
3.829174680E-1,2.290677221E-4,1.908897655E-3,1.221694518E-3,2.277915664E-3
3.853433010E-1,8.399150101E-4,7.635590737E-5,0.000000000E0,8.433785917E-4
3.877691340E-1,-3.817795368E-4,-1.145338640E-3,-6.108472589E-4,1.353030150E-3
3.901950200E-1,2.290677221E-4,6.872031372E-4,6.108472589E-4,9.475518703E-4
3.926208530E-1,2.290677221E-4,-5.344913807E-4,-6.108472589E-4,8.433785811E-4
3.950466860E-1,2.061609412E-3,-1.145338640E-3,-6.108472589E-4,2.436220093E-3
3.974725200E-1,8.399150101E-4,-1.145338640E-3,0.000000000E0,1.420302018E-3
3.998983530E-1,8.399150101E-4,-5.344913807E-4,-6.108472589E-4,1.168020819E-3
4.023242380E-1,2.290677221E-4,-5.344913807E-4,-6.108472589E-4,8.433785811E-4
4.047500720E-1,8.399150101E-4,7.635590737E-5,-1.221694518E-3,1.484528526E-3
4.071759050E-1,8.399150101E-4,7.635590737E-5,0.000000000E0,8.433785917E-4
4.096017380E-1,2.290677221E-4,-1.145338640E-3,0.000000000E0,1.168020813E-3
4.120276240E-1,-9.926267667E-4,1.298050396E-3,6.108472589E-4,1.744527759E-3
4.144534570E-1,-3.817795368E-4,7.635590737E-5,6.108472589E-4,7.243757403E-4
4.168792910E-1,-3.817795368E-4,-1.145338640E-3,6.108472589E-4,1.353030150E-3
4.193051240E-1,-9.926267667E-4,7.635590737E-5,0.000000000E0,9.955592009E-4
4.217310090E-1,-3.817795368E-4,7.635590737E-5,0.000000000E0,3.893402616E-4
4.241568430E-1,-9.926267667E-4,7.635590737E-5,-6.108472589E-4,1.168020760E-3
4.265826760E-1,-3.817795368E-4,-1.145338640E-3,6.108472589E-4,1.353030150E-3
4.290085090E-1,-3.817795368E-4,-1.756185899E-3,-1.221694518E-3,2.173127244E-3
4.314343430E-1,2.290677221E-4,-1.145338640E-3,6.108472589E-4,1.318107353E-3
4.338602280E-1,-3.817795368E-4,-1.145338640E-3,0.000000000E0,1.207292928E-3
4.362860610E-1,2.290677221E-4,-1.756185899E-3,1.221694518E-3,2.151557210E-3
4.387118950E-1,-3.817795368E-4,-5.344913807E-4,1.221694518E-3,1.387073951E-3
4.411377280E-1,-3.817795368E-4,-5.344913807E-4,-6.108472589E-4,8.969788317E-4
4.435636130E-1,2.290677221E-4,-1.145338640E-3,6.108472589E-4,1.318107353E-3
4.459894470E-1,-3.817795368E-4,-5.344913807E-4,6.108472589E-4,8.969788317E-4
4.484152800E-1,-9.926267667E-4,-5.344913807E-4,6.108472589E-4,1.282233718E-3
4.508411130E-1,-3.817795368E-4,-1.145338640E-3,1.221694518E-3,1.717583683E-3
4.532669990E-1,-9.926267667E-4,6.872031372E-4,-6.108472589E-4,1.353030090E-3
4.556928320E-1,-9.926267667E-4,-1.145338640E-3,6.108472589E-4,1.634087779E-3
4.581186660E-1,2.290677221E-4,1.908897655E-3,6.108472589E-4,2.017299346E-3
4.605444990E-1,-9.926267667E-4,-1.756185899E-3,-6.108472589E-4,2.107755010E-3
4.629703320E-1,-3.817795368E-4,-5.344913807E-4,0.000000000E0,6.568383749E-4
4.653962180E-1,2.290677221E-4,1.298050396E-3,1.221694518E-3,1.797204592E-3
4.678220510E-1,2.290677221E-4,6.872031372E-4,-6.108472589E-4,9.475518703E-4
4.702478840E-1,-9.926267667E-4,6.872031372E-4,-1.221694518E-3,1.717583635E-3
4.726737180E-1,-3.817795368E-4,7.635590737E-5,0.000000000E0,3.893402616E-4
4.750996030E-1,8.399150101E-4,6.872031372E-4,6.108472589E-4,1.245327166E-3
4.775254360E-1,2.290677221E-4,-5.344913807E-4,-6.108472589E-4,8.433785811E-4
4.799512700E-1,2.290677221E-4,7.635590737E-5,6.108472589E-4,6.568383512E-4
4.823771030E-1,-3.817795368E-4,7.635590737E-5,0.000000000E0,3.893402616E-4
4.848029880E-1,1.450762269E-3,6.872031372E-4,0.000000000E0,1.605291037E-3
4.872288220E-1,8.399150101E-4,-1.145338640E-3,0.000000000E0,1.420302018E-3
4.896546550E-1,-3.817795368E-4,1.298050396E-3,1.832541777E-3,2.277915672E-3
4.920804880E-1,-3.817795368E-4,7.635590737E-5,6.108472589E-4,7.243757403E-4
4.945063740E-1,2.061609412E-3,7.635590737E-5,1.221694518E-3,2.397624050E-3
4.969322070E-1,1.450762269E-3,7.635590737E-5,6.108472589E-4,1.575968198E-3
4.993580410E-1,8.399150101E-4,-5.344913807E-4,-6.108472589E-4,1.168020819E-3
5.017838740E-1,8.399150101E-4,-5.344913807E-4,-1.221694518E-3,1.575968196E-3
5.042097070E-1,8.399150101E-4,-5.344913807E-4,0.000000000E0,9.955592701E-4
5.066355930E-1,1.450762269E-3,7.635590737E-5,0.000000000E0,1.452770245E-3
5.090614260E-1,8.399150101E-4,-1.145338640E-3,0.000000000E0,1.420302018E-3
5.114872590E-1,2.290677221E-4,-5.344913807E-4,6.108472589E-4,8.433785811E-4
5.139130930E-1,-9.926267667E-4,-5.344913807E-4,-6.108472589E-4,1.282233718E-3
5.163389780E-1,-3.817795368E-4,1.298050396E-3,0.000000000E0,1.353030098E-3
5.187648110E-1,2.290677221E-4,1.298050396E-3,0.000000000E0,1.318107299E-3
5.211906450E-1,2.290677221E-4,7.635590737E-5,-1.221694518E-3,1.245327162E-3
5.236164780E-1,2.290677221E-4,6.872031372E-4,6.108472589E-4,9.475518703E-4
5.260423630E-1,2.290677221E-4,-5.344913807E-4,-1.221694518E-3,1.353030137E-3
5.284681970E-1,-1.603474026E-3,-5.344913807E-4,-6.108472589E-4,1.797204596E-3
5.308940300E-1,8.399150101E-4,1.298050396E-3,0.000000000E0,1.546089278E-3
5.333198630E-1,8.399150101E-4,-5.344913807E-4,-1.832541777E-3,2.085508960E-3
5.357457490E-1,2.290677221E-4,-5.344913807E-4,1.832541777E-3,1.922592630E-3
5.381715820E-1,-3.817795368E-4,6.872031372E-4,1.221694518E-3,1.452770203E-3
5.405974160E-1,-3.817795368E-4,-5.344913807E-4,-6.108472589E-4,8.969788317E-4
5.430232490E-1,2.290677221E-4,-5.344913807E-4,0.000000000E0,5.815092926E-4
5.454490820E-1,2.290677221E-4,1.298050396E-3,0.000000000E0,1.318107299E-3
5.478749680E-1,8.399150101E-4,-5.344913807E-4,0.000000000E0,9.955592701E-4
5.503008010E-1,2.290677221E-4,-5.344913807E-4,6.108472589E-4,8.433785811E-4
5.527266340E-1,-9.926267667E-4,-1.145338640E-3,1.221694518E-3,1.946701311E-3
5.551524680E-1,8.399150101E-4,7.635590737E-5,1.221694518E-3,1.484528526E-3
5.575783530E-1,2.290677221E-4,1.298050396E-3,-6.108472589E-4,1.452770190E-3
5.600041860E-1,-9.926267667E-4,-5.344913807E-4,-6.108472589E-4,1.282233718E-3
5.624300200E-1,-9.926267667E-4,1.298050396E-3,-1.221694518E-3,2.040289250E-3
5.648558530E-1,-9.926267667E-4,7.635590737E-5,0.000000000E0,9.955592009E-4
5.672817380E-1,1.450762269E-3,6.872031372E-4,0.000000000E0,1.605291037E-3
5.697075720E-1,-3.817795368E-4,7.635590737E-5,-6.108472589E-4,7.243757403E-4
5.721334050E-1,-3.817795368E-4,6.872031372E-4,1.832541777E-3,1.994044415E-3
5.745592380E-1,-3.817795368E-4,7.635590737E-5,6.108472589E-4,7.243757403E-4
5.769851240E-1,-3.817795368E-4,6.872031372E-4,-6.108472589E-4,9.955592098E-4
5.794109570E-1,8.399150101E-4,6.872031372E-4,6.108472589E-4,1.245327166E-3
5.818367910E-1,2.290677221E-4,-1.756185899E-3,-1.221694518E-3,2.151557210E-3
5.842626240E-1,8.399150101E-4,-5.344913807E-4,0.000000000E0,9.955592701E-4
5.866885090E-1,-3.817795368E-4,-5.344913807E-4,-1.832541777E-3,1.946701316E-3
5.891143430E-1,8.399150101E-4,6.872031372E-4,0.000000000E0,1.085221349E-3
5.915401760E-1,8.399150101E-4,6.872031372E-4,6.108472589E-4,1.245327166E-3
5.939660090E-1,-3.817795368E-4,-1.145338640E-3,-6.108472589E-4,1.353030150E-3
5.963918950E-1,2.290677221E-4,-5.344913807E-4,0.000000000E0,5.815092926E-4
5.988177280E-1,8.399150101E-4,-5.344913807E-4,-6.108472589E-4,1.168020819E-3
6.012435610E-1,8.399150101E-4,-5.344913807E-4,6.108472589E-4,1.168020819E-3
6.036693950E-1,-9.926267667E-4,-5.344913807E-4,6.108472589E-4,1.282233718E-3
6.060952800E-1,-3.817795368E-4,1.298050396E-3,0.000000000E0,1.353030098E-3
6.085211130E-1,2.290677221E-4,7.635590737E-5,0.000000000E0,2.414585801E-4
6.109469470E-1,-3.817795368E-4,6.872031372E-4,6.108472589E-4,9.955592098E-4
6.133727800E-1,2.290677221E-4,-5.344913807E-4,1.832541777E-3,1.922592630E-3
6.157986660E-1,2.290677221E-4,6.872031372E-4,0.000000000E0,7.243757127E-4
6.182244990E-1,-1.603474026E-3,-5.344913807E-4,6.108472589E-4,1.797204596E-3
6.206503320E-1,-9.926267667E-4,6.872031372E-4,0.000000000E0,1.207292860E-3
6.230761660E-1,-3.817795368E-4,7.635590737E-5,0.000000000E0,3.893402616E-4
6.255020510E-1,-3.817795368E-4,7.635590737E-5,-6.108472589E-4,7.243757403E-4
6.279278840E-1,-9.926267667E-4,-1.145338640E-3,0.000000000E0,1.515621489E-3
6.303537180E-1,-3.817795368E-4,-5.344913807E-4,1.221694518E-3,1.387073951E-3
6.327795510E-1,2.290677221E-4,-5.344913807E-4,6.108472589E-4,8.433785811E-4
6.352054360E-1,-3.817795368E-4,-5.344913807E-4,1.832541777E-3,1.946701316E-3
6.376312700E-1,1.450762269E-3,6.872031372E-4,1.832541777E-3,2.436220162E-3
6.400571030E-1,8.399150101E-4,1.908897655E-3,2.443389036E-3,3.212397463E-3
6.424829360E-1,-3.817795368E-4,6.872031372E-4,0.000000000E0,7.861321559E-4
6.449087700E-1,-9.926267667E-4,6.872031372E-4,0.000000000E0,1.207292860E-3
6.473346550E-1,-9.926267667E-4,7.635590737E-5,0.000000000E0,9.955592009E-4
6.497604880E-1,2.290677221E-4,7.635590737E-5,-1.221694518E-3,1.245327162E-3
6.521863220E-1,2.290677221E-4,7.635590737E-5,0.000000000E0,2.414585801E-4
6.546121550E-1,-3.817795368E-4,6.872031372E-4,-1.221694518E-3,1.452770203E-3
6.570380410E-1,2.290677221E-4,7.635590737E-5,0.000000000E0,2.414585801E-4
6.594638740E-1,2.290677221E-4,6.872031372E-4,6.108472589E-4,9.475518703E-4
6.618897070E-1,2.290677221E-4,-5.344913807E-4,1.221694518E-3,1.353030137E-3
6.643155410E-1,8.399150101E-4,7.635590737E-5,6.108472589E-4,1.041355762E-3
6.667414260E-1,-3.817795368E-4,7.635590737E-5,6.108472589E-4,7.243757403E-4
6.691672590E-1,-9.926267667E-4,-5.344913807E-4,0.000000000E0,1.127381450E-3
6.715930930E-1,-3.817795368E-4,-1.756185899E-3,6.108472589E-4,1.898177784E-3
6.740189260E-1,8.399150101E-4,7.635590737E-5,-1.221694518E-3,1.484528526E-3
6.764448110E-1,8.399150101E-4,-1.145338640E-3,-1.221694518E-3,1.873444773E-3
6.788706450E-1,8.399150101E-4,-5.344913807E-4,-6.108472589E-4,1.168020819E-3
6.812964780E-1,1.450762269E-3,7.635590737E-5,-1.221694518E-3,1.898177779E-3
6.837223110E-1,-3.817795368E-4,-1.145338640E-3,1.221694518E-3,1.717583683E-3
6.861481970E-1,8.399150101E-4,-1.145338640E-3,-6.108472589E-4,1.546089324E-3
6.885740300E-1,-3.817795368E-4,1.908897655E-3,-6.108472589E-4,2.040289255E-3
6.909998630E-1,-3.817795368E-4,7.635590737E-5,-6.108472589E-4,7.243757403E-4
6.934256970E-1,2.290677221E-4,-5.344913807E-4,-6.108472589E-4,8.433785811E-4
6.958515820E-1,-9.926267667E-4,6.872031372E-4,-6.108472589E-4,1.353030090E-3
6.982774160E-1,2.290677221E-4,6.872031372E-4,-1.221694518E-3,1.420301964E-3
7.007032490E-1,2.290677221E-4,1.298050396E-3,0.000000000E0,1.318107299E-3
7.031290820E-1,-3.817795368E-4,1.298050396E-3,-1.832541777E-3,2.277915672E-3
7.055549680E-1,-3.817795368E-4,-5.344913807E-4,0.000000000E0,6.568383749E-4
7.079808010E-1,-1.603474026E-3,7.635590737E-5,0.000000000E0,1.605290994E-3
7.104066340E-1,8.399150101E-4,7.635590737E-5,1.221694518E-3,1.484528526E-3
7.128324680E-1,8.399150101E-4,6.872031372E-4,6.108472589E-4,1.245327166E-3
7.152583530E-1,-3.817795368E-4,6.872031372E-4,6.108472589E-4,9.955592098E-4
7.176841860E-1,-1.603474026E-3,-1.145338640E-3,1.221694518E-3,2.318505347E-3
7.201100200E-1,-3.817795368E-4,7.635590737E-5,6.108472589E-4,7.243757403E-4
7.225358530E-1,2.290677221E-4,6.872031372E-4,0.000000000E0,7.243757127E-4
7.249617380E-1,-3.817795368E-4,6.872031372E-4,1.221694518E-3,1.452770203E-3
7.273875720E-1,-1.603474026E-3,7.635590737E-5,6.108472589E-4,1.717583637E-3
7.298134050E-1,2.290677221E-4,-1.145338640E-3,0.000000000E0,1.168020813E-3
7.322392910E-1,2.290677221E-4,1.298050396E-3,-6.108472589E-4,1.452770190E-3
7.346651240E-1,8.399150101E-4,1.298050396E-3,6.108472589E-4,1.662385764E-3
7.370909570E-1,-3.817795368E-4,1.298050396E-3,1.221694518E-3,1.822972282E-3
7.395167910E-1,8.399150101E-4,-1.756185899E-3,-1.832541777E-3,2.673547362E-3
7.419426240E-1,1.450762269E-3,7.635590737E-5,6.108472589E-4,1.575968198E-3
7.443685090E-1,2.290677221E-4,-5.344913807E-4,0.000000000E0,5.815092926E-4
7.467943430E-1,8.399150101E-4,6.872031372E-4,-6.108472589E-4,1.245327166E-3
7.492201760E-1,-9.926267667E-4,-1.145338640E-3,0.000000000E0,1.515621489E-3
7.516460610E-1,-9.926267667E-4,-1.145338640E-3,6.108472589E-4,1.634087779E-3
7.540718950E-1,2.290677221E-4,-5.344913807E-4,6.108472589E-4,8.433785811E-4
7.564977280E-1,2.290677221E-4,7.635590737E-5,-6.108472589E-4,6.568383512E-4
7.589235610E-1,8.399150101E-4,7.635590737E-5,1.832541777E-3,2.017299386E-3
7.613493950E-1,-3.817795368E-4,7.635590737E-5,1.221694518E-3,1.282233728E-3
7.637752800E-1,-3.817795368E-4,6.872031372E-4,-6.108472589E-4,9.955592098E-4
7.662011130E-1,-1.603474026E-3,-5.344913807E-4,6.108472589E-4,1.797204596E-3
7.686269470E-1,-3.817795368E-4,7.635590737E-5,-1.221694518E-3,1.282233728E-3
7.710527800E-1,-3.817795368E-4,7.635590737E-5,-1.832541777E-3,1.873444742E-3
7.734786660E-1,-3.817795368E-4,-5.344913807E-4,0.000000000E0,6.568383749E-4
7.759044990E-1,2.290677221E-4,-1.145338640E-3,-6.108472589E-4,1.318107353E-3
7.783303320E-1,2.290677221E-4,-5.344913807E-4,-1.221694518E-3,1.353030137E-3
7.807562180E-1,2.290677221E-4,-1.145338640E-3,0.000000000E0,1.168020813E-3
7.831820510E-1,2.290677221E-4,6.872031372E-4,1.221694518E-3,1.420301964E-3
7.856078840E-1,-3.817795368E-4,-5.344913807E-4,0.000000000E0,6.568383749E-4
7.880337180E-1,1.450762269E-3,-1.145338640E-3,-1.221694518E-3,2.215637438E-3
7.904596030E-1,2.290677221E-4,-1.756185899E-3,6.108472589E-4,1.873444770E-3
7.928854360E-1,1.450762269E-3,1.298050396E-3,6.108472589E-4,2.040289285E-3
7.953112700E-1,-9.926267667E-4,-1.756185899E-3,0.000000000E0,2.017299385E-3
7.977371030E-1,-3.817795368E-4,-1.145338640E-3,6.108472589E-4,1.353030150E-3
8.001629360E-1,8.399150101E-4,-5.344913807E-4,6.108472589E-4,1.168020819E-3
8.025888220E-1,8.399150101E-4,-1.145338640E-3,-6.108472589E-4,1.546089324E-3
8.050146550E-1,2.290677221E-4,6.872031372E-4,-6.108472589E-4,9.475518703E-4
8.074404880E-1,8.399150101E-4,1.908897655E-3,6.108472589E-4,2.173127206E-3
8.098663740E-1,8.399150101E-4,1.908897655E-3,-6.108472589E-4,2.173127206E-3
8.122922070E-1,-3.817795368E-4,1.298050396E-3,-6.108472589E-4,1.484528484E-3
8.147180410E-1,8.399150101E-4,6.872031372E-4,1.221694518E-3,1.634087779E-3
8.171438740E-1,2.290677221E-4,6.872031372E-4,1.221694518E-3,1.420301964E-3
8.195697070E-1,-3.817795368E-4,-5.344913807E-4,1.221694518E-3,1.387073951E-3
8.219955930E-1,2.290677221E-4,7.635590737E-5,0.000000000E0,2.414585801E-4
8.244214260E-1,8.399150101E-4,-5.344913807E-4,1.221694518E-3,1.575968196E-3
8.268472590E-1,1.450762269E-3,-5.344913807E-4,-1.221694518E-3,1.970515083E-3
8.292731450E-1,2.061609412E-3,-1.145338640E-3,6.108472589E-4,2.436220093E-3
8.316989780E-1,1.450762269E-3,-5.344913807E-4,6.108472589E-4,1.662385807E-3
8.341248110E-1,8.399150101E-4,-5.344913807E-4,-6.108472589E-4,1.168020819E-3
8.365506450E-1,-9.926267667E-4,7.635590737E-5,-6.108472589E-4,1.168020760E-3
8.389764780E-1,-3.817795368E-4,7.635590737E-5,-6.108472589E-4,7.243757403E-4
8.414023630E-1,2.290677221E-4,-5.344913807E-4,1.221694518E-3,1.353030137E-3
8.438281970E-1,8.399150101E-4,-1.145338640E-3,6.108472589E-4,1.546089324E-3
8.462540300E-1,-9.926267667E-4,6.872031372E-4,0.000000000E0,1.207292860E-3
8.486798630E-1,-3.817795368E-4,1.298050396E-3,0.000000000E0,1.353030098E-3
8.511057490E-1,-9.926267667E-4,6.872031372E-4,1.221694518E-3,1.717583635E-3
8.535315820E-1,8.399150101E-4,1.298050396E-3,-6.108472589E-4,1.662385764E-3
8.559574160E-1,-3.817795368E-4,-5.344913807E-4,0.000000000E0,6.568383749E-4
8.583833010E-1,-3.817795368E-4,7.635590737E-5,6.108472589E-4,7.243757403E-4
8.608091340E-1,-3.817795368E-4,6.872031372E-4,1.832541777E-3,1.994044415E-3
8.632349680E-1,-3.817795368E-4,-5.344913807E-4,0.000000000E0,6.568383749E-4
8.656608010E-1,-3.817795368E-4,7.635590737E-5,-6.108472589E-4,7.243757403E-4
8.680866860E-1,-3.817795368E-4,-5.344913807E-4,0.000000000E0,6.568383749E-4
8.705125200E-1,2.290677221E-4,7.635590737E-5,0.000000000E0,2.414585801E-4
8.729383530E-1,-3.817795368E-4,-5.344913807E-4,1.221694518E-3,1.387073951E-3
8.753641860E-1,2.290677221E-4,1.298050396E-3,6.108472589E-4,1.452770190E-3
8.777900720E-1,1.450762269E-3,-5.344913807E-4,6.108472589E-4,1.662385807E-3
8.802159050E-1,8.399150101E-4,6.872031372E-4,-1.221694518E-3,1.634087779E-3
8.826417380E-1,2.290677221E-4,-5.344913807E-4,-6.108472589E-4,8.433785811E-4
8.850676240E-1,2.290677221E-4,-1.145338640E-3,6.108472589E-4,1.318107353E-3
8.874934570E-1,-9.926267667E-4,7.635590737E-5,1.221694518E-3,1.575968152E-3
8.899192910E-1,-3.817795368E-4,7.635590737E-5,1.221694518E-3,1.282233728E-3
8.923451240E-1,-3.817795368E-4,7.635590737E-5,0.000000000E0,3.893402616E-4
8.947709570E-1,-9.926267667E-4,-1.145338640E-3,-6.108472589E-4,1.634087779E-3
8.971968430E-1,2.290677221E-4,7.635590737E-5,0.000000000E0,2.414585801E-4
8.996226760E-1,-3.817795368E-4,7.635590737E-5,-6.108472589E-4,7.243757403E-4
9.020485090E-1,2.290677221E-4,-5.344913807E-4,1.221694518E-3,1.353030137E-3
9.044743950E-1,2.290677221E-4,1.298050396E-3,0.000000000E0,1.318107299E-3
9.069002280E-1,2.290677221E-4,1.908897655E-3,6.108472589E-4,2.017299346E-3
9.093260610E-1,8.399150101E-4,-5.344913807E-4,1.221694518E-3,1.575968196E-3
9.117518950E-1,-3.817795368E-4,7.635590737E-5,0.000000000E0,3.893402616E-4
9.141777800E-1,2.290677221E-4,-5.344913807E-4,1.221694518E-3,1.353030137E-3
9.166036130E-1,-3.817795368E-4,-5.344913807E-4,6.108472589E-4,8.969788317E-4
9.190294470E-1,8.399150101E-4,1.298050396E-3,6.108472589E-4,1.662385764E-3
9.214552800E-1,-3.817795368E-4,7.635590737E-5,1.832541777E-3,1.873444742E-3
9.238811660E-1,-3.817795368E-4,-1.145338640E-3,0.000000000E0,1.207292928E-3
9.263069990E-1,2.290677221E-4,-5.344913807E-4,1.221694518E-3,1.353030137E-3
9.287328320E-1,8.399150101E-4,6.872031372E-4,-1.221694518E-3,1.634087779E-3
9.311586660E-1,1.450762269E-3,1.298050396E-3,-6.108472589E-4,2.040289285E-3
9.335845510E-1,2.290677221E-4,6.872031372E-4,-1.221694518E-3,1.420301964E-3
9.360103840E-1,2.290677221E-4,7.635590737E-5,1.221694518E-3,1.245327162E-3
9.384362180E-1,2.290677221E-4,-5.344913807E-4,-6.108472589E-4,8.433785811E-4
9.408620510E-1,8.399150101E-4,-5.344913807E-4,0.000000000E0,9.955592701E-4
9.432879360E-1,-3.817795368E-4,7.635590737E-5,-6.108472589E-4,7.243757403E-4
9.457137700E-1,-3.817795368E-4,-1.145338640E-3,0.000000000E0,1.207292928E-3
9.481396030E-1,-9.926267667E-4,1.298050396E-3,6.108472589E-4,1.744527759E-3
9.505654360E-1,-3.817795368E-4,1.298050396E-3,-6.108472589E-4,1.484528484E-3
9.529913220E-1,1.450762269E-3,7.635590737E-5,0.000000000E0,1.452770245E-3
9.554171550E-1,2.672456671E-3,7.635590737E-5,-6.108472589E-4,2.742442206E-3
9.578429880E-1,8.399150101E-4,-1.145338640E-3,0.000000000E0,1.420302018E-3
9.602688220E-1,-9.926267667E-4,7.635590737E-5,0.000000000E0,9.955592009E-4
9.626947070E-1,-9.926267667E-4,-1.145338640E-3,6.108472589E-4,1.634087779E-3
9.651205410E-1,-3.817795368E-4,-5.344913807E-4,0.000000000E0,6.568383749E-4
9.675463740E-1,-3.817795368E-4,1.298050396E-3,-1.221694518E-3,1.822972282E-3
9.699722590E-1,2.290677221E-4,6.872031372E-4,-1.221694518E-3,1.420301964E-3
9.723980930E-1,2.290677221E-4,-5.344913807E-4,-1.221694518E-3,1.353030137E-3
9.748239260E-1,1.450762269E-3,1.908897655E-3,6.108472589E-4,2.474214177E-3
9.772497590E-1,8.399150101E-4,7.635590737E-5,-1.221694518E-3,1.484528526E-3
9.796756450E-1,-3.817795368E-4,6.872031372E-4,1.221694518E-3,1.452770203E-3
9.821014780E-1,-1.603474026E-3,6.872031372E-4,0.000000000E0,1.744527759E-3
9.845273110E-1,-9.926267667E-4,-5.344913807E-4,-6.108472589E-4,1.282233718E-3
9.869531450E-1,-3.817795368E-4,7.635590737E-5,6.108472589E-4,7.243757403E-4
9.893790300E-1,8.399150101E-4,7.635590737E-5,0.000000000E0,8.433785917E-4
9.918048630E-1,-3.817795368E-4,7.635590737E-5,6.108472589E-4,7.243757403E-4
9.942306970E-1,2.290677221E-4,-5.344913807E-4,-6.108472589E-4,8.433785811E-4
9.966565300E-1,-9.926267667E-4,7.635590737E-5,6.108472589E-4,1.168020760E-3
9.990824160E-1,-3.817795368E-4,-1.145338640E-3,1.221694518E-3,1.717583683E-3
1.001508249E0,8.399150101E-4,-1.145338640E-3,1.221694518E-3,1.873444773E-3
1.003934082E0,1.450762269E-3,-5.344913807E-4,0.000000000E0,1.546089324E-3
1.006359916E0,2.290677221E-4,-5.344913807E-4,0.000000000E0,5.815092926E-4
1.008785801E0,-3.817795368E-4,-1.145338640E-3,0.000000000E0,1.207292928E-3
1.011211634E0,2.290677221E-4,-5.344913807E-4,-6.108472589E-4,8.433785811E-4
1.013637468E0,2.290677221E-4,-1.756185899E-3,6.108472589E-4,1.873444770E-3
1.016063301E0,-3.817795368E-4,-1.145338640E-3,-6.108472589E-4,1.353030150E-3
1.018489186E0,8.399150101E-4,1.298050396E-3,6.108472589E-4,1.662385764E-3
1.020915020E0,-3.817795368E-4,6.872031372E-4,-6.108472589E-4,9.955592098E-4
1.023340853E0,2.290677221E-4,7.635590737E-5,1.221694518E-3,1.245327162E-3
1.025766738E0,8.399150101E-4,6.872031372E-4,1.832541777E-3,2.129768706E-3
1.028192572E0,2.290677221E-4,7.635590737E-5,1.221694518E-3,1.245327162E-3
1.030618405E0,-3.817795368E-4,7.635590737E-5,0.000000000E0,3.893402616E-4
1.033044238E0,8.399150101E-4,7.635590737E-5,1.221694518E-3,1.484528526E-3
1.035470124E0,-3.817795368E-4,-5.344913807E-4,0.000000000E0,6.568383749E-4
1.037895957E0,2.290677221E-4,6.872031372E-4,6.108472589E-4,9.475518703E-4
1.040321791E0,-3.817795368E-4,-5.344913807E-4,0.000000000E0,6.568383749E-4
1.042747624E0,2.290677221E-4,6.872031372E-4,-6.108472589E-4,9.475518703E-4
1.045173509E0,-3.817795368E-4,7.635590737E-5,-6.108472589E-4,7.243757403E-4
1.047599343E0,-3.817795368E-4,-1.145338640E-3,6.108472589E-4,1.353030150E-3
1.050025176E0,1.450762269E-3,-5.344913807E-4,0.000000000E0,1.546089324E-3
1.052451009E0,-9.926267667E-4,6.872031372E-4,0.000000000E0,1.207292860E-3
1.054876895E0,2.290677221E-4,6.872031372E-4,-6.108472589E-4,9.475518703E-4
1.057302728E0,-9.926267667E-4,-5.344913807E-4,1.221694518E-3,1.662385764E-3
1.059728561E0,2.290677221E-4,6.872031372E-4,1.221694518E-3,1.420301964E-3
1.062154395E0,8.399150101E-4,-5.344913807E-4,6.108472589E-4,1.168020819E-3
1.064580280E0,8.399150101E-4,6.872031372E-4,0.000000000E0,1.085221349E-3
1.067006113E0,-9.926267667E-4,6.872031372E-4,-1.221694518E-3,1.717583635E-3
1.069431947E0,8.399150101E-4,7.635590737E-5,0.000000000E0,8.433785917E-4
1.071857832E0,2.290677221E-4,7.635590737E-5,6.108472589E-4,6.568383512E-4
1.074283666E0,-9.926267667E-4,6.872031372E-4,-6.108472589E-4,1.353030090E-3
1.076709499E0,2.290677221E-4,-1.145338640E-3,6.108472589E-4,1.318107353E-3
1.079135332E0,-3.817795368E-4,-5.344913807E-4,6.108472589E-4,8.969788317E-4
1.081561218E0,-3.817795368E-4,7.635590737E-5,-1.221694518E-3,1.282233728E-3
1.083987051E0,2.290677221E-4,1.298050396E-3,0.000000000E0,1.318107299E-3
1.086412884E0,2.290677221E-4,7.635590737E-5,0.000000000E0,2.414585801E-4
1.088838718E0,-3.817795368E-4,7.635590737E-5,-6.108472589E-4,7.243757403E-4
1.091264603E0,-9.926267667E-4,-5.344913807E-4,6.108472589E-4,1.282233718E-3
1.093690436E0,8.399150101E-4,-1.145338640E-3,1.221694518E-3,1.873444773E-3
1.096116270E0,8.399150101E-4,-1.145338640E-3,6.108472589E-4,1.546089324E-3
1.098542103E0,1.450762269E-3,-5.344913807E-4,6.108472589E-4,1.662385807E-3
1.100967988E0,-3.817795368E-4,-5.344913807E-4,-6.108472589E-4,8.969788317E-4
1.103393822E0,1.450762269E-3,7.635590737E-5,6.108472589E-4,1.575968198E-3
1.105819655E0,-3.817795368E-4,7.635590737E-5,6.108472589E-4,7.243757403E-4
1.108245541E0,-3.817795368E-4,-1.145338640E-3,1.221694518E-3,1.717583683E-3
1.110671374E0,8.399150101E-4,1.298050396E-3,6.108472589E-4,1.662385764E-3
1.113097207E0,2.290677221E-4,-1.145338640E-3,-6.108472589E-4,1.318107353E-3
1.115523041E0,8.399150101E-4,7.635590737E-5,0.000000000E0,8.433785917E-4
1.117948926E0,-9.926267667E-4,-1.145338640E-3,1.221694518E-3,1.946701311E-3
1.120374759E0,-9.926267667E-4,7.635590737E-5,1.832541777E-3,2.085508927E-3
1.122800593E0,-3.817795368E-4,6.872031372E-4,0.000000000E0,7.861321559E-4
1.125226426E0,8.399150101E-4,-5.344913807E-4,-6.108472589E-4,1.168020819E-3
1.127652311E0,1.450762269E-3,7.635590737E-5,0.000000000E0,1.452770245E-3
1.130078145E0,2.290677221E-4,-5.344913807E-4,-6.108472589E-4,8.433785811E-4
1.132503978E0,8.399150101E-4,7.635590737E-5,0.000000000E0,8.433785917E-4
1.134929811E0,1.450762269E-3,-1.145338640E-3,0.000000000E0,1.848380848E-3
1.137355697E0,-9.926267667E-4,7.635590737E-5,-1.832541777E-3,2.085508927E-3
1.139781530E0,1.450762269E-3,6.872031372E-4,-6.108472589E-4,1.717583677E-3
1.142207363E0,8.399150101E-4,1.298050396E-3,0.000000000E0,1.546089278E-3
1.144633249E0,2.290677221E-4,6.872031372E-4,-6.108472589E-4,9.475518703E-4
1.147059082E0,-3.817795368E-4,6.872031372E-4,1.221694518E-3,1.452770203E-3
1.149484916E0,-9.926267667E-4,7.635590737E-5,1.221694518E-3,1.575968152E-3
1.151910749E0,2.290677221E-4,6.872031372E-4,6.108472589E-4,9.475518703E-4
1.154336634E0,-3.817795368E-4,-5.344913807E-4,1.221694518E-3,1.387073951E-3
1.156762468E0,8.399150101E-4,-5.344913807E-4,1.221694518E-3,1.575968196E-3
1.159188301E0,-9.926267667E-4,-5.344913807E-4,0.000000000E0,1.127381450E-3
1.161614134E0,1.450762269E-3,-1.145338640E-3,0.000000000E0,1.848380848E-3
1.164040020E0,-3.817795368E-4,-1.145338640E-3,6.108472589E-4,1.353030150E-3
1.166465853E0,8.399150101E-4,7.635590737E-5,6.108472589E-4,1.041355762E-3
1.168891686E0,8.399150101E-4,-5.344913807E-4,6.108472589E-4,1.168020819E-3
1.171317520E0,2.290677221E-4,-5.344913807E-4,6.108472589E-4,8.433785811E-4
1.173743405E0,2.290677221E-4,7.635590737E-5,6.108472589E-4,6.568383512E-4
1.176169238E0,-9.926267667E-4,-5.344913807E-4,2.443389036E-3,2.690936438E-3
1.178595072E0,2.290677221E-4,-5.344913807E-4,1.221694518E-3,1.353030137E-3
1.181020905E0,2.290677221E-4,7.635590737E-5,0.000000000E0,2.414585801E-4
1.183446791E0,2.290677221E-4,6.872031372E-4,0.000000000E0,7.243757127E-4
1.185872624E0,8.399150101E-4,6.872031372E-4,-6.108472589E-4,1.245327166E-3
1.188298457E0,2.290677221E-4,-5.344913807E-4,6.108472589E-4,8.433785811E-4
1.190724343E0,-1.603474026E-3,6.872031372E-4,6.108472589E-4,1.848380771E-3
1.193150176E0,-3.817795368E-4,7.635590737E-5,1.221694518E-3,1.282233728E-3
1.195576009E0,-9.926267667E-4,7.635590737E-5,-6.108472589E-4,1.168020760E-3
1.198001843E0,2.290677221E-4,6.872031372E-4,6.108472589E-4,9.475518703E-4
1.200427728E0,2.290677221E-4,1.298050396E-3,0.000000000E0,1.318107299E-3
1.202853561E0,8.399150101E-4,-5.344913807E-4,0.000000000E0,9.955592701E-4
1.205279395E0,2.290677221E-4,7.635590737E-5,-1.221694518E-3,1.245327162E-3
1.207705280E0,-3.817795368E-4,7.635590737E-5,-1.221694518E-3,1.282233728E-3
1.210131113E0,1.450762269E-3,7.635590737E-5,0.000000000E0,1.452770245E-3
1.212556947E0,8.399150101E-4,6.872031372E-4,1.221694518E-3,1.634087779E-3
1.214982780E0,2.290677221E-4,-5.344913807E-4,1.832541777E-3,1.922592630E-3
1.217408613E0,2.290677221E-4,6.872031372E-4,2.443389036E-3,2.548503512E-3
1.219834499E0,-9.926267667E-4,-5.344913807E-4,0.000000000E0,1.127381450E-3
1.222260332E0,-9.926267667E-4,-5.344913807E-4,-1.221694518E-3,1.662385764E-3
1.224686166E0,2.290677221E-4,7.635590737E-5,6.108472589E-4,6.568383512E-4
1.227111999E0,2.290677221E-4,-5.344913807E-4,1.221694518E-3,1.353030137E-3
1.229537884E0,-3.817795368E-4,-1.145338640E-3,4.275931045E-3,4.443100552E-3
1.231963718E0,-3.817795368E-4,-1.145338640E-3,6.108472589E-4,1.353030150E-3
1.234389551E0,-9.926267667E-4,7.635590737E-5,6.108472589E-4,1.168020760E-3
1.236815436E0,-1.603474026E-3,-5.344913807E-4,-6.108472589E-4,1.797204596E-3
1.239241270E0,-9.926267667E-4,7.635590737E-5,0.000000000E0,9.955592009E-4
1.241667103E0,2.290677221E-4,6.872031372E-4,6.108472589E-4,9.475518703E-4
1.244092936E0,1.450762269E-3,6.872031372E-4,-6.108472589E-4,1.717583677E-3
1.246518822E0,2.290677221E-4,-5.344913807E-4,6.108472589E-4,8.433785811E-4
1.248944655E0,-3.817795368E-4,-2.367033157E-3,0.000000000E0,2.397624154E-3
1.251370488E0,8.399150101E-4,-1.145338640E-3,6.108472589E-4,1.546089324E-3
1.253796374E0,8.399150101E-4,-5.344913807E-4,1.221694518E-3,1.575968196E-3
1.256222207E0,2.290677221E-4,6.872031372E-4,0.000000000E0,7.243757127E-4
1.258648041E0,2.290677221E-4,-5.344913807E-4,6.108472589E-4,8.433785811E-4
1.261073874E0,8.399150101E-4,-5.344913807E-4,0.000000000E0,9.955592701E-4
1.263499759E0,-9.926267667E-4,7.635590737E-5,6.108472589E-4,1.168020760E-3
1.265925593E0,2.290677221E-4,6.872031372E-4,-6.108472589E-4,9.475518703E-4
1.268351426E0,-3.817795368E-4,7.635590737E-5,1.221694518E-3,1.282233728E-3
1.270777259E0,-1.603474026E-3,-5.344913807E-4,1.221694518E-3,2.085508926E-3
1.273203145E0,-9.926267667E-4,7.635590737E-5,0.000000000E0,9.955592009E-4
1.275628978E0,2.290677221E-4,7.635590737E-5,-1.221694518E-3,1.245327162E-3
1.278054811E0,2.290677221E-4,-5.344913807E-4,6.108472589E-4,8.433785811E-4
1.280480645E0,2.290677221E-4,7.635590737E-5,6.108472589E-4,6.568383512E-4
1.282906530E0,-3.817795368E-4,7.635590737E-5,6.108472589E-4,7.243757403E-4
1.285332363E0,-9.926267667E-4,-1.145338640E-3,-1.832541777E-3,2.378091222E-3
1.287758197E0,-3.817795368E-4,7.635590737E-5,6.108472589E-4,7.243757403E-4
1.290184082E0,8.399150101E-4,6.872031372E-4,6.108472589E-4,1.245327166E-3
1.292609916E0,8.399150101E-4,-5.344913807E-4,0.000000000E0,9.955592701E-4
1.295035749E0,-9.926267667E-4,7.635590737E-5,6.108472589E-4,1.168020760E-3
1.297461582E0,-3.817795368E-4,7.635590737E-5,6.108472589E-4,7.243757403E-4
1.299887468E0,-3.817795368E-4,-5.344913807E-4,1.221694518E-3,1.387073951E-3
1.302313301E0,-9.926267667E-4,-1.145338640E-3,6.108472589E-4,1.634087779E-3
1.304739134E0,1.450762269E-3,7.635590737E-5,-6.108472589E-4,1.575968198E-3
1.307165020E0,-3.817795368E-4,6.872031372E-4,0.000000000E0,7.861321559E-4
1.309590853E0,-3.817795368E-4,6.872031372E-4,6.108472589E-4,9.955592098E-4
1.312016686E0,2.290677221E-4,-1.145338640E-3,1.832541777E-3,2.173127236E-3
1.314442520E0,-1.603474026E-3,-1.145338640E-3,-1.221694518E-3,2.318505347E-3
1.316868405E0,8.399150101E-4,6.872031372E-4,6.108472589E-4,1.245327166E-3
1.319294238E0,2.290677221E-4,7.635590737E-5,6.108472589E-4,6.568383512E-4
1.321720072E0,2.290677221E-4,7.635590737E-5,0.000000000E0,2.414585801E-4
1.324145905E0,8.399150101E-4,1.298050396E-3,6.108472589E-4,1.662385764E-3
1.326571791E0,8.399150101E-4,1.298050396E-3,1.221694518E-3,1.970515047E-3
1.328997624E0,-3.817795368E-4,7.635590737E-5,-6.108472589E-4,7.243757403E-4
1.331423457E0,-3.817795368E-4,1.298050396E-3,0.000000000E0,1.353030098E-3
1.333849291E0,-9.926267667E-4,7.635590737E-5,6.108472589E-4,1.168020760E-3
1.336275176E0,2.290677221E-4,7.635590737E-5,-6.108472589E-4,6.568383512E-4
1.338701009E0,8.399150101E-4,6.872031372E-4,-6.108472589E-4,1.245327166E-3
1.341126843E0,2.290677221E-4,7.635590737E-5,0.000000000E0,2.414585801E-4
1.343552728E0,2.290677221E-4,6.872031372E-4,1.832541777E-3,1.970515044E-3
1.345978561E0,8.399150101E-4,1.298050396E-3,1.221694518E-3,1.970515047E-3
1.348404395E0,-3.817795368E-4,6.872031372E-4,6.108472589E-4,9.955592098E-4
1.350830228E0,8.399150101E-4,-1.145338640E-3,6.108472589E-4,1.546089324E-3
1.353256113E0,-3.817795368E-4,7.635590737E-5,1.221694518E-3,1.282233728E-3
1.355681947E0,-3.817795368E-4,6.872031372E-4,-1.221694518E-3,1.452770203E-3
1.358107780E0,1.450762269E-3,7.635590737E-5,1.221694518E-3,1.898177779E-3
1.360533613E0,1.450762269E-3,-5.344913807E-4,1.221694518E-3,1.970515083E-3
1.362959499E0,-9.926267667E-4,6.872031372E-4,6.108472589E-4,1.353030090E-3
1.365385332E0,-1.603474026E-3,7.635590737E-5,6.108472589E-4,1.717583637E-3
1.367811166E0,-3.817795368E-4,7.635590737E-5,0.000000000E0,3.893402616E-4
1.370237051E0,2.290677221E-4,-5.344913807E-4,6.108472589E-4,8.433785811E-4
1.372662884E0,2.290677221E-4,6.872031372E-4,-6.108472589E-4,9.475518703E-4
1.375088718E0,2.290677221E-4,6.872031372E-4,-1.221694518E-3,1.420301964E-3
1.377514551E0,1.450762269E-3,-1.756185899E-3,-6.108472589E-4,2.358396584E-3
1.379940436E0,-9.926267667E-4,-5.344913807E-4,0.000000000E0,1.127381450E-3
1.382366270E0,2.290677221E-4,7.635590737E-5,-6.108472589E-4,6.568383512E-4
1.384792103E0,-3.817795368E-4,-5.344913807E-4,1.221694518E-3,1.387073951E-3
1.387217936E0,-9.926267667E-4,-5.344913807E-4,-6.108472589E-4,1.282233718E-3
1.389643822E0,8.399150101E-4,7.635590737E-5,-6.108472589E-4,1.041355762E-3
1.392069655E0,8.399150101E-4,6.872031372E-4,1.832541777E-3,2.129768706E-3
1.394495488E0,-3.817795368E-4,6.872031372E-4,0.000000000E0,7.861321559E-4
1.396921322E0,-3.817795368E-4,-5.344913807E-4,1.221694518E-3,1.387073951E-3
1.399347207E0,-3.817795368E-4,-5.344913807E-4,6.108472589E-4,8.969788317E-4
1.401773041E0,2.290677221E-4,-5.344913807E-4,1.221694518E-3,1.353030137E-3
1.404198874E0,8.399150101E-4,-1.145338640E-3,1.221694518E-3,1.873444773E-3
1.406624759E0,-3.817795368E-4,-5.344913807E-4,-6.108472589E-4,8.969788317E-4
1.409050593E0,2.290677221E-4,-1.756185899E-3,0.000000000E0,1.771062091E-3
1.411476426E0,-3.817795368E-4,-5.344913807E-4,0.000000000E0,6.568383749E-4
1.413902311E0,1.450762269E-3,7.635590737E-5,6.108472589E-4,1.575968198E-3
1.416328145E0,8.399150101E-4,6.872031372E-4,0.000000000E0,1.085221349E-3
1.418753978E0,8.399150101E-4,-1.145338640E-3,-1.221694518E-3,1.873444773E-3
1.421179811E0,1.450762269E-3,7.635590737E-5,-6.108472589E-4,1.575968198E-3
1.423605697E0,-1.603474026E-3,7.635590737E-5,6.108472589E-4,1.717583637E-3
1.426031530E0,1.450762269E-3,7.635590737E-5,0.000000000E0,1.452770245E-3
1.428457363E0,-3.817795368E-4,1.908897655E-3,6.108472589E-4,2.040289255E-3
1.430883197E0,2.290677221E-4,7.635590737E-5,1.221694518E-3,1.245327162E-3
1.433309082E0,2.290677221E-4,6.872031372E-4,0.000000000E0,7.243757127E-4
1.435734916E0,1.450762269E-3,-1.145338640E-3,6.108472589E-4,1.946701347E-3
1.438160749E0,2.290677221E-4,-5.344913807E-4,-6.108472589E-4,8.433785811E-4
1.440586582E0,-3.817795368E-4,-5.344913807E-4,1.221694518E-3,1.387073951E-3
1.443012468E0,8.399150101E-4,-5.344913807E-4,0.000000000E0,9.955592701E-4
1.445438301E0,8.399150101E-4,-5.344913807E-4,6.108472589E-4,1.168020819E-3
1.447864134E0,-3.817795368E-4,7.635590737E-5,1.221694518E-3,1.282233728E-3
1.450289968E0,-9.926267667E-4,1.298050396E-3,1.221694518E-3,2.040289250E-3
1.452715853E0,-3.817795368E-4,7.635590737E-5,6.108472589E-4,7.243757403E-4
1.455141686E0,-9.926267667E-4,6.872031372E-4,-1.221694518E-3,1.717583635E-3
1.457567520E0,-3.817795368E-4,6.872031372E-4,6.108472589E-4,9.955592098E-4
1.459993405E0,-3.817795368E-4,6.872031372E-4,-1.221694518E-3,1.452770203E-3
1.462419238E0,2.290677221E-4,7.635590737E-5,1.832541777E-3,1.848380808E-3
1.464845072E0,-3.817795368E-4,-5.344913807E-4,1.221694518E-3,1.387073951E-3
1.467270905E0,8.399150101E-4,-5.344913807E-4,-6.108472589E-4,1.168020819E-3
1.469696791E0,-3.817795368E-4,-5.344913807E-4,0.000000000E0,6.568383749E-4
1.472122624E0,-3.817795368E-4,7.635590737E-5,0.000000000E0,3.893402616E-4
1.474548457E0,-9.926267667E-4,-5.344913807E-4,0.000000000E0,1.127381450E-3
1.476974291E0,2.290677221E-4,-1.145338640E-3,1.221694518E-3,1.690210080E-3
1.479400176E0,-3.817795368E-4,1.298050396E-3,0.000000000E0,1.353030098E-3
1.481826009E0,-9.926267667E-4,-5.344913807E-4,-1.832541777E-3,2.151557180E-3
1.484251843E0,2.290677221E-4,7.635590737E-5,-6.108472589E-4,6.568383512E-4
1.486677728E0,8.399150101E-4,-1.145338640E-3,-6.108472589E-4,1.546089324E-3
1.489103561E0,8.399150101E-4,-1.145338640E-3,-1.221694518E-3,1.873444773E-3
1.491529395E0,2.290677221E-4,7.635590737E-5,-6.108472589E-4,6.568383512E-4
1.493955228E0,1.450762269E-3,7.635590737E-5,0.000000000E0,1.452770245E-3
1.496381113E0,2.290677221E-4,1.298050396E-3,0.000000000E0,1.318107299E-3
1.498806947E0,-3.817795368E-4,6.872031372E-4,6.108472589E-4,9.955592098E-4
1.501232780E0,2.290677221E-4,-5.344913807E-4,1.221694518E-3,1.353030137E-3
1.503658666E0,-3.817795368E-4,6.872031372E-4,0.000000000E0,7.861321559E-4
1.506084499E0,-9.926267667E-4,-5.344913807E-4,0.000000000E0,1.127381450E-3
1.508510332E0,1.450762269E-3,1.298050396E-3,-1.221694518E-3,2.298300130E-3
1.510936166E0,8.399150101E-4,-5.344913807E-4,0.000000000E0,9.955592701E-4
1.513362051E0,8.399150101E-4,7.635590737E-5,-6.108472589E-4,1.041355762E-3
1.515787884E0,8.399150101E-4,7.635590737E-5,0.000000000E0,8.433785917E-4
1.518213718E0,-3.817795368E-4,-1.145338640E-3,1.221694518E-3,1.717583683E-3
1.520639551E0,-3.817795368E-4,-5.344913807E-4,0.000000000E0,6.568383749E-4
1.523065436E0,1.450762269E-3,7.635590737E-5,-1.221694518E-3,1.898177779E-3
1.525491270E0,8.399150101E-4,-1.756185899E-3,0.000000000E0,1.946701347E-3
1.527917103E0,8.399150101E-4,1.298050396E-3,-6.108472589E-4,1.662385764E-3
1.530342988E0,8.399150101E-4,1.298050396E-3,-6.108472589E-4,1.662385764E-3
1.532768822E0,2.290677221E-4,6.872031372E-4,-6.108472589E-4,9.475518703E-4
1.535194655E0,1.450762269E-3,6.872031372E-4,-1.221694518E-3,2.017299385E-3
1.537620488E0,8.399150101E-4,7.635590737E-5,0.000000000E0,8.433785917E-4
1.540046374E0,8.399150101E-4,-5.344913807E-4,6.108472589E-4,1.168020819E-3
1.542472207E0,8.399150101E-4,6.872031372E-4,0.000000000E0,1.085221349E-3
1.544898041E0,8.399150101E-4,7.635590737E-5,-1.832541777E-3,2.017299386E-3
1.547323926E0,-3.817795368E-4,7.635590737E-5,0.000000000E0,3.893402616E-4
1.549749759E0,2.290677221E-4,-2.367033157E-3,6.108472589E-4,2.455290688E-3
1.552175593E0,-3.817795368E-4,-1.145338640E-3,0.000000000E0,1.207292928E-3
1.554601426E0,8.399150101E-4,-1.145338640E-3,6.108472589E-4,1.546089324E-3
1.557027311E0,-3.817795368E-4,7.635590737E-5,6.108472589E-4,7.243757403E-4
1.559453145E0,2.290677221E-4,-1.145338640E-3,0.000000000E0,1.168020813E-3
1.561878978E0,2.290677221E-4,7.635590737E-5,-6.108472589E-4,6.568383512E-4
1.564304811E0,2.290677221E-4,-5.344913807E-4,6.108472589E-4,8.433785811E-4
1.566730697E0,2.290677221E-4,-1.145338640E-3,6.108472589E-4,1.318107353E-3
1.569156530E0,8.399150101E-4,7.635590737E-5,0.000000000E0,8.433785917E-4
1.571582363E0,2.290677221E-4,7.635590737E-5,6.108472589E-4,6.568383512E-4
1.574008249E0,2.290677221E-4,6.872031372E-4,6.108472589E-4,9.475518703E-4
1.576434082E0,8.399150101E-4,7.635590737E-5,0.000000000E0,8.433785917E-4
1.578859916E0,8.399150101E-4,7.635590737E-5,6.108472589E-4,1.041355762E-3
1.581285749E0,2.290677221E-4,6.872031372E-4,-6.108472589E-4,9.475518703E-4
1.583711634E0,-9.926267667E-4,1.908897655E-3,-1.221694518E-3,2.474214148E-3
1.586137468E0,-1.603474026E-3,6.872031372E-4,6.108472589E-4,1.848380771E-3
1.588563301E0,2.290677221E-4,-5.344913807E-4,0.000000000E0,5.815092926E-4
1.590989134E0,1.450762269E-3,7.635590737E-5,0.000000000E0,1.452770245E-3
1.593415020E0,-9.926267667E-4,6.872031372E-4,0.000000000E0,1.207292860E-3
1.595840853E0,-3.817795368E-4,-5.344913807E-4,-6.108472589E-4,8.969788317E-4
1.598266686E0,-3.817795368E-4,-1.145338640E-3,6.108472589E-4,1.353030150E-3
1.600692572E0,1.450762269E-3,6.872031372E-4,0.000000000E0,1.605291037E-3
1.603118405E0,-9.926267667E-4,7.635590737E-5,6.108472589E-4,1.168020760E-3
1.605544238E0,8.399150101E-4,6.872031372E-4,-6.108472589E-4,1.245327166E-3
1.607970072E0,1.450762269E-3,7.635590737E-5,0.000000000E0,1.452770245E-3
1.610395957E0,2.290677221E-4,6.872031372E-4,-6.108472589E-4,9.475518703E-4
1.612821791E0,-9.926267667E-4,-5.344913807E-4,-6.108472589E-4,1.282233718E-3
1.615247624E0,-3.817795368E-4,7.635590737E-5,-6.108472589E-4,7.243757403E-4
1.617673457E0,8.399150101E-4,-1.145338640E-3,6.108472589E-4,1.546089324E-3
1.620099343E0,2.290677221E-4,-1.756185899E-3,-6.108472589E-4,1.873444770E-3
1.622525176E0,2.061609412E-3,6.872031372E-4,-6.108472589E-4,2.257347092E-3
1.624951009E0,8.399150101E-4,1.298050396E-3,-1.221694518E-3,1.970515047E-3
1.627376895E0,8.399150101E-4,7.635590737E-5,0.000000000E0,8.433785917E-4
1.629802728E0,2.290677221E-4,7.635590737E-5,0.000000000E0,2.414585801E-4
1.632228561E0,1.450762269E-3,7.635590737E-5,-1.221694518E-3,1.898177779E-3
1.634654395E0,-3.817795368E-4,-5.344913807E-4,1.221694518E-3,1.387073951E-3
1.637080280E0,2.290677221E-4,7.635590737E-5,0.000000000E0,2.414585801E-4
1.639506113E0,2.290677221E-4,-5.344913807E-4,6.108472589E-4,8.433785811E-4
1.641931947E0,-3.817795368E-4,6.872031372E-4,-6.108472589E-4,9.955592098E-4
1.644357832E0,8.399150101E-4,7.635590737E-5,0.000000000E0,8.433785917E-4
1.646783666E0,-3.817795368E-4,6.872031372E-4,-6.108472589E-4,9.955592098E-4
1.649209499E0,2.290677221E-4,6.872031372E-4,1.221694518E-3,1.420301964E-3
1.651635332E0,2.290677221E-4,6.872031372E-4,6.108472589E-4,9.475518703E-4
1.654061218E0,-3.817795368E-4,7.635590737E-5,6.108472589E-4,7.243757403E-4
1.656487051E0,8.399150101E-4,6.872031372E-4,1.832541777E-3,2.129768706E-3
1.658912884E0,8.399150101E-4,7.635590737E-5,6.108472589E-4,1.041355762E-3
1.661338770E0,2.290677221E-4,-5.344913807E-4,1.221694518E-3,1.353030137E-3
1.663764603E0,2.290677221E-4,7.635590737E-5,1.221694518E-3,1.245327162E-3
1.666190436E0,-3.817795368E-4,-1.145338640E-3,1.832541777E-3,2.194485265E-3
1.668616270E0,-3.817795368E-4,-5.344913807E-4,6.108472589E-4,8.969788317E-4
1.671042155E0,-9.926267667E-4,-5.344913807E-4,1.832541777E-3,2.151557180E-3
1.673467988E0,-3.817795368E-4,-5.344913807E-4,6.108472589E-4,8.969788317E-4
1.675893822E0,2.290677221E-4,6.872031372E-4,6.108472589E-4,9.475518703E-4
1.678319655E0,2.290677221E-4,7.635590737E-5,6.108472589E-4,6.568383512E-4
1.680745541E0,-3.817795368E-4,6.872031372E-4,0.000000000E0,7.861321559E-4
1.683171374E0,-3.817795368E-4,6.872031372E-4,0.000000000E0,7.861321559E-4
1.685597207E0,-3.817795368E-4,6.872031372E-4,0.000000000E0,7.861321559E-4
1.688023041E0,8.399150101E-4,-1.145338640E-3,1.832541777E-3,2.318505378E-3
1.690448926E0,-3.817795368E-4,7.635590737E-5,6.108472589E-4,7.243757403E-4
1.692874759E0,1.450762269E-3,-5.344913807E-4,-1.221694518E-3,1.970515083E-3
1.695300593E0,2.290677221E-4,7.635590737E-5,0.000000000E0,2.414585801E-4
1.697726478E0,2.290677221E-4,6.872031372E-4,-6.108472589E-4,9.475518703E-4
1.700152311E0,2.290677221E-4,6.872031372E-4,6.108472589E-4,9.475518703E-4
1.702578145E0,-3.817795368E-4,1.298050396E-3,6.108472589E-4,1.484528484E-3
1.705003978E0,-3.817795368E-4,-5.344913807E-4,1.221694518E-3,1.387073951E-3
1.707429863E0,-1.603474026E-3,1.908897655E-3,0.000000000E0,2.492994025E-3
1.709855697E0,-3.817795368E-4,7.635590737E-5,-1.221694518E-3,1.282233728E-3
1.712281530E0,-1.145338640E-3,-1.145338640E-3,-1.527118147E-4,1.626936415E-3
1.714707416E0,7.635590737E-5,-5.344913807E-4,4.581354442E-4,7.080955768E-4
1.717133249E0,-5.344913807E-4,1.298050396E-3,1.679830020E-3,2.189165312E-3
1.719559082E0,-1.145338640E-3,7.635590737E-5,-7.635590737E-4,1.378641825E-3
1.721984916E0,-1.145338640E-3,-5.344913807E-4,-1.527118147E-4,1.273107432E-3
1.724410801E0,-5.344913807E-4,-5.344913807E-4,-7.635590737E-4,1.074422883E-3
1.726836634E0,7.635590737E-5,7.635590737E-5,-7.635590737E-4,7.711568635E-4
1.729262468E0,7.635590737E-5,6.872031372E-4,-1.527118147E-4,7.080955266E-4
1.731688353E0,-5.344913807E-4,-5.344913807E-4,4.581354442E-4,8.838835654E-4
1.734114186E0,7.635590737E-5,-1.145338640E-3,-1.527118147E-4,1.157994699E-3
1.736540020E0,7.635590737E-5,-5.344913807E-4,-1.527118147E-4,5.610990634E-4
1.738965853E0,-5.344913807E-4,1.298050396E-3,-7.635590737E-4,1.598010740E-3
1.741391738E0,1.908897655E-3,7.635590737E-5,-1.527118147E-4,1.916518036E-3
1.743817572E0,-1.145338640E-3,7.635590737E-5,-1.527118147E-4,1.157994699E-3
1.746243405E0,7.635590737E-5,7.635590737E-5,4.581354442E-4,4.706894246E-4
1.748669238E0,-5.344913807E-4,-5.344913807E-4,-1.527118147E-4,7.711569039E-4
1.751095124E0,6.872031372E-4,7.635590737E-5,1.068982761E-3,1.273107427E-3
1.753520957E0,7.635590737E-5,1.298050396E-3,-1.527118147E-4,1.309231054E-3
1.755946791E0,7.635590737E-5,1.908897655E-3,-1.527118147E-4,1.916518036E-3
1.758372676E0,1.298050396E-3,6.872031372E-4,4.581354442E-4,1.538528865E-3
1.760798509E0,6.872031372E-4,-5.344913807E-4,-1.527118147E-4,8.838835252E-4
1.763224343E0,6.872031372E-4,-5.344913807E-4,-1.527118147E-4,8.838835252E-4
1.765650228E0,6.872031372E-4,7.635590737E-5,-7.635590737E-4,1.030097488E-3
1.768076061E0,-1.756185899E-3,-1.145338640E-3,4.581354442E-4,2.146130843E-3
1.770501895E0,6.872031372E-4,-5.344913807E-4,1.068982761E-3,1.378641843E-3
1.772927728E0,-5.344913807E-4,-5.344913807E-4,-1.527118147E-4,7.711569039E-4
1.775353613E0,-1.756185899E-3,6.872031372E-4,-1.527118147E-4,1.892024831E-3
1.777779447E0,-1.756185899E-3,7.635590737E-5,4.581354442E-4,1.816564675E-3
1.780205280E0,-5.344913807E-4,-5.344913807E-4,-1.527118147E-4,7.711569039E-4
1.782631113E0,-5.344913807E-4,1.298050396E-3,-1.527118147E-4,1.412068258E-3
1.785056999E0,-1.145338640E-3,7.635590737E-5,1.068982761E-3,1.568551870E-3
1.787482832E0,7.635590737E-5,7.635590737E-5,4.581354442E-4,4.706894246E-4
1.789908666E0,6.872031372E-4,6.872031372E-4,-1.527118147E-4,9.837770082E-4
1.792334499E0,7.635590737E-5,6.872031372E-4,-1.527118147E-4,7.080955266E-4
1.794760384E0,-5.344913807E-4,1.298050396E-3,-1.527118147E-4,1.412068258E-3
1.797186218E0,-5.344913807E-4,-1.145338640E-3,-7.635590737E-4,1.476653004E-3
1.799612051E0,-1.756185899E-3,-1.145338640E-3,1.068982761E-3,2.353447185E-3
1.802037936E0,-5.344913807E-4,7.635590737E-5,4.581354442E-4,7.080955768E-4
1.804463770E0,1.298050396E-3,6.872031372E-4,1.068982761E-3,1.816564650E-3
1.806889603E0,-5.344913807E-4,7.635590737E-5,-1.527118147E-4,5.610990634E-4
1.809315436E0,1.298050396E-3,7.635590737E-5,-1.527118147E-4,1.309231054E-3
1.811741322E0,6.872031372E-4,-1.145338640E-3,-1.527118147E-4,1.344384487E-3
1.814167155E0,-5.344913807E-4,6.872031372E-4,4.581354442E-4,9.837770444E-4
1.816592988E0,-5.344913807E-4,1.298050396E-3,4.581354442E-4,1.476652956E-3
1.819018874E0,7.635590737E-5,6.872031372E-4,1.068982761E-3,1.273107427E-3
1.821444707E0,6.872031372E-4,7.635590737E-5,-7.635590737E-4,1.030097488E-3
1.823870541E0,6.872031372E-4,-5.344913807E-4,-1.527118147E-4,8.838835252E-4
1.826296374E0,6.872031372E-4,6.872031372E-4,-1.527118147E-4,9.837770082E-4
1.828722259E0,7.635590737E-5,-1.145338640E-3,4.581354442E-4,1.235928359E-3
1.831148093E0,-5.344913807E-4,7.635590737E-5,-1.527118147E-4,5.610990634E-4
1.833573926E0,7.635590737E-5,-5.344913807E-4,4.581354442E-4,7.080955768E-4
1.835999811E0,-5.344913807E-4,-5.344913807E-4,-1.527118147E-4,7.711569039E-4
1.838425645E0,7.635590737E-5,7.635590737E-5,-1.527118147E-4,1.870330119E-4
1.840851478E0,1.298050396E-3,7.635590737E-5,-7.635590737E-4,1.507908324E-3
1.843277311E0,1.908897655E-3,-5.344913807E-4,4.581354442E-4,2.034566140E-3
1.845703197E0,-5.344913807E-4,-5.344913807E-4,-1.527118147E-4,7.711569039E-4
1.848129030E0,7.635590737E-5,-5.344913807E-4,-1.527118147E-4,5.610990634E-4
1.850554863E0,6.872031372E-4,-1.145338640E-3,-1.527118147E-4,1.344384487E-3
1.852980749E0,-5.344913807E-4,-5.344913807E-4,4.581354442E-4,8.838835654E-4
1.855406582E0,1.298050396E-3,-5.344913807E-4,-1.374406274E-3,1.964588627E-3
1.857832416E0,7.635590737E-5,-1.756185899E-3,-1.527118147E-4,1.764465934E-3
1.860258249E0,-5.344913807E-4,7.635590737E-5,-1.527118147E-4,5.610990634E-4
1.862684134E0,-5.344913807E-4,6.872031372E-4,-1.527118147E-4,8.838835252E-4
1.865109968E0,7.635590737E-5,7.635590737E-5,-1.374406274E-3,1.378641743E-3
1.867535801E0,1.298050396E-3,6.872031372E-4,-7.635590737E-4,1.655356590E-3
1.869961686E0,6.872031372E-4,6.872031372E-4,4.581354442E-4,1.074422817E-3
1.872387520E0,1.298050396E-3,-1.145338640E-3,4.581354442E-4,1.790704754E-3
1.874813353E0,6.872031372E-4,7.635590737E-5,4.581354442E-4,8.294374368E-4
1.877239186E0,6.872031372E-4,-1.145338640E-3,1.679830020E-3,2.146130855E-3
1.879665072E0,1.908897655E-3,7.635590737E-5,-1.527118147E-4,1.916518036E-3
1.882090905E0,6.872031372E-4,-5.344913807E-4,4.581354442E-4,9.837770444E-4
1.884516738E0,1.298050396E-3,-1.145338640E-3,4.581354442E-4,1.790704754E-3
1.886942572E0,-1.145338640E-3,-5.344913807E-4,-7.635590737E-4,1.476653004E-3
1.889368457E0,7.635590737E-5,1.298050396E-3,-1.527118147E-4,1.309231054E-3
1.891794291E0,6.872031372E-4,1.298050396E-3,-1.527118147E-4,1.476652932E-3
1.894220124E0,-1.145338640E-3,-1.145338640E-3,-1.527118147E-4,1.626936415E-3
1.896646009E0,-5.344913807E-4,1.298050396E-3,4.581354442E-4,1.476652956E-3
1.899071843E0,7.635590737E-5,-5.344913807E-4,4.581354442E-4,7.080955768E-4
1.901497676E0,6.872031372E-4,1.298050396E-3,-1.374406274E-3,2.011510773E-3
1.903923509E0,7.635590737E-5,7.635590737E-5,4.581354442E-4,4.706894246E-4
1.906349395E0,-5.344913807E-4,6.872031372E-4,-1.527118147E-4,8.838835252E-4
1.908775228E0,7.635590737E-5,6.872031372E-4,-7.635590737E-4,1.030097488E-3
1.911201061E0,-5.344913807E-4,-5.344913807E-4,-1.374406274E-3,1.568551778E-3
1.913626947E0,6.872031372E-4,7.635590737E-5,-7.635590737E-4,1.030097488E-3
1.916052780E0,7.635590737E-5,7.635590737E-5,4.581354442E-4,4.706894246E-4
1.918478613E0,-5.344913807E-4,6.872031372E-4,-1.527118147E-4,8.838835252E-4
1.920904447E0,-5.344913807E-4,7.635590737E-5,-7.635590737E-4,9.351650761E-4
1.923330332E0,-1.145338640E-3,7.635590737E-5,1.068982761E-3,1.568551870E-3
1.925756166E0,7.635590737E-5,7.635590737E-5,-1.527118147E-4,1.870330119E-4
1.928181999E0,7.635590737E-5,6.872031372E-4,4.581354442E-4,8.294374368E-4
1.930607884E0,7.635590737E-5,7.635590737E-5,-7.635590737E-4,7.711568635E-4
1.933033718E0,7.635590737E-5,7.635590737E-5,-1.527118147E-4,1.870330119E-4
1.935459551E0,-5.344913807E-4,6.872031372E-4,4.581354442E-4,9.837770444E-4
1.937885384E0,-1.145338640E-3,-1.145338640E-3,-1.527118147E-4,1.626936415E-3
1.940311270E0,-5.344913807E-4,-1.756185899E-3,-7.635590737E-4,1.988188222E-3
1.942737103E0,-5.344913807E-4,-5.344913807E-4,4.581354442E-4,8.838835654E-4
1.945162936E0,6.872031372E-4,-5.344913807E-4,1.068982761E-3,1.378641843E-3
1.947588822E0,-5.344913807E-4,-5.344913807E-4,1.679830020E-3,1.842061608E-3
1.950014655E0,7.635590737E-5,6.872031372E-4,1.679830020E-3,1.816564690E-3
1.952440488E0,7.635590737E-5,7.635590737E-5,4.581354442E-4,4.706894246E-4
1.954866322E0,-5.344913807E-4,6.872031372E-4,-1.527118147E-4,8.838835252E-4
1.957292207E0,7.635590737E-5,6.872031372E-4,-7.635590737E-4,1.030097488E-3
1.959718041E0,6.872031372E-4,6.872031372E-4,-1.374406274E-3,1.683297036E-3
1.962143874E0,-5.344913807E-4,7.635590737E-5,-1.527118147E-4,5.610990634E-4
1.964569707E0,6.872031372E-4,6.872031372E-4,-7.635590737E-4,1.235928300E-3
1.966995593E0,6.872031372E-4,7.635590737E-5,-1.374406274E-3,1.538528837E-3
1.969421426E0,6.872031372E-4,-5.344913807E-4,-7.635590737E-4,1.157994666E-3
1.971847259E0,7.635590737E-5,6.872031372E-4,-1.527118147E-4,7.080955266E-4
1.974273145E0,1.298050396E-3,6.872031372E-4,-1.527118147E-4,1.476652932E-3
1.976698978E0,6.872031372E-4,6.872031372E-4,1.068982761E-3,1.444721581E-3
1.979124811E0,7.635590737E-5,6.872031372E-4,-1.527118147E-4,7.080955266E-4
1.981550645E0,1.908897655E-3,6.872031372E-4,4.581354442E-4,2.079910213E-3
1.983976530E0,-5.344913807E-4,7.635590737E-5,4.581354442E-4,7.080955768E-4
1.986402363E0,-1.145338640E-3,7.635590737E-5,4.581354442E-4,1.235928359E-3
1.988828197E0,-1.756185899E-3,7.635590737E-5,1.068982761E-3,2.057363186E-3
1.991254082E0,-5.344913807E-4,6.872031372E-4,4.581354442E-4,9.837770444E-4
1.993679916E0,7.635590737E-5,-5.344913807E-4,-1.527118147E-4,5.610990634E-4
1.996105749E0,-1.145338640E-3,-5.344913807E-4,4.581354442E-4,1.344384514E-3
1.998531582E0,7.635590737E-5,-5.344913807E-4,4.581354442E-4,7.080955768E-4
2.000957468E0,-5.344913807E-4,7.635590737E-5,-1.527118147E-4,5.610990634E-4
2.003383301E0,-5.344913807E-4,7.635590737E-5,-1.527118147E-4,5.610990634E-4
2.005809134E0,-5.344913807E-4,7.635590737E-5,4.581354442E-4,7.080955768E-4
2.008235020E0,7.635590737E-5,6.872031372E-4,4.581354442E-4,8.294374368E-4
2.010660853E0,-5.344913807E-4,6.872031372E-4,1.068982761E-3,1.378641843E-3
2.013086686E0,-1.145338640E-3,7.635590737E-5,-1.527118147E-4,1.157994699E-3
2.015512520E0,-1.145338640E-3,-1.145338640E-3,1.679830020E-3,2.333544535E-3
2.017938405E0,7.635590737E-5,7.635590737E-5,-1.527118147E-4,1.870330119E-4
2.020364238E0,-5.344913807E-4,7.635590737E-5,-7.635590737E-4,9.351650761E-4
2.022790072E0,7.635590737E-5,7.635590737E-5,-7.635590737E-4,7.711568635E-4
2.025215957E0,6.872031372E-4,-5.344913807E-4,-1.527118147E-4,8.838835252E-4
2.027641791E0,7.635590737E-5,-5.344913807E-4,4.581354442E-4,7.080955768E-4
2.030067624E0,6.872031372E-4,6.872031372E-4,-1.527118147E-4,9.837770082E-4
2.032493457E0,6.872031372E-4,7.635590737E-5,1.068982761E-3,1.273107427E-3
2.034919343E0,-5.344913807E-4,1.298050396E-3,4.581354442E-4,1.476652956E-3
2.037345176E0,6.872031372E-4,-5.344913807E-4,-1.527118147E-4,8.838835252E-4
2.039771009E0,-5.344913807E-4,7.635590737E-5,-1.527118147E-4,5.610990634E-4
2.042196843E0,-1.145338640E-3,6.872031372E-4,-1.527118147E-4,1.344384487E-3
2.044622728E0,-5.344913807E-4,-5.344913807E-4,-1.527118147E-4,7.711569039E-4
2.047048561E0,7.635590737E-5,6.872031372E-4,-1.527118147E-4,7.080955266E-4
2.049474395E0,6.872031372E-4,-5.344913807E-4,4.581354442E-4,9.837770444E-4
2.051900280E0,1.298050396E-3,6.872031372E-4,-1.527118147E-4,1.476652932E-3
2.054326113E0,7.635590737E-5,6.872031372E-4,-1.527118147E-4,7.080955266E-4
2.056751947E0,7.635590737E-5,1.908897655E-3,-7.635590737E-4,2.057363104E-3
2.059177832E0,6.872031372E-4,1.298050396E-3,-7.635590737E-4,1.655356590E-3
2.061603666E0,-1.145338640E-3,6.872031372E-4,-1.527118147E-4,1.344384487E-3
2.064029499E0,-1.756185899E-3,-5.344913807E-4,4.581354442E-4,1.892024850E-3
2.066455332E0,7.635590737E-5,1.298050396E-3,-1.374406274E-3,1.892024752E-3
2.068881218E0,-5.344913807E-4,6.872031372E-4,1.068982761E-3,1.378641843E-3
2.071307051E0,-5.344913807E-4,-5.344913807E-4,4.581354442E-4,8.838835654E-4
2.073732884E0,-5.344913807E-4,7.635590737E-5,-1.374406274E-3,1.476652927E-3
2.076158718E0,1.298050396E-3,1.298050396E-3,-1.374406274E-3,2.293220938E-3
2.078584603E0,1.298050396E-3,6.872031372E-4,-7.635590737E-4,1.655356590E-3
2.081010436E0,-5.344913807E-4,7.635590737E-5,-1.527118147E-4,5.610990634E-4
2.083436270E0,-5.344913807E-4,-1.145338640E-3,-1.527118147E-4,1.273107432E-3
2.085862155E0,6.872031372E-4,1.221694518E-3,4.581354442E-4,1.474677501E-3
2.088287988E0,1.298050396E-3,0.000000000E0,-1.527118147E-4,1.307002574E-3
2.090713822E0,-5.344913807E-4,-6.108472589E-4,4.581354442E-4,9.320426466E-4
2.093139655E0,-5.344913807E-4,1.832541777E-3,-1.527118147E-4,1.914996422E-3
2.095565541E0,-1.145338640E-3,1.221694518E-3,-1.527118147E-4,1.681564448E-3
2.097991374E0,6.872031372E-4,0.000000000E0,1.068982761E-3,1.270815603E-3
2.100417207E0,-1.756185899E-3,-1.832541777E-3,-1.527118147E-4,2.542777846E-3
2.102843093E0,7.635590737E-5,-1.221694518E-3,-7.635590737E-4,1.442702387E-3
2.105268926E0,-5.344913807E-4,0.000000000E0,-7.635590737E-4,9.320426466E-4
2.107694759E0,-5.344913807E-4,-1.221694518E-3,1.068982761E-3,1.709076556E-3
2.110120593E0,7.635590737E-5,0.000000000E0,-1.527118147E-4,1.707369994E-4
2.112546478E0,1.298050396E-3,1.221694518E-3,1.068982761E-3,2.078508232E-3
2.114972311E0,1.298050396E-3,1.221694518E-3,4.581354442E-4,1.840478310E-3
2.117398145E0,7.635590737E-5,6.108472589E-4,-1.527118147E-4,6.342598022E-4
2.119824030E0,7.635590737E-5,0.000000000E0,-1.374406274E-3,1.376525638E-3
2.122249863E0,-1.145338640E-3,-6.108472589E-4,-1.985253533E-3,2.371954166E-3
2.124675697E0,6.872031372E-4,-6.108472589E-4,4.581354442E-4,1.027263652E-3
2.127101530E0,-1.145338640E-3,6.108472589E-4,-1.374406274E-3,1.890483425E-3
2.129527416E0,-1.145338640E-3,6.108472589E-4,-1.527118147E-4,1.307002629E-3
2.131953249E0,-1.145338640E-3,6.108472589E-4,-1.527118147E-4,1.307002629E-3
2.134379082E0,-5.344913807E-4,6.108472589E-4,-7.635590737E-4,1.114377794E-3
2.136804968E0,-5.344913807E-4,1.221694518E-3,-1.527118147E-4,1.342214375E-3
2.139230801E0,7.635590737E-5,1.221694518E-3,4.581354442E-4,1.307002603E-3
2.141656634E0,7.635590737E-5,0.000000000E0,4.581354442E-4,4.644548523E-4
2.144082468E0,6.872031372E-4,0.000000000E0,4.581354442E-4,8.259153934E-4
2.146508353E0,7.635590737E-5,0.000000000E0,1.068982761E-3,1.071706288E-3
2.148934186E0,-5.344913807E-4,-6.108472589E-4,-1.527118147E-4,8.259154364E-4
2.151360020E0,7.635590737E-5,-6.108472589E-4,-1.374406274E-3,1.505973840E-3
2.153785905E0,-2.977880416E-3,-0.000000000E0,-7.635590737E-4,3.074214409E-3
2.156211738E0,-5.344913807E-4,-0.000000000E0,-1.527118147E-4,5.558794243E-4
2.158637572E0,7.635590737E-5,-6.108472589E-4,-7.635590737E-4,9.808093889E-4
2.161063405E0,1.298050396E-3,6.108472589E-4,-1.527118147E-4,1.442702361E-3
2.163489291E0,1.298050396E-3,-0.000000000E0,1.068982761E-3,1.681564443E-3
2.165915124E0,7.635590737E-5,-6.108472589E-4,1.679830020E-3,1.789076157E-3
2.168340957E0,-5.344913807E-4,1.832541777E-3,-1.527118147E-4,1.914996422E-3
2.170766843E0,7.635590737E-5,6.108472589E-4,-1.527118147E-4,6.342598022E-4
2.173192676E0,6.872031372E-4,-6.108472589E-4,1.068982761E-3,1.410002365E-3
2.175618509E0,-1.145338640E-3,1.221694518E-3,4.581354442E-4,1.736152695E-3
2.178044343E0,-1.145338640E-3,-6.108472589E-4,-1.527118147E-4,1.307002629E-3
2.180470228E0,1.298050396E-3,-6.108472589E-4,-7.635590737E-4,1.625143582E-3
2.182896061E0,-5.344913807E-4,-0.000000000E0,4.581354442E-4,7.039667046E-4
2.185321895E0,-1.145338640E-3,-6.108472589E-4,4.581354442E-4,1.376525720E-3
2.187747780E0,1.298050396E-3,1.221694518E-3,-1.527118147E-4,1.789076081E-3
2.190173613E0,1.298050396E-3,-1.221694518E-3,-7.635590737E-4,1.939199522E-3
2.192599447E0,6.872031372E-4,-0.000000000E0,-1.985253533E-3,2.100828347E-3
2.195025280E0,-5.344913807E-4,-6.108472589E-4,-1.527118147E-4,8.259154364E-4
2.197451166E0,-5.344913807E-4,-6.108472589E-4,1.068982761E-3,1.342214422E-3
2.199876999E0,-5.344913807E-4,-1.221694518E-3,-1.527118147E-4,1.342214375E-3
2.202302832E0,7.635590737E-5,-1.221694518E-3,4.581354442E-4,1.307002603E-3
2.204728718E0,-5.344913807E-4,-6.108472589E-4,-1.527118147E-4,8.259154364E-4
2.207154551E0,7.635590737E-5,-7.635590737E-5,4.581354442E-4,4.706894246E-4
2.209580384E0,-5.344913807E-4,-6.872031372E-4,4.581354442E-4,9.837770444E-4
2.212006218E0,-1.068982761E-3,1.145338640E-3,-1.527118147E-4,1.574117417E-3
2.214432103E0,-4.581354442E-4,1.145338640E-3,-1.527118147E-4,1.242984144E-3
2.216857936E0,7.635590737E-4,-6.872031372E-4,-1.374406274E-3,1.715885549E-3
2.219283770E0,-1.068982761E-3,-6.872031372E-4,4.581354442E-4,1.350873932E-3
2.221709655E0,1.527118147E-4,-1.298050396E-3,1.068982761E-3,1.688484490E-3
2.224135488E0,-4.581354442E-4,-2.519744914E-3,-7.635590737E-4,2.672456730E-3
2.226561322E0,-4.581354442E-4,-6.872031372E-4,-1.527118147E-4,8.399149572E-4
2.228987155E0,-1.068982761E-3,-6.872031372E-4,-1.527118147E-4,1.279958278E-3
2.231413041E0,1.527118147E-4,-1.298050396E-3,-1.527118147E-4,1.315893851E-3
2.233838874E0,1.527118147E-4,-6.872031372E-4,1.068982761E-3,1.279958278E-3
2.236264707E0,1.527118147E-4,1.145338640E-3,4.581354442E-4,1.242984144E-3
2.238690541E0,-4.581354442E-4,-7.635590737E-5,4.581354442E-4,6.523851585E-4
2.241116426E0,1.374406274E-3,-7.635590737E-5,-7.635590737E-4,1.574117305E-3
2.243542259E0,-4.581354442E-4,5.344913807E-4,4.581354442E-4,8.399149996E-4
2.245968093E0,1.527118147E-4,5.344913807E-4,4.581354442E-4,7.203402110E-4
2.248393978E0,1.374406274E-3,-6.872031372E-4,-1.527118147E-4,1.544202596E-3
2.250819811E0,7.635590737E-4,-6.872031372E-4,1.068982761E-3,1.482563575E-3
2.253245645E0,-4.581354442E-4,-1.298050396E-3,4.581354442E-4,1.450762214E-3
2.255671530E0,1.374406274E-3,-7.635590737E-5,4.581354442E-4,1.450762185E-3
2.258097363E0,7.635590737E-4,-1.298050396E-3,1.068982761E-3,1.846803031E-3
2.260523197E0,-4.581354442E-4,-1.298050396E-3,2.290677279E-3,2.672456794E-3
2.262949030E0,1.527118147E-4,-7.635590737E-5,1.679830020E-3,1.688484534E-3
2.265374916E0,-1.068982761E-3,-7.635590737E-5,-7.635590737E-4,1.315893927E-3
2.267800749E0,1.527118147E-4,-7.635590737E-5,-1.374406274E-3,1.384970660E-3
2.270226582E0,1.527118147E-4,-7.635590737E-5,-1.374406274E-3,1.384970660E-3
2.272652468E0,-1.068982761E-3,5.344913807E-4,-1.527118147E-4,1.204875960E-3
2.275078301E0,-4.581354442E-4,1.756185899E-3,-7.635590737E-4,1.969035158E-3
2.277504134E0,7.635590737E-4,-7.635590737E-5,1.068982761E-3,1.315893927E-3
2.279929968E0,1.527118147E-4,-6.872031372E-4,-1.374406274E-3,1.544202596E-3
2.282355853E0,1.527118147E-4,1.145338640E-3,-1.527118147E-4,1.165522370E-3
2.284781686E0,-1.068982761E-3,-6.872031372E-4,-7.635590737E-4,1.482563575E-3
2.287207520E0,-1.068982761E-3,-6.872031372E-4,-1.527118147E-4,1.279958278E-3
2.289633405E0,7.635590737E-4,-6.872031372E-4,-1.374406274E-3,1.715885549E-3
2.292059238E0,-2.290677279E-3,-0.000000000E0,-7.635590737E-4,2.414585856E-3
2.294485072E0,-4.581354442E-4,-1.832541777E-3,4.581354442E-4,1.943704076E-3
2.296910905E0,7.635590737E-4,-0.000000000E0,-1.374406274E-3,1.572264312E-3
2.299336791E0,7.635590737E-4,1.221694518E-3,-7.635590737E-4,1.630515996E-3
2.301762624E0,1.374406274E-3,-6.108472589E-4,-1.527118147E-4,1.511769784E-3
2.304188457E0,7.635590737E-4,-0.000000000E0,4.581354442E-4,8.904552455E-4
2.306614343E0,7.635590737E-4,-6.108472589E-4,-1.527118147E-4,9.896856729E-4
2.309040176E0,1.527118147E-4,6.108472589E-4,1.068982761E-3,1.240636698E-3
2.311466009E0,-1.068982761E-3,6.108472589E-4,-1.527118147E-4,1.240636698E-3
2.313891843E0,-1.068982761E-3,1.221694518E-3,-7.635590737E-4,1.793957663E-3
2.316317728E0,-4.581354442E-4,-6.108472589E-4,-7.635590737E-4,1.079835598E-3
2.318743561E0,7.635590737E-4,-0.000000000E0,-1.527118147E-4,7.786805233E-4
2.321169395E0,1.527118147E-4,-6.108472589E-4,-1.527118147E-4,6.479013586E-4
2.323595280E0,-4.581354442E-4,-6.108472589E-4,-1.374406274E-3,1.572264312E-3
2.326021113E0,-4.581354442E-4,6.108472589E-4,4.581354442E-4,8.904552455E-4
2.328446947E0,-1.068982761E-3,-0.000000000E0,4.581354442E-4,1.163018585E-3
2.330872780E0,-1.068982761E-3,-0.000000000E0,4.581354442E-4,1.163018585E-3
2.333298666E0,1.527118147E-4,-6.108472589E-4,4.581354442E-4,7.786805233E-4
2.335724499E0,1.527118147E-4,-1.832541777E-3,-1.374406274E-3,2.295761937E-3
2.338150332E0,-1.068982761E-3,-0.000000000E0,-1.527118147E-4,1.079835655E-3
2.340576218E0,1.527118147E-4,-6.108472589E-4,-7.635590737E-4,9.896856729E-4
2.343002051E0,1.527118147E-4,6.108472589E-4,-1.527118147E-4,6.479013586E-4
2.345427884E0,7.635590737E-4,-0.000000000E0,-7.635590737E-4,1.079835598E-3
2.347853718E0,1.527118147E-4,-0.000000000E0,-1.527118147E-4,2.159671195E-4
2.350279603E0,1.527118147E-4,-1.221694518E-3,4.581354442E-4,1.313676702E-3
2.352705436E0,1.527118147E-4,-6.108472589E-4,4.581354442E-4,7.786805233E-4
2.355131270E0,1.527118147E-4,-1.221694518E-3,4.581354442E-4,1.313676702E-3
2.357557155E0,1.527118147E-4,-6.108472589E-4,1.068982761E-3,1.240636698E-3
2.359982988E0,-4.581354442E-4,1.221694518E-3,-7.635590737E-4,1.511769837E-3
2.362408822E0,1.985253533E-3,0.000000000E0,-7.635590737E-4,2.127029396E-3
2.364834655E0,1.527118147E-4,-1.832541777E-3,-7.635590737E-4,1.991118460E-3
2.367260541E0,7.635590737E-4,0.000000000E0,4.581354442E-4,8.904552455E-4
2.369686374E0,-4.581354442E-4,-6.108472589E-4,1.068982761E-3,1.313676750E-3
2.372112207E0,7.635590737E-4,-1.221694518E-3,-1.527118147E-4,1.448751481E-3
2.374538093E0,-4.581354442E-4,1.221694518E-3,1.068982761E-3,1.686757162E-3
2.376963926E0,-4.581354442E-4,-6.108472589E-4,1.068982761E-3,1.313676750E-3
2.379389759E0,7.635590737E-4,-6.108472589E-4,1.068982761E-3,1.448751523E-3
2.381815593E0,-1.068982761E-3,-6.108472589E-4,4.581354442E-4,1.313676750E-3
2.384241478E0,-4.581354442E-4,-6.108472589E-4,4.581354442E-4,8.904552455E-4
2.386667311E0,-1.679830020E-3,0.000000000E0,-1.527118147E-4,1.686757183E-3
2.389093145E0,-4.581354442E-4,0.000000000E0,4.581354442E-4,6.479013586E-4
2.391519030E0,7.635590737E-4,-6.108472589E-4,4.581354442E-4,1.079835598E-3
2.393944863E0,7.635590737E-4,6.108472589E-4,-7.635590737E-4,1.240636648E-3
2.396370697E0,1.527118147E-4,-6.108472589E-4,-1.527118147E-4,6.479013586E-4
2.398796530E0,1.527118147E-4,-1.221694518E-3,-7.635590737E-4,1.448751481E-3
2.401222416E0,1.374406274E-3,-6.108472589E-4,4.581354442E-4,1.572264312E-3
2.403648249E0,1.527118147E-4,0.000000000E0,-1.374406274E-3,1.382864240E-3
2.406074082E0,1.527118147E-4,0.000000000E0,-1.527118147E-4,2.159671195E-4
2.408499968E0,1.527118147E-4,0.000000000E0,-1.527118147E-4,2.159671195E-4
2.410925801E0,-4.581354442E-4,-1.221694518E-3,4.581354442E-4,1.382864298E-3
2.413351634E0,-4.581354442E-4,-1.221694518E-3,1.068982761E-3,1.686757162E-3
2.415777468E0,7.635590737E-4,0.000000000E0,4.581354442E-4,8.904552455E-4
2.418203353E0,-1.068982761E-3,7.635590737E-5,-1.527118147E-4,1.082531878E-3
2.420629186E0,1.527118147E-4,7.635590737E-5,-7.635590737E-4,7.824152235E-4
2.423055020E0,-4.581354442E-4,-1.145338640E-3,1.068982761E-3,1.632302922E-3
2.425480905E0,-4.581354442E-4,6.872031372E-4,-7.635590737E-4,1.124792735E-3
2.427906738E0,1.527118147E-4,1.298050396E-3,1.068982761E-3,1.688484490E-3
2.430332572E0,1.374406274E-3,-5.344913807E-4,4.581354442E-4,1.544202619E-3
2.432758405E0,7.635590737E-4,7.635590737E-5,-7.635590737E-4,1.082531821E-3
2.435184291E0,1.527118147E-4,-1.145338640E-3,4.581354442E-4,1.242984144E-3
2.437610124E0,-4.581354442E-4,-1.145338640E-3,-1.527118147E-4,1.242984144E-3
2.440035957E0,-1.679830020E-3,-5.344913807E-4,1.068982761E-3,2.061609584E-3
2.442461843E0,1.527118147E-4,-5.344913807E-4,1.068982761E-3,1.204875960E-3
2.444887676E0,7.635590737E-4,7.635590737E-5,4.581354442E-4,8.937229821E-4
2.447313509E0,1.527118147E-4,-1.756185899E-3,-1.527118147E-4,1.769415357E-3
2.449739395E0,7.635590737E-4,6.872031372E-4,-1.527118147E-4,1.038552603E-3
2.452165228E0,1.527118147E-4,-5.344913807E-4,-1.985253533E-3,2.061609450E-3
2.454591061E0,-1.068982761E-3,7.635590737E-5,-1.374406274E-3,1.742855983E-3
2.457016895E0,-1.679830020E-3,-5.344913807E-4,-1.527118147E-4,1.769415393E-3
2.459442780E0,1.527118147E-4,-5.344913807E-4,-1.374406274E-3,1.482563503E-3
2.461868613E0,1.527118147E-4,6.872031372E-4,-7.635590737E-4,1.038552603E-3
2.464294447E0,7.635590737E-4,-5.344913807E-4,1.068982761E-3,1.418248088E-3
2.466720280E0,7.635590737E-4,6.872031372E-4,4.581354442E-4,1.124792735E-3
2.469146166E0,1.527118147E-4,-1.756185899E-3,4.581354442E-4,1.821372530E-3
2.471571999E0,1.527118147E-4,-5.344913807E-4,4.581354442E-4,7.203402110E-4
2.473997832E0,-4.581354442E-4,-5.344913807E-4,-1.527118147E-4,7.203402110E-4
2.476423718E0,-1.679830020E-3,-5.344913807E-4,-7.635590737E-4,1.921075842E-3
2.478849551E0,-4.581354442E-4,7.635590737E-5,1.068982761E-3,1.165522395E-3
2.481275384E0,7.635590737E-4,-5.344913807E-4,-1.527118147E-4,9.444704301E-4
2.483701270E0,7.635590737E-4,7.635590737E-5,4.581354442E-4,8.937229821E-4
2.486127103E0,-4.581354442E-4,-1.145338640E-3,-1.374406274E-3,1.846802992E-3
2.488552936E0,-1.068982761E-3,-5.344913807E-4,-7.635590737E-4,1.418248088E-3
2.490978770E0,1.527118147E-4,-5.344913807E-4,-2.596100792E-3,2.654946564E-3
2.493404655E0,7.635590737E-4,-1.068982761E-3,-1.374406274E-3,1.901246752E-3
2.495830488E0,-4.581354442E-4,-1.068982761E-3,-7.635590737E-4,1.391270890E-3
2.498256322E0,1.527118147E-4,1.374406274E-3,-7.635590737E-4,1.579663244E-3
2.500682207E0,-1.679830020E-3,7.635590737E-4,4.581354442E-4,1.901246812E-3
2.503108041E0,-4.581354442E-4,1.374406274E-3,-7.635590737E-4,1.637651719E-3
2.505533874E0,1.527118147E-4,1.527118147E-4,4.581354442E-4,5.064877905E-4
2.507959707E0,1.527118147E-4,1.374406274E-3,1.068982761E-3,1.747866599E-3
2.510385593E0,-4.581354442E-4,-4.581354442E-4,-1.374406274E-3,1.519463319E-3
2.512811426E0,-4.581354442E-4,7.635590737E-4,-1.527118147E-4,9.034552798E-4
2.515237259E0,-4.581354442E-4,-1.068982761E-3,-1.527118147E-4,1.173001759E-3
2.517663145E0,-1.068982761E-3,1.374406274E-3,-1.527118147E-4,1.747866599E-3
2.520088978E0,-1.679830020E-3,7.635590737E-4,4.581354442E-4,1.901246812E-3
2.522514811E0,-4.581354442E-4,7.635590737E-4,4.581354442E-4,1.001398337E-3
2.524940645E0,-1.068982761E-3,7.635590737E-4,4.581354442E-4,1.391270890E-3
2.527366530E0,-1.068982761E-3,-4.581354442E-4,-7.635590737E-4,1.391270890E-3
2.529792363E0,1.527118147E-4,-4.581354442E-4,-1.374406274E-3,1.456777811E-3
2.532218197E0,-1.068982761E-3,1.985253533E-3,4.581354442E-4,2.300835462E-3
2.534644082E0,7.635590737E-4,7.635590737E-4,4.581354442E-4,1.173001706E-3
2.537069916E0,1.985253533E-3,1.527118147E-4,4.581354442E-4,2.043144776E-3
2.539495749E0,-4.581354442E-4,-4.581354442E-4,-1.527118147E-4,6.656553679E-4
2.541921582E0,1.374406274E-3,-4.581354442E-4,4.581354442E-4,1.519463319E-3
2.544347468E0,7.635590737E-4,-4.581354442E-4,4.581354442E-4,1.001398337E-3
2.546773301E0,-4.581354442E-4,1.527118147E-4,4.581354442E-4,6.656553679E-4
2.549199134E0,1.527118147E-4,1.527118147E-4,1.145338640E-3,1.165522370E-3
2.551625020E0,-1.679830020E-3,-4.581354442E-4,5.344913807E-4,1.821372564E-3
2.554050853E0,-4.581354442E-4,-1.068982761E-3,-6.872031372E-4,1.350873932E-3
2.556476686E0,1.527118147E-4,-1.068982761E-3,-7.635590737E-5,1.082531878E-3
2.558902520E0,-4.581354442E-4,-4.581354442E-4,-7.635590737E-5,6.523851585E-4
2.561328405E0,-4.581354442E-4,-1.068982761E-3,5.344913807E-4,1.279958306E-3
2.563754238E0,1.527118147E-4,-2.290677279E-3,-6.872031372E-4,2.396408030E-3
2.566180072E0,-4.581354442E-4,-1.679830020E-3,-7.635590737E-5,1.742856049E-3
2.568605957E0,-3.817795368E-4,1.527118147E-4,-6.872031372E-4,8.008274876E-4
2.571031791E0,8.399150101E-4,-4.581354442E-4,1.145338640E-3,1.492362526E-3
2.573457624E0,-3.817795368E-4,1.527118147E-4,5.344913807E-4,6.743571377E-4
2.575883457E0,-9.926267667E-4,1.527118147E-4,1.145338640E-3,1.523295571E-3
2.578309343E0,-3.817795368E-4,7.635590737E-4,5.344913807E-4,1.007203609E-3
2.580735176E0,8.399150101E-4,1.527118147E-4,-7.635590737E-5,8.570929630E-4
2.583161009E0,8.399150101E-4,1.450762269E-3,1.145338640E-3,2.030263280E-3
2.585586895E0,8.399150101E-4,2.290677221E-4,1.145338640E-3,1.438655569E-3
2.588012728E0,1.450762269E-3,8.399150101E-4,-7.635590737E-5,1.678093743E-3
2.590438561E0,2.061609412E-3,2.290677221E-4,-7.635590737E-5,2.075701234E-3
2.592864447E0,8.399150101E-4,-3.817795368E-4,-7.635590737E-5,9.257662035E-4
2.595290280E0,-9.926267667E-4,-9.926267667E-4,5.344913807E-4,1.502097477E-3
2.597716113E0,-3.817795368E-4,8.399150101E-4,-7.635590737E-5,9.257662035E-4
2.600141947E0,-9.926267667E-4,8.399150101E-4,1.145338640E-3,1.732791309E-3
2.602567832E0,-2.214321401E-3,2.290677221E-4,-7.635590737E-5,2.227447309E-3
2.604993666E0,-3.817795368E-4,2.290677221E-4,-7.635590737E-5,4.517276399E-4
2.607419499E0,-3.817795368E-4,2.290677221E-4,-6.872031372E-4,8.188258593E-4
2.609845384E0,-3.817795368E-4,8.399150101E-4,-6.872031372E-4,1.150417746E-3
2.612271218E0,1.450762269E-3,-1.603474026E-3,5.344913807E-4,2.227447227E-3
2.614697051E0,1.450762269E-3,1.450762269E-3,5.344913807E-4,2.120165880E-3
2.617122884E0,-3.817795368E-4,8.399150101E-4,5.344913807E-4,1.066252257E-3
2.619548770E0,8.399150101E-4,2.290677221E-4,-1.298050396E-3,1.562966435E-3
2.621974603E0,-3.817795368E-4,1.450762269E-3,-7.635590737E-5,1.502097534E-3
2.624400436E0,2.290677221E-4,2.290677221E-4,-1.298050396E-3,1.337863548E-3
2.626826322E0,1.450762269E-3,-3.817795368E-4,5.344913807E-4,1.592528748E-3
2.629252155E0,2.290677221E-4,8.399150101E-4,1.145338640E-3,1.438655569E-3
2.631677988E0,2.290677221E-4,8.399150101E-4,-7.635590737E-5,8.739333328E-4
2.634103822E0,8.399150101E-4,-3.817795368E-4,-6.872031372E-4,1.150417746E-3
2.636529707E0,-9.926267667E-4,8.399150101E-4,-7.635590737E-5,1.302534202E-3
2.638955541E0,-9.926267667E-4,2.290677221E-4,-7.635590737E-5,1.021572388E-3
2.641381374E0,-9.926267667E-4,8.399150101E-4,5.344913807E-4,1.405861358E-3
2.643807259E0,-1.603474026E-3,2.290677221E-4,-7.635590737E-5,1.621552095E-3
2.646233093E0,2.290677221E-4,-3.817795368E-4,-7.635590737E-5,4.517276399E-4
2.648658926E0,2.290677221E-4,-3.817795368E-4,-1.298050396E-3,1.372283669E-3
2.651084759E0,8.399150101E-4,8.399150101E-4,-1.298050396E-3,1.759502566E-3
2.653510645E0,1.450762269E-3,1.450762269E-3,-7.635590737E-5,2.053108021E-3
2.655936478E0,-3.817795368E-4,8.399150101E-4,-7.635590737E-5,9.257662035E-4
2.658362311E0,8.399150101E-4,2.290677221E-4,-1.298050396E-3,1.562966435E-3
2.660788197E0,2.290677221E-4,2.290677221E-4,-1.298050396E-3,1.337863548E-3
2.663214030E0,2.290677221E-4,-3.817795368E-4,-7.635590737E-5,4.517276399E-4
2.665639863E0,2.290677221E-4,8.399150101E-4,-7.635590737E-5,8.739333328E-4
2.668065749E0,2.290677221E-4,-9.926267667E-4,-6.872031372E-4,1.228831995E-3
2.670491582E0,2.290677221E-4,2.290677221E-4,-7.635590737E-5,3.328276840E-4
2.672917416E0,-1.603474026E-3,2.290677221E-4,-7.635590737E-5,1.621552095E-3
2.675343249E0,2.290677221E-4,2.290677221E-4,-6.872031372E-4,7.597316595E-4
2.677769134E0,-3.817795368E-4,-9.926267667E-4,-1.298050396E-3,1.678093664E-3
2.680194968E0,-1.603474026E-3,-3.817795368E-4,-1.298050396E-3,2.098051333E-3
2.682620801E0,2.290677221E-4,8.399150101E-4,5.344913807E-4,1.021572455E-3
2.685046686E0,-3.817795368E-4,8.399150101E-4,-7.635590737E-5,9.257662035E-4
2.687472520E0,8.399150101E-4,8.399150101E-4,-7.635590737E-5,1.190270840E-3
2.689898353E0,-3.817795368E-4,8.399150101E-4,-6.872031372E-4,1.150417746E-3
2.692324186E0,-3.817795368E-4,1.450762269E-3,-1.298050396E-3,1.983784668E-3
2.694750072E0,8.399150101E-4,2.290677221E-4,-7.635590737E-5,8.739333328E-4
2.697175905E0,8.399150101E-4,8.399150101E-4,1.145338640E-3,1.650065165E-3
2.699601738E0,-3.817795368E-4,2.290677221E-4,-1.298050396E-3,1.372283669E-3
2.702027624E0,8.399150101E-4,2.061609412E-3,-1.298050396E-3,2.576941098E-3
2.704453457E0,8.399150101E-4,8.399150101E-4,5.344913807E-4,1.302534255E-3
2.706879291E0,2.290677221E-4,-3.817795368E-4,5.344913807E-4,6.956354448E-4
2.709305124E0,2.290677221E-4,2.290677221E-4,5.344913807E-4,6.250000629E-4
2.711731009E0,-3.817795368E-4,2.290677221E-4,5.344913807E-4,6.956354448E-4
2.714156843E0,2.290677221E-4,-3.817795368E-4,5.344913807E-4,6.956354448E-4
2.716582676E0,1.450762269E-3,8.399150101E-4,-7.635590737E-5,1.678093743E-3
2.719008509E0,-9.926267667E-4,8.399150101E-4,1.756185899E-3,2.185166820E-3
2.721434395E0,-1.603474026E-3,8.399150101E-4,-6.872031372E-4,1.936190674E-3
2.723860228E0,2.290677221E-4,2.290677221E-4,5.344913807E-4,6.250000629E-4
2.726286061E0,-3.817795368E-4,8.399150101E-4,-7.635590737E-5,9.257662035E-4
2.728711947E0,2.290677221E-4,2.290677221E-4,-7.635590737E-5,3.328276840E-4
2.731137780E0,2.290677221E-4,2.290677221E-4,-7.635590737E-5,3.328276840E-4
2.733563613E0,-3.817795368E-4,7.635590737E-4,5.344913807E-4,1.007203609E-3
2.735989499E0,8.399150101E-4,1.527118147E-4,-7.635590737E-5,8.570929630E-4
2.738415332E0,-3.817795368E-4,1.374406274E-3,1.145338640E-3,1.829357489E-3
2.740841166E0,2.290677221E-4,1.374406274E-3,-7.635590737E-5,1.395455070E-3
2.743267051E0,-3.817795368E-4,1.527118147E-4,-7.635590737E-5,4.182185286E-4
2.745692884E0,8.399150101E-4,-4.581354442E-4,-6.872031372E-4,1.177961570E-3
2.748118718E0,-3.817795368E-4,1.527118147E-4,-6.872031372E-4,8.008274876E-4
2.750544551E0,-1.603474026E-3,7.635590737E-4,1.145338640E-3,2.113279917E-3
2.752970436E0,2.290677221E-4,1.527118147E-4,1.145338640E-3,1.177961595E-3
2.755396270E0,-3.817795368E-4,1.527118147E-4,5.344913807E-4,6.743571377E-4
2.757822103E0,2.290677221E-4,-4.581354442E-4,5.344913807E-4,7.402980093E-4
2.760247988E0,2.290677221E-4,7.635590737E-4,-7.635590737E-5,8.008275126E-4
2.762673822E0,2.290677221E-4,1.374406274E-3,-7.635590737E-5,1.395455070E-3
2.765099655E0,-3.817795368E-4,7.635590737E-4,-1.298050396E-3,1.553612855E-3
2.767525488E0,2.290677221E-4,7.635590737E-4,1.145338640E-3,1.395455151E-3
2.769951374E0,8.399150101E-4,1.527118147E-4,-6.872031372E-4,1.095913443E-3
2.772377207E0,2.290677221E-4,-4.581354442E-4,-7.635590737E-5,5.178709599E-4
2.774803041E0,-3.817795368E-4,1.374406274E-3,5.344913807E-4,1.523295525E-3
2.777228926E0,8.399150101E-4,1.527118147E-4,-7.635590737E-5,8.570929630E-4
2.779654759E0,-3.817795368E-4,-4.581354442E-4,-6.872031372E-4,9.098856257E-4
2.782080593E0,2.290677221E-4,1.527118147E-4,-6.872031372E-4,7.402979613E-4
2.784506478E0,-3.817795368E-4,1.527118147E-4,5.344913807E-4,6.743571377E-4
2.786932311E0,-3.817795368E-4,-4.581354442E-4,-7.635590737E-5,6.012270158E-4
2.789358145E0,2.290677221E-4,1.527118147E-4,-6.872031372E-4,7.402979613E-4
2.791783978E0,1.450762269E-3,-1.068982761E-3,-7.635590737E-5,1.803681105E-3
2.794209863E0,2.290677221E-4,-4.581354442E-4,5.344913807E-4,7.402980093E-4
2.796635697E0,-3.817795368E-4,7.635590737E-4,5.344913807E-4,1.007203609E-3
2.799061530E0,1.450762269E-3,-4.581354442E-4,5.344913807E-4,1.612538459E-3
2.801487416E0,2.290677221E-4,1.527118147E-4,-7.635590737E-5,2.856976448E-4
2.803913249E0,2.061609412E-3,-5.344913807E-4,-6.872031372E-4,2.237892436E-3
2.806339082E0,2.290677221E-4,7.635590737E-5,5.344913807E-4,5.865008797E-4
2.808764916E0,-3.817795368E-4,6.872031372E-4,1.145338640E-3,1.389173987E-3
2.811190801E0,-1.603474026E-3,1.298050396E-3,-6.872031372E-4,2.174468196E-3
2.813616634E0,-9.926267667E-4,1.298050396E-3,-7.635590737E-5,1.635870702E-3
2.816042468E0,2.290677221E-4,-1.145338640E-3,5.344913807E-4,1.284505219E-3
2.818468353E0,-3.817795368E-4,7.635590737E-5,-7.635590737E-5,3.967569331E-4
2.820894186E0,2.290677221E-4,-5.344913807E-4,-6.872031372E-4,9.002228664E-4
2.823320020E0,2.290677221E-4,1.298050396E-3,1.145338640E-3,1.746197999E-3
2.825745853E0,-3.817795368E-4,1.298050396E-3,1.756185899E-3,2.216952718E-3
2.828171738E0,2.290677221E-4,-5.344913807E-4,-7.635590737E-5,5.865008797E-4
2.830597572E0,-9.926267667E-4,-1.145338640E-3,5.344913807E-4,1.607105950E-3
2.833023405E0,-3.817795368E-4,7.635590737E-5,-1.298050396E-3,1.355182892E-3
2.835449291E0,-3.817795368E-4,-1.145338640E-3,-7.635590737E-5,1.209705104E-3
2.837875124E0,2.290677221E-4,1.298050396E-3,5.344913807E-4,1.422352941E-3
2.840300957E0,2.290677221E-4,6.872031372E-4,5.344913807E-4,9.002228664E-4
2.842726791E0,-9.926267667E-4,6.872031372E-4,-7.635590737E-5,1.209705036E-3
2.845152676E0,2.290677221E-4,6.872031372E-4,-7.635590737E-5,7.283889055E-4
2.847578509E0,-3.817795368E-4,7.635590737E-5,-7.635590737E-5,3.967569331E-4
2.850004343E0,2.290677221E-4,7.635590737E-5,-7.635590737E-5,2.532438953E-4
2.852430228E0,8.399150101E-4,-5.344913807E-4,-6.872031372E-4,1.209705093E-3
2.854856061E0,2.290677221E-4,-5.344913807E-4,-6.872031372E-4,9.002228664E-4
2.857281895E0,8.399150101E-4,7.635590737E-5,5.344913807E-4,9.984830919E-4
2.859707780E0,-3.817795368E-4,-1.145338640E-3,-7.635590737E-5,1.209705104E-3
2.862133613E0,-3.817795368E-4,7.635590737E-5,5.344913807E-4,6.612615786E-4
2.864559447E0,2.290677221E-4,-5.344913807E-4,-7.635590737E-5,5.865008797E-4
2.866985280E0,-3.817795368E-4,7.635590737E-5,5.344913807E-4,6.612615786E-4
2.869411166E0,-3.817795368E-4,1.298050396E-3,5.344913807E-4,1.454775406E-3
2.871836999E0,8.399150101E-4,7.635590737E-5,-6.872031372E-4,1.087904224E-3
2.874262832E0,-9.926267667E-4,-5.344913807E-4,-7.635590737E-5,1.129964229E-3
2.876688718E0,2.290677221E-4,-1.145338640E-3,1.145338640E-3,1.635870783E-3
2.879114551E0,-9.926267667E-4,1.221694518E-3,5.344913807E-4,1.662385764E-3
2.881540384E0,-3.817795368E-4,6.108472589E-4,-1.298050396E-3,1.484528484E-3
2.883966270E0,2.290677221E-4,-6.108472589E-4,5.344913807E-4,8.433785811E-4
2.886392103E0,-3.817795368E-4,0.000000000E0,1.145338640E-3,1.207292928E-3
2.888817936E0,8.399150101E-4,0.000000000E0,5.344913807E-4,9.955592701E-4
2.891243770E0,8.399150101E-4,1.221694518E-3,1.145338640E-3,1.873444773E-3
2.893669655E0,-9.926267667E-4,6.108472589E-4,1.145338640E-3,1.634087779E-3
2.896095488E0,2.061609412E-3,-1.221694518E-3,5.344913807E-4,2.455290593E-3
2.898521322E0,8.399150101E-4,0.000000000E0,-7.635590737E-5,8.433785917E-4
2.900947155E0,8.399150101E-4,-6.108472589E-4,-7.635590737E-5,1.041355762E-3
2.903373041E0,2.290677221E-4,0.000000000E0,1.145338640E-3,1.168020813E-3
2.905798874E0,-9.926267667E-4,-6.108472589E-4,5.344913807E-4,1.282233718E-3
2.908224707E0,8.399150101E-4,0.000000000E0,-1.908897655E-3,2.085508926E-3
2.910650593E0,2.290677221E-4,0.000000000E0,1.756185899E-3,1.771062091E-3
2.913076426E0,-3.817795368E-4,-6.108472589E-4,5.344913807E-4,8.969788317E-4
2.915502259E0,-1.603474026E-3,-1.221694518E-3,1.756185899E-3,2.673547336E-3
2.917928145E0,8.399150101E-4,6.108472589E-4,5.344913807E-4,1.168020819E-3
2.920353978E0,8.399150101E-4,0.000000000E0,1.145338640E-3,1.420302018E-3
2.922779811E0,2.290677221E-4,-6.108472589E-4,-6.872031372E-4,9.475518703E-4
2.925205645E0,-3.817795368E-4,-6.108472589E-4,1.756185899E-3,1.898177784E-3
2.927631530E0,-1.603474026E-3,0.000000000E0,-7.635590737E-5,1.605290994E-3
2.930057363E0,-3.817795368E-4,-1.221694518E-3,-7.635590737E-5,1.282233728E-3
2.932483197E0,2.290677221E-4,6.108472589E-4,5.344913807E-4,8.433785811E-4
2.934909082E0,-3.817795368E-4,0.000000000E0,5.344913807E-4,6.568383749E-4
2.937334916E0,1.450762269E-3,-6.108472589E-4,5.344913807E-4,1.662385807E-3
2.939760749E0,8.399150101E-4,0.000000000E0,1.145338640E-3,1.420302018E-3
2.942186582E0,2.061609412E-3,-1.221694518E-3,-7.635590737E-5,2.397624050E-3
2.944612468E0,2.290677221E-4,-0.000000000E0,-7.635590737E-5,2.414585801E-4
2.947038301E0,2.290677221E-4,6.108472589E-4,-6.872031372E-4,9.475518703E-4
2.949464134E0,2.290677221E-4,6.108472589E-4,-7.635590737E-5,6.568383512E-4
2.951890020E0,2.290677221E-4,-0.000000000E0,5.344913807E-4,5.815092926E-4
2.954315853E0,-9.926267667E-4,-1.221694518E-3,-7.635590737E-5,1.575968152E-3
2.956741686E0,-3.817795368E-4,-0.000000000E0,5.344913807E-4,6.568383749E-4
2.959167520E0,-3.817795368E-4,-1.832541777E-3,-6.872031372E-4,1.994044415E-3
2.961593405E0,2.290677221E-4,-6.108472589E-4,-6.872031372E-4,9.475518703E-4
2.964019238E0,-3.817795368E-4,-0.000000000E0,-2.519744914E-3,2.548503492E-3
2.966445072E0,2.290677221E-4,-1.221694518E-3,-1.908897655E-3,2.277915664E-3
2.968870957E0,1.450762269E-3,-0.000000000E0,-7.635590737E-5,1.452770245E-3
2.971296791E0,-9.926267667E-4,6.108472589E-4,1.756185899E-3,2.107755010E-3
2.973722624E0,8.399150101E-4,-6.108472589E-4,5.344913807E-4,1.168020819E-3
2.976148509E0,-3.817795368E-4,-0.000000000E0,-1.298050396E-3,1.353030098E-3
2.978574343E0,-3.817795368E-4,-6.108472589E-4,1.145338640E-3,1.353030150E-3
2.981000176E0,-9.926267667E-4,1.221694518E-3,5.344913807E-4,1.662385764E-3
2.983426009E0,-1.603474026E-3,6.108472589E-4,1.145338640E-3,2.063023006E-3
2.985851895E0,-2.214321401E-3,-0.000000000E0,1.068982761E-3,2.458850018E-3
2.988277728E0,2.290677221E-4,-0.000000000E0,4.581354442E-4,5.122109981E-4
2.990703561E0,-3.817795368E-4,6.108472589E-4,4.581354442E-4,8.536849968E-4
2.993129447E0,-3.817795368E-4,-6.108472589E-4,-1.527118147E-4,7.363497042E-4
2.995555280E0,8.399150101E-4,-6.108472589E-4,-1.527118147E-4,1.049720199E-3
2.997981113E0,2.290677221E-4,-6.108472589E-4,-7.635590737E-4,1.004305160E-3
3.000406947E0,2.290677221E-4,-0.000000000E0,4.581354442E-4,5.122109981E-4
3.002832832E0,2.290677221E-4,-0.000000000E0,-7.635590737E-4,7.971790767E-4
3.005258666E0,2.290677221E-4,-6.108472589E-4,-1.527118147E-4,6.700203679E-4
3.007684499E0,8.399150101E-4,-6.108472589E-4,1.068982761E-3,1.490407911E-3
3.010110384E0,1.450762269E-3,0.000000000E0,4.581354442E-4,1.521380704E-3
3.012536218E0,8.399150101E-4,0.000000000E0,4.581354442E-4,9.567368026E-4
3.014962051E0,8.399150101E-4,-6.108472589E-4,-1.527118147E-4,1.049720199E-3
3.017387884E0,-1.603474026E-3,-1.221694518E-3,4.581354442E-4,2.067257732E-3
3.019813770E0,-3.817795368E-4,0.000000000E0,4.581354442E-4,5.963587008E-4
3.022239603E0,-3.817795368E-4,0.000000000E0,-7.635590737E-4,8.536849968E-4
3.024665436E0,-9.926267667E-4,0.000000000E0,-1.527118147E-4,1.004305131E-3
3.027091322E0,-1.603474026E-3,6.108472589E-4,4.581354442E-4,1.775993077E-3
3.029517155E0,-3.817795368E-4,6.108472589E-4,-7.635590737E-4,1.049720176E-3
3.031942988E0,8.399150101E-4,0.000000000E0,4.581354442E-4,9.567368026E-4
3.034368874E0,1.450762269E-3,0.000000000E0,4.581354442E-4,1.521380704E-3
3.036794707E0,-9.926267667E-4,1.832541777E-3,-1.527118147E-4,2.089698103E-3
3.039220541E0,-3.817795368E-4,0.000000000E0,-1.527118147E-4,4.111891452E-4
3.041646374E0,2.290677221E-4,-1.221694518E-3,-1.374406274E-3,1.853106075E-3
3.044072259E0,-3.817795368E-4,6.108472589E-4,-1.527118147E-4,7.363497042E-4
3.046498093E0,-3.817795368E-4,-6.108472589E-4,4.581354442E-4,8.536849968E-4
3.048923926E0,-9.926267667E-4,0.000000000E0,4.581354442E-4,1.093250192E-3
3.051349811E0,8.399150101E-4,6.108472589E-4,4.581354442E-4,1.135112190E-3
3.053775645E0,-9.926267667E-4,-6.108472589E-4,-1.527118147E-4,1.175484228E-3
3.056201478E0,2.290677221E-4,6.108472589E-4,-7.635590737E-4,1.004305160E-3
3.058627311E0,-3.817795368E-4,6.108472589E-4,-7.635590737E-4,1.049720176E-3
3.061053197E0,-3.817795368E-4,0.000000000E0,-7.635590737E-4,8.536849968E-4
3.063479030E0,2.290677221E-4,-1.221694518E-3,4.581354442E-4,1.324725482E-3
3.065904863E0,8.399150101E-4,0.000000000E0,1.068982761E-3,1.359478344E-3
3.068330749E0,2.290677221E-4,-6.108472589E-4,-1.527118147E-4,6.700203679E-4
3.070756582E0,-3.817795368E-4,0.000000000E0,-1.527118147E-4,4.111891452E-4
3.073182416E0,8.399150101E-4,1.221694518E-3,-1.527118147E-4,1.490407870E-3
3.075608301E0,-3.817795368E-4,6.108472589E-4,1.068982761E-3,1.289036125E-3
3.078034134E0,-3.817795368E-4,-6.108472589E-4,-7.635590737E-4,1.049720176E-3
3.080459968E0,-9.926267667E-4,0.000000000E0,-1.527118147E-4,1.004305131E-3
3.082885801E0,-9.926267667E-4,0.000000000E0,4.581354442E-4,1.093250192E-3
3.085311686E0,8.399150101E-4,-6.108472589E-4,4.581354442E-4,1.135112190E-3
3.087737520E0,8.399150101E-4,0.000000000E0,-7.635590737E-4,1.135112190E-3
3.090163353E0,2.290677221E-4,1.221694518E-3,-1.985253533E-3,2.342272637E-3
3.092589238E0,-3.817795368E-4,6.108472589E-4,-7.635590737E-4,1.049720176E-3
3.095015072E0,8.399150101E-4,0.000000000E0,-1.527118147E-4,8.536850254E-4
3.097440905E0,8.399150101E-4,0.000000000E0,-1.527118147E-4,8.536850254E-4
3.099866791E0,1.450762269E-3,6.108472589E-4,-1.527118147E-4,1.581507646E-3
3.102292624E0,8.399150101E-4,0.000000000E0,4.581354442E-4,9.567368026E-4
3.104718457E0,2.290677221E-4,-6.108472589E-4,-7.635590737E-4,1.004305160E-3
3.107144291E0,2.290677221E-4,0.000000000E0,4.581354442E-4,5.122109981E-4
3.109570176E0,8.399150101E-4,6.108472589E-4,-1.527118147E-4,1.049720199E-3
3.111996009E0,2.290677221E-4,-6.108472589E-4,-7.635590737E-4,1.004305160E-3
3.114421843E0,2.290677221E-4,0.000000000E0,-1.527118147E-4,2.753051392E-4
3.116847728E0,2.290677221E-4,0.000000000E0,4.581354442E-4,5.122109981E-4
3.119273561E0,-9.926267667E-4,0.000000000E0,-1.374406274E-3,1.695376213E-3
3.121699395E0,-9.926267667E-4,0.000000000E0,-7.635590737E-4,1.252329971E-3
3.124125228E0,2.290677221E-4,6.108472589E-4,-1.527118147E-4,6.700203679E-4
3.126551113E0,-9.926267667E-4,0.000000000E0,-7.635590737E-4,1.252329971E-3
3.128976947E0,-9.926267667E-4,0.000000000E0,4.581354442E-4,1.093250192E-3
3.131402780E0,2.290677221E-4,-6.108472589E-4,-7.635590737E-4,1.004305160E-3
3.133828666E0,-1.603474026E-3,-6.108472589E-4,4.581354442E-4,1.775993077E-3
3.136254499E0,8.399150101E-4,-1.832541777E-3,-1.527118147E-4,2.021629908E-3
3.138680332E0,-3.817795368E-4,0.000000000E0,4.581354442E-4,5.963587008E-4
3.141106166E0,-3.817795368E-4,0.000000000E0,4.581354442E-4,5.963587008E-4
3.143532051E0,2.290677221E-4,0.000000000E0,4.581354442E-4,5.122109981E-4
3.145957884E0,-9.926267667E-4,6.108472589E-4,-7.635590737E-4,1.393364536E-3
3.148383718E0,2.290677221E-4,6.108472589E-4,4.581354442E-4,7.971790767E-4
3.150809603E0,-3.817795368E-4,0.000000000E0,-1.527118147E-4,4.111891452E-4
3.153235436E0,8.399150101E-4,6.108472589E-4,1.068982761E-3,1.490407911E-3
3.155661270E0,1.450762269E-3,0.000000000E0,1.068982761E-3,1.802064179E-3
3.158087103E0,2.290677221E-4,0.000000000E0,-1.527118147E-4,2.753051392E-4
3.160512988E0,-3.817795368E-4,0.000000000E0,4.581354442E-4,5.963587008E-4
3.162938822E0,1.450762269E-3,0.000000000E0,-1.374406274E-3,1.998425322E-3
3.165364655E0,-3.817795368E-4,-6.108472589E-4,1.068982761E-3,1.289036125E-3
3.167790541E0,-3.817795368E-4,0.000000000E0,-7.635590737E-4,8.536849968E-4
3.170216374E0,2.290677221E-4,0.000000000E0,-7.635590737E-4,7.971790767E-4
3.172642207E0,-1.603474026E-3,1.221694518E-3,-7.635590737E-4,2.155617987E-3
3.175068093E0,1.450762269E-3,0.000000000E0,-1.527118147E-4,1.458777591E-3
3.177493926E0,1.450762269E-3,6.108472589E-4,-7.635590737E-4,1.749533650E-3
3.179919759E0,2.290677221E-4,0.000000000E0,-1.374406274E-3,1.393364499E-3
3.182345645E0,-3.817795368E-4,-6.108472589E-4,-7.635590737E-4,1.049720176E-3
3.184771478E0,8.399150101E-4,0.000000000E0,-7.635590737E-4,1.135112190E-3
3.187197311E0,8.399150101E-4,6.108472589E-4,1.068982761E-3,1.490407911E-3
3.189623145E0,8.399150101E-4,-6.108472589E-4,4.581354442E-4,1.135112190E-3
3.192049030E0,-3.817795368E-4,0.000000000E0,-7.635590737E-4,8.536849968E-4
3.194474863E0,2.290677221E-4,0.000000000E0,-1.527118147E-4,2.753051392E-4
3.196900697E0,-1.603474026E-3,-6.108472589E-4,4.581354442E-4,1.775993077E-3
3.199326582E0,-2.214321401E-3,1.832541777E-3,-1.527118147E-4,2.878324083E-3
3.201752416E0,8.399150101E-4,0.000000000E0,4.581354442E-4,9.567368026E-4
3.204178249E0,8.399150101E-4,-6.108472589E-4,1.068982761E-3,1.490407911E-3
3.206604082E0,-9.926267667E-4,-6.108472589E-4,-1.527118147E-4,1.175484228E-3
3.209029968E0,-9.926267667E-4,-1.221694518E-3,1.068982761E-3,1.902779424E-3
3.211455801E0,-1.603474026E-3,6.108472589E-4,4.581354442E-4,1.775993077E-3
3.213881634E0,8.399150101E-4,0.000000000E0,4.581354442E-4,9.567368026E-4
3.216307520E0,-9.926267667E-4,0.000000000E0,-7.635590737E-4,1.252329971E-3
3.218733353E0,2.290677221E-4,1.832541777E-3,-1.374406274E-3,2.302102081E-3
3.221159186E0,8.399150101E-4,-6.108472589E-4,-7.635590737E-4,1.289036096E-3
3.223585072E0,2.290677221E-4,0.000000000E0,-7.635590737E-4,7.971790767E-4
3.226010905E0,-9.926267667E-4,6.108472589E-4,-1.527118147E-4,1.175484228E-3
3.228436738E0,-9.926267667E-4,6.108472589E-4,-1.527118147E-4,1.175484228E-3
3.230862572E0,-3.817795368E-4,1.221694518E-3,-7.635590737E-4,1.490407853E-3
3.233288457E0,-3.817795368E-4,-6.108472589E-4,-1.374406274E-3,1.551735350E-3
3.235714291E0,-9.926267667E-4,-1.221694518E-3,4.581354442E-4,1.639430840E-3
3.238140124E0,-1.603474026E-3,-6.108472589E-4,-1.374406274E-3,2.198466723E-3
3.240566009E0,-3.817795368E-4,6.108472589E-4,1.679830020E-3,1.827763356E-3
3.242991843E0,-3.817795368E-4,6.108472589E-4,4.581354442E-4,8.536849968E-4
3.245417676E0,8.399150101E-4,1.832541777E-3,4.581354442E-4,2.067257767E-3
3.247843509E0,2.290677221E-4,6.108472589E-4,-7.635590737E-4,1.004305160E-3
3.250269395E0,-9.926267667E-4,1.221694518E-3,-7.635590737E-4,1.749533610E-3
3.252695228E0,-3.817795368E-4,1.221694518E-3,1.068982761E-3,1.667638226E-3
3.255121061E0,-3.817795368E-4,0.000000000E0,1.068982761E-3,1.135112223E-3
3.257546947E0,8.399150101E-4,0.000000000E0,-1.527118147E-4,8.536850254E-4
3.259972780E0,2.290677221E-4,-6.108472589E-4,-7.635590737E-4,1.004305160E-3
3.262398613E0,-3.817795368E-4,6.108472589E-4,4.581354442E-4,8.536849968E-4
3.264824447E0,2.290677221E-4,0.000000000E0,1.679830020E-3,1.695376335E-3
3.267250332E0,-9.926267667E-4,0.000000000E0,4.581354442E-4,1.093250192E-3
3.269676166E0,-9.926267667E-4,6.108472589E-4,-7.635590737E-4,1.393364536E-3
3.272101999E0,2.290677221E-4,-1.221694518E-3,4.581354442E-4,1.324725482E-3
3.274527884E0,-3.817795368E-4,-6.108472589E-4,-7.635590737E-4,1.049720176E-3
3.276953718E0,2.290677221E-4,0.000000000E0,-1.374406274E-3,1.393364499E-3
3.279379551E0,2.290677221E-4,6.108472589E-4,-1.527118147E-4,6.700203679E-4
3.281805436E0,2.290677221E-4,6.108472589E-4,4.581354442E-4,7.971790767E-4
3.284231270E0,-3.817795368E-4,0.000000000E0,1.068982761E-3,1.135112223E-3
3.286657103E0,2.290677221E-4,1.221694518E-3,4.581354442E-4,1.324725482E-3
3.289082936E0,-3.817795368E-4,6.108472589E-4,4.581354442E-4,8.536849968E-4
3.291508822E0,-3.817795368E-4,0.000000000E0,-1.527118147E-4,4.111891452E-4
3.293934655E0,8.399150101E-4,-6.108472589E-4,4.581354442E-4,1.135112190E-3
3.296360488E0,2.290677221E-4,-6.108472589E-4,4.581354442E-4,7.971790767E-4
3.298786374E0,8.399150101E-4,6.108472589E-4,1.068982761E-3,1.490407911E-3
3.301212207E0,1.450762269E-3,-6.108472589E-4,1.068982761E-3,1.902779462E-3
3.303638041E0,2.290677221E-4,6.108472589E-4,4.581354442E-4,7.971790767E-4
3.306063874E0,8.399150101E-4,-1.221694518E-3,-1.527118147E-4,1.490407870E-3
3.308489759E0,2.290677221E-4,1.832541777E-3,-1.527118147E-4,1.853106118E-3
3.310915593E0,8.399150101E-4,1.221694518E-3,4.581354442E-4,1.551735417E-3
3.313341426E0,-3.817795368E-4,6.108472589E-4,4.581354442E-4,8.536849968E-4
3.315767311E0,-3.817795368E-4,6.108472589E-4,4.581354442E-4,8.536849968E-4
3.318193145E0,2.290677221E-4,-0.000000000E0,4.581354442E-4,5.122109981E-4
3.320618978E0,2.290677221E-4,-6.108472589E-4,4.581354442E-4,7.971790767E-4
3.323044863E0,2.290677221E-4,-1.221694518E-3,-7.635590737E-4,1.458777562E-3
3.325470697E0,-3.817795368E-4,-0.000000000E0,1.068982761E-3,1.135112223E-3
3.327896530E0,-3.817795368E-4,-6.108472589E-4,-7.635590737E-4,1.049720176E-3
3.330322416E0,8.399150101E-4,-1.221694518E-3,4.581354442E-4,1.551735417E-3
3.332748249E0,2.290677221E-4,6.108472589E-4,4.581354442E-4,7.971790767E-4
3.335174082E0,2.290677221E-4,-0.000000000E0,2.290677279E-3,2.302102174E-3
3.337599916E0,-3.817795368E-4,6.108472589E-4,4.581354442E-4,8.536849968E-4
3.340025801E0,-3.817795368E-4,-6.108472589E-4,-7.635590737E-4,1.049720176E-3
3.342451634E0,2.290677221E-4,-0.000000000E0,4.581354442E-4,5.122109981E-4
3.344877468E0,2.290677221E-4,-6.108472589E-4,1.068982761E-3,1.252330044E-3
3.347303353E0,-9.926267667E-4,-1.221694518E-3,4.581354442E-4,1.639430840E-3
3.349729186E0,-9.926267667E-4,-6.108472589E-4,1.068982761E-3,1.581507640E-3
3.352155020E0,2.290677221E-4,-1.221694518E-3,-1.527118147E-4,1.252329994E-3
3.354580853E0,-3.817795368E-4,6.108472589E-4,-1.527118147E-4,7.363497042E-4
3.357006738E0,-9.926267667E-4,-0.000000000E0,1.068982761E-3,1.458777585E-3
3.359432572E0,2.290677221E-4,-1.221694518E-3,-7.635590737E-4,1.458777562E-3
3.361858405E0,2.290677221E-4,6.108472589E-4,4.581354442E-4,7.971790767E-4
3.364284291E0,-9.926267667E-4,-0.000000000E0,1.068982761E-3,1.458777585E-3
3.366710124E0,-9.926267667E-4,-0.000000000E0,2.290677279E-3,2.496499609E-3
3.369135957E0,-9.926267667E-4,-1.832541777E-3,-1.527118147E-4,2.089698103E-3
3.371561843E0,2.290677221E-4,-1.221694518E-3,-1.527118147E-4,1.252329994E-3
3.373987676E0,8.399150101E-4,-1.221694518E-3,-1.985253533E-3,2.477746216E-3
3.376413509E0,2.290677221E-4,1.221694518E-3,-1.527118147E-4,1.252329994E-3
3.378839395E0,-9.926267667E-4,1.221694518E-3,-1.527118147E-4,1.581507601E-3
3.381265228E0,-1.603474026E-3,-0.000000000E0,-1.527118147E-4,1.610729602E-3
3.383691061E0,2.290677221E-4,-6.108472589E-4,-1.527118147E-4,6.700203679E-4
3.386116895E0,1.450762269E-3,-0.000000000E0,2.290677279E-3,2.711441233E-3
3.388542780E0,-1.603474026E-3,-0.000000000E0,1.679830020E-3,2.322274284E-3
3.390968613E0,-9.926267667E-4,-0.000000000E0,-7.635590737E-4,1.252329971E-3
3.393394447E0,-3.817795368E-4,-0.000000000E0,-1.527118147E-4,4.111891452E-4
3.395820280E0,-3.817795368E-4,6.108472589E-4,-1.527118147E-4,7.363497042E-4
3.398246166E0,-9.926267667E-4,-6.108472589E-4,-1.527118147E-4,1.175484228E-3
3.400671999E0,2.290677221E-4,6.108472589E-4,-1.527118147E-4,6.700203679E-4
3.403097832E0,-3.817795368E-4,-6.108472589E-4,1.068982761E-3,1.289036125E-3
3.405523718E0,-3.817795368E-4,1.221694518E-3,1.679830020E-3,2.111900094E-3
3.407949551E0,-3.817795368E-4,1.221694518E-3,1.068982761E-3,1.667638226E-3
3.410375384E0,-3.817795368E-4,-1.221694518E-3,4.581354442E-4,1.359478280E-3
3.412801270E0,8.399150101E-4,-0.000000000E0,-1.374406274E-3,1.610729596E-3
3.415227103E0,2.290677221E-4,-1.221694518E-3,-1.527118147E-4,1.252329994E-3
3.417652936E0,-3.054236295E-4,-0.000000000E0,-1.374406274E-3,1.407933308E-3
3.420078770E0,-3.054236295E-4,6.108472589E-4,1.068982761E-3,1.268519653E-3
3.422504655E0,-3.054236295E-4,-6.108472589E-4,-7.635590737E-4,1.024421996E-3
3.424930488E0,3.054236295E-4,6.108472589E-4,4.581354442E-4,8.223782903E-4
3.427356322E0,9.162708884E-4,-6.108472589E-4,4.581354442E-4,1.192717402E-3
3.429782207E0,9.162708884E-4,-6.108472589E-4,-7.635590737E-4,1.340040736E-3
3.432208041E0,3.054236295E-4,-6.108472589E-4,-7.635590737E-4,1.024421996E-3
3.434633874E0,9.162708884E-4,-0.000000000E0,-1.527118147E-4,9.289097046E-4
3.437059759E0,3.054236295E-4,-2.443389036E-3,-7.635590737E-4,2.578072154E-3
3.439485593E0,-9.162708884E-4,-0.000000000E0,4.581354442E-4,1.024421996E-3
3.441911426E0,-9.162708884E-4,-1.221694518E-3,1.068982761E-3,1.864085293E-3
3.444337259E0,9.162708884E-4,-6.108472589E-4,4.581354442E-4,1.192717402E-3
3.446763145E0,-9.162708884E-4,6.108472589E-4,-2.290677221E-4,1.124792752E-3
3.449188978E0,-3.054236295E-4,-0.000000000E0,-8.399150101E-4,8.937230095E-4
3.451614811E0,-9.162708884E-4,6.108472589E-4,3.817795368E-4,1.165522342E-3
3.454040697E0,9.162708884E-4,-0.000000000E0,-2.290677221E-4,9.444704136E-4
3.456466530E0,3.054236295E-4,-6.108472589E-4,9.926267667E-4,1.204875871E-3
3.458892363E0,9.162708884E-4,-0.000000000E0,-8.399150101E-4,1.242984137E-3
3.461318249E0,9.162708884E-4,-6.108472589E-4,-2.290677221E-4,1.124792752E-3
3.463744082E0,9.162708884E-4,-1.221694518E-3,-8.399150101E-4,1.742856007E-3
3.466169916E0,-1.527118147E-3,-1.221694518E-3,9.926267667E-4,2.193156453E-3
3.468595749E0,-9.162708884E-4,-0.000000000E0,-8.399150101E-4,1.242984137E-3
3.471021634E0,3.054236295E-4,1.221694518E-3,-2.290677221E-4,1.279958245E-3
3.473447468E0,2.137965523E-3,-6.108472589E-4,3.817795368E-4,2.256055532E-3
3.475873301E0,-3.054236295E-4,-0.000000000E0,-1.450762269E-3,1.482563575E-3
3.478299186E0,3.054236295E-4,-0.000000000E0,-1.450762269E-3,1.482563575E-3
3.480725020E0,-3.054236295E-4,-0.000000000E0,-8.399150101E-4,8.937230095E-4
3.483150853E0,1.527118147E-3,6.108472589E-4,-1.450762269E-3,2.193156486E-3
3.485576686E0,9.162708884E-4,-0.000000000E0,3.817795368E-4,9.926267958E-4
3.488002572E0,-3.054236295E-4,-0.000000000E0,-2.290677221E-4,3.817795368E-4
3.490428405E0,-3.054236295E-4,6.108472589E-4,-2.290677221E-4,7.203401894E-4
3.492854238E0,-3.054236295E-4,-0.000000000E0,-1.450762269E-3,1.482563575E-3
3.495280124E0,3.054236295E-4,-6.108472589E-4,-2.290677221E-4,7.203401894E-4
3.497705957E0,-3.054236295E-4,-0.000000000E0,-2.290677221E-4,3.817795368E-4
3.500131791E0,-3.054236295E-4,0.000000000E0,-8.399150101E-4,8.937230095E-4
3.502557676E0,3.054236295E-4,-1.221694518E-3,-2.290677221E-4,1.279958245E-3
3.504983509E0,3.054236295E-4,0.000000000E0,-2.290677221E-4,3.817795368E-4
3.507409343E0,3.054236295E-4,0.000000000E0,-1.450762269E-3,1.482563575E-3
3.509835176E0,-3.054236295E-4,-1.221694518E-3,3.817795368E-4,1.315893880E-3
3.512261061E0,9.162708884E-4,-1.221694518E-3,3.817795368E-4,1.574117356E-3
3.514686895E0,3.054236295E-4,-1.221694518E-3,1.603474026E-3,2.038859985E-3
3.517112728E0,3.054236295E-4,-6.108472589E-4,3.817795368E-4,7.824152235E-4
3.519538613E0,3.054236295E-4,1.221694518E-3,9.926267667E-4,1.603474037E-3
3.521964447E0,-3.054236295E-4,0.000000000E0,-8.399150101E-4,8.937230095E-4
3.524390280E0,-9.162708884E-4,-6.108472589E-4,-8.399150101E-4,1.384970736E-3
3.526816113E0,-9.162708884E-4,-6.108472589E-4,-8.399150101E-4,1.384970736E-3
3.529241999E0,-1.527118147E-3,-1.221694518E-3,-2.061609412E-3,2.841629937E-3
3.531667832E0,-3.054236295E-4,0.000000000E0,3.817795368E-4,4.889163611E-4
3.534093666E0,-3.054236295E-4,6.108472589E-4,9.926267667E-4,1.204875871E-3
3.536519551E0,-9.162708884E-4,0.000000000E0,-8.399150101E-4,1.242984137E-3
3.538945384E0,9.162708884E-4,-1.221694518E-3,-2.061609412E-3,2.565603867E-3
3.541371218E0,3.054236295E-4,1.221694518E-3,-1.450762269E-3,1.921075805E-3
3.543797103E0,-2.137965523E-3,1.221694518E-3,-2.290677221E-4,2.473035805E-3
3.546222936E0,3.054236295E-4,6.108472589E-4,-8.399150101E-4,1.082531843E-3
3.548648770E0,9.162708884E-4,0.000000000E0,-2.061609412E-3,2.256055342E-3
3.551074655E0,9.162708884E-4,-6.108472589E-4,-8.399150101E-4,1.384970736E-3
3.553500488E0,1.527118147E-3,0.000000000E0,3.817795368E-4,1.574117356E-3
3.555926322E0,-9.162708884E-4,6.108472589E-4,-8.399150101E-4,1.384970736E-3
3.558352155E0,-1.527118147E-3,-5.344913807E-4,-2.290677221E-4,1.634087786E-3
3.560778041E0,-3.054236295E-4,-1.145338640E-3,-2.290677221E-4,1.207292928E-3
3.563203874E0,3.054236295E-4,-5.344913807E-4,3.817795368E-4,7.243757617E-4
3.565629707E0,3.054236295E-4,-1.756185899E-3,-8.399150101E-4,1.970515092E-3
3.568055593E0,-9.162708884E-4,-5.344913807E-4,-8.399150101E-4,1.353030155E-3
3.570481426E0,-3.054236295E-4,-5.344913807E-4,3.817795368E-4,7.243757617E-4
3.572907259E0,-3.054236295E-4,6.872031372E-4,3.817795368E-4,8.433785390E-4
3.575333145E0,3.054236295E-4,7.635590737E-5,1.603474026E-3,1.634087748E-3
3.577758978E0,-3.054236295E-4,-5.344913807E-4,3.817795368E-4,7.243757617E-4
3.580184811E0,1.527118147E-3,6.872031372E-4,-1.450762269E-3,2.215637414E-3
3.582610645E0,3.054236295E-4,7.635590737E-5,-1.450762269E-3,1.484528538E-3
3.585036530E0,-9.162708884E-4,6.872031372E-4,1.603474026E-3,1.970515020E-3
3.587462363E0,-3.054236295E-4,6.872031372E-4,9.926267667E-4,1.245327123E-3
3.589888197E0,9.162708884E-4,6.872031372E-4,4.581354442E-4,1.233567419E-3
3.592314082E0,3.054236295E-4,6.872031372E-4,4.581354442E-4,8.805792585E-4
3.594739916E0,9.162708884E-4,7.635590737E-5,-7.635590737E-4,1.195158996E-3
3.597165749E0,3.054236295E-4,-1.145338640E-3,-1.374406274E-3,1.814959173E-3
3.599591582E0,-1.527118147E-3,6.872031372E-4,-7.635590737E-4,1.840478320E-3
3.602017468E0,9.162708884E-4,-1.756185899E-3,-1.374406274E-3,2.410961190E-3
3.604443301E0,1.527118147E-3,-2.367033157E-3,-1.527118147E-4,2.821038231E-3
3.606869134E0,1.527118147E-3,-5.344913807E-4,-1.527118147E-4,1.625143615E-3
3.609295020E0,9.162708884E-4,-1.145338640E-3,4.581354442E-4,1.536633016E-3
3.611720853E0,3.054236295E-4,7.635590737E-5,1.068982761E-3,1.114377836E-3
3.614146686E0,2.137965523E-3,-5.344913807E-4,-7.635590737E-4,2.332295022E-3
3.616572572E0,9.162708884E-4,7.635590737E-5,-1.374406274E-3,1.653594622E-3
3.618998405E0,3.054236295E-4,-1.756185899E-3,-1.527118147E-4,1.789076131E-3
3.621424238E0,9.162708884E-4,-5.344913807E-4,-1.374406274E-3,1.736152638E-3
3.623850072E0,-1.527118147E-3,7.635590737E-5,-1.527118147E-4,1.536632994E-3
3.626275957E0,-3.054236295E-4,-5.344913807E-4,-1.527118147E-4,6.342598267E-4
3.628701791E0,9.162708884E-4,-5.344913807E-4,-1.374406274E-3,1.736152638E-3
3.631127624E0,-9.162708884E-4,6.872031372E-4,-7.635590737E-4,1.376525681E-3
3.633553509E0,-3.054236295E-4,6.872031372E-4,-7.635590737E-4,1.071706212E-3
3.635979343E0,-3.054236295E-4,-5.344913807E-4,-1.527118147E-4,6.342598267E-4
3.638405176E0,-1.527118147E-3,6.872031372E-4,4.581354442E-4,1.736152664E-3
3.640831061E0,-2.137965523E-3,-5.344913807E-4,-7.635590737E-4,2.332295022E-3
3.643256895E0,3.054236295E-4,6.872031372E-4,4.581354442E-4,8.805792585E-4
3.645682728E0,3.054236295E-4,7.635590737E-5,4.581354442E-4,5.558793963E-4
3.648108561E0,3.054236295E-4,-2.367033157E-3,-7.635590737E-4,2.505823621E-3
3.650534447E0,3.054236295E-4,7.635590737E-5,-7.635590737E-4,8.259154176E-4
3.652960280E0,3.054236295E-4,-5.344913807E-4,1.068982761E-3,1.233567499E-3
3.655386113E0,9.162708884E-4,-5.344913807E-4,-1.527118147E-4,1.071706245E-3
3.657811999E0,3.054236295E-4,-1.756185899E-3,-1.374406274E-3,2.250880963E-3
3.660237832E0,-9.162708884E-4,7.635590737E-5,4.581354442E-4,1.027263671E-3
3.662663666E0,-3.054236295E-4,7.635590737E-5,4.581354442E-4,5.558793963E-4
3.665089551E0,9.162708884E-4,-1.145338640E-3,4.581354442E-4,1.536633016E-3
3.667515384E0,3.054236295E-4,1.527118147E-4,4.581354442E-4,5.713952897E-4
3.669941218E0,1.527118147E-3,7.635590737E-4,1.068982761E-3,2.014407218E-3
3.672367051E0,9.162708884E-4,1.527118147E-4,4.581354442E-4,1.035741920E-3
3.674792936E0,3.054236295E-4,-4.581354442E-4,-7.635590737E-5,5.558793963E-4
3.677218770E0,1.527118147E-3,1.374406274E-3,1.145338640E-3,2.352208121E-3
3.679644603E0,1.527118147E-3,1.374406274E-3,-7.635590737E-5,2.055945687E-3
3.682070488E0,3.054236295E-4,1.527118147E-4,-6.872031372E-4,7.673673459E-4
3.684496322E0,-9.162708884E-4,1.527118147E-4,-7.635590737E-5,9.320426299E-4
3.686922155E0,1.527118147E-3,7.635590737E-4,1.145338640E-3,2.055945742E-3
3.689347988E0,-3.054236295E-4,1.527118147E-4,-7.635590737E-5,3.499067253E-4
3.691773874E0,9.162708884E-4,-1.679830020E-3,-7.635590737E-5,1.914996465E-3
3.694199707E0,1.527118147E-3,1.527118147E-4,-1.298050396E-3,2.010061085E-3
3.696625541E0,9.162708884E-4,7.635590737E-4,-6.872031372E-4,1.376525681E-3
3.699051426E0,-3.054236295E-4,-4.581354442E-4,-6.872031372E-4,8.805792585E-4
3.701477259E0,-9.162708884E-4,1.527118147E-4,5.344913807E-4,1.071706245E-3
3.703903093E0,-9.162708884E-4,-4.581354442E-4,-7.635590737E-5,1.027263671E-3
3.706328978E0,-9.162708884E-4,7.635590737E-4,5.344913807E-4,1.307002615E-3
3.708754811E0,3.054236295E-4,-4.581354442E-4,5.344913807E-4,7.673673923E-4
3.711180645E0,1.527118147E-3,-4.581354442E-4,-7.635590737E-5,1.596185499E-3
3.713606478E0,-3.054236295E-4,1.527118147E-4,-1.298050396E-3,1.342214336E-3
3.716032363E0,9.162708884E-4,7.635590737E-4,-6.872031372E-4,1.376525681E-3
3.718458197E0,9.162708884E-4,-4.581354442E-4,-7.635590737E-5,1.027263671E-3
3.720884030E0,-3.054236295E-4,1.527118147E-4,-6.872031372E-4,7.673673459E-4
3.723309916E0,-3.054236295E-4,1.527118147E-4,-6.872031372E-4,7.673673459E-4
3.725735749E0,-3.054236295E-4,-4.581354442E-4,5.344913807E-4,7.673673923E-4
3.728161582E0,1.527118147E-3,-4.581354442E-4,-1.298050396E-3,2.055945707E-3
3.730587468E0,9.162708884E-4,1.527118147E-4,-7.635590737E-5,9.320426299E-4
3.733013301E0,3.054236295E-4,1.527118147E-4,-6.872031372E-4,7.673673459E-4
3.735439134E0,-3.817795368E-4,-4.581354442E-4,5.344913807E-4,8.008275320E-4
3.737864968E0,2.290677221E-4,-1.068982761E-3,5.344913807E-4,1.216912980E-3
3.740290853E0,8.399150101E-4,-4.581354442E-4,-7.635590737E-5,9.597788985E-4
3.742716686E0,2.290677221E-4,-4.581354442E-4,-7.635590737E-5,5.178709599E-4
3.745142520E0,2.290677221E-4,1.527118147E-4,-6.872031372E-4,7.402979613E-4
3.747568405E0,2.290677221E-4,-4.581354442E-4,1.756185899E-3,1.829357542E-3
3.749994238E0,2.290677221E-4,1.527118147E-4,-1.298050396E-3,1.326924169E-3
3.752420072E0,-3.817795368E-4,1.527118147E-4,5.344913807E-4,6.743571377E-4
3.754845957E0,-3.817795368E-4,1.527118147E-4,-7.635590737E-5,4.182185286E-4
3.757271791E0,2.290677221E-4,7.635590737E-4,-7.635590737E-5,8.008275126E-4
3.759697624E0,-3.817795368E-4,7.635590737E-4,1.756185899E-3,1.952681998E-3
3.762123457E0,2.290677221E-4,-4.581354442E-4,1.756185899E-3,1.829357542E-3
3.764549343E0,8.399150101E-4,1.527118147E-4,-7.635590737E-5,8.570929630E-4
3.766975176E0,2.290677221E-4,-4.581354442E-4,-7.635590737E-5,5.178709599E-4
3.769401009E0,-3.817795368E-4,-1.068982761E-3,1.145338640E-3,1.612538483E-3
3.771826895E0,2.290677221E-4,-4.581354442E-4,5.344913807E-4,7.402980093E-4
3.774252728E0,8.399150101E-4,1.527118147E-4,5.344913807E-4,1.007203633E-3
3.776678561E0,1.450762269E-3,-4.581354442E-4,-6.872031372E-4,1.669385336E-3
3.779104447E0,8.399150101E-4,-9.926267667E-4,-7.635590737E-5,1.302534202E-3
3.781530280E0,-3.817795368E-4,-9.926267667E-4,-6.872031372E-4,1.266219438E-3
3.783956113E0,2.290677221E-4,-1.603474026E-3,-7.635590737E-5,1.621552095E-3
3.786381947E0,-9.926267667E-4,-3.817795368E-4,-7.635590737E-5,1.066252192E-3
3.788807832E0,-3.817795368E-4,-3.817795368E-4,5.344913807E-4,7.597317063E-4
3.791233666E0,-9.926267667E-4,-3.817795368E-4,6.108472589E-4,1.226457454E-3
3.793659499E0,-9.926267667E-4,-9.926267667E-4,6.108472589E-4,1.530931145E-3
3.796085384E0,2.290677221E-4,-9.926267667E-4,6.108472589E-4,1.187819133E-3
3.798511218E0,2.290677221E-4,8.399150101E-4,6.108472589E-4,1.063514748E-3
3.800937051E0,-3.817795368E-4,2.061609412E-3,-6.108472589E-4,2.183832263E-3
3.803362884E0,2.290677221E-4,2.061609412E-3,-6.108472589E-4,2.162369016E-3
3.805788770E0,1.450762269E-3,-3.817795368E-4,-0.000000000E0,1.500155584E-3
3.808214603E0,2.290677221E-4,-9.926267667E-4,1.221694518E-3,1.590697147E-3
3.810640488E0,8.399150101E-4,-3.817795368E-4,-0.000000000E0,9.226119656E-4
3.813066322E0,2.290677221E-4,-3.817795368E-4,-0.000000000E0,4.452276227E-4
3.815492155E0,1.450762269E-3,8.399150101E-4,6.108472589E-4,1.784181257E-3
3.817917988E0,8.399150101E-4,1.450762269E-3,1.221694518E-3,2.074296478E-3
3.820343874E0,2.290677221E-4,-9.926267667E-4,-0.000000000E0,1.018714837E-3
3.822769707E0,2.290677221E-4,8.399150101E-4,6.108472589E-4,1.063514748E-3
3.825195541E0,2.290677221E-4,-1.603474026E-3,6.108472589E-4,1.731108127E-3
3.827621426E0,2.061609412E-3,-9.926267667E-4,-0.000000000E0,2.288130517E-3
3.830047259E0,-9.926267667E-4,8.399150101E-4,6.108472589E-4,1.436627821E-3
3.832473093E0,7.635590737E-4,2.290677221E-4,1.221694518E-3,1.458777562E-3
3.834898926E0,7.635590737E-4,8.399150101E-4,-0.000000000E0,1.135112190E-3
3.837324811E0,-4.581354442E-4,1.450762269E-3,-0.000000000E0,1.521380704E-3
3.839750645E0,-4.581354442E-4,-9.926267667E-4,6.108472589E-4,1.252329971E-3
3.842176478E0,1.527118147E-4,8.399150101E-4,-1.221694518E-3,1.490407870E-3
3.844602363E0,1.985253533E-3,8.399150101E-4,-6.108472589E-4,2.240496193E-3
3.847028197E0,1.527118147E-4,2.290677221E-4,6.108472589E-4,6.700203679E-4
3.849454030E0,1.527118147E-4,2.290677221E-4,-0.000000000E0,2.753051392E-4
3.851879916E0,1.374406274E-3,-3.817795368E-4,6.108472589E-4,1.551735350E-3
3.854305749E0,1.985253533E-3,2.290677221E-4,-0.000000000E0,1.998425283E-3
3.856731582E0,1.527118147E-4,2.290677221E-4,-6.108472589E-4,6.700203679E-4
3.859157416E0,1.527118147E-4,-3.817795368E-4,-1.221694518E-3,1.289036077E-3
3.861583301E0,1.374406274E-3,-9.926267667E-4,1.145338640E-3,2.045996360E-3
3.864009134E0,-1.068982761E-3,2.290677221E-4,1.145338640E-3,1.583349855E-3
3.866434968E0,-4.581354442E-4,-3.817795368E-4,-7.635590737E-5,6.012270158E-4
3.868860853E0,-4.581354442E-4,8.399150101E-4,-1.298050396E-3,1.612538415E-3
3.871286686E0,1.527118147E-4,8.399150101E-4,5.344913807E-4,1.007203633E-3
3.873712520E0,-4.581354442E-4,8.399150101E-4,-6.872031372E-4,1.177961570E-3
3.876138405E0,-4.581354442E-4,1.450762269E-3,5.344913807E-4,1.612538459E-3
3.878564238E0,1.527118147E-4,-3.817795368E-4,-1.298050396E-3,1.361620852E-3
3.880990072E0,-1.068982761E-3,2.290677221E-4,5.344913807E-4,1.216912980E-3
3.883415905E0,-1.068982761E-3,1.450762269E-3,-7.635590737E-5,1.803681105E-3
3.885841791E0,1.527118147E-4,2.061609412E-3,5.344913807E-4,2.135236591E-3
3.888267624E0,1.527118147E-4,8.399150101E-4,5.344913807E-4,1.007203633E-3
3.890693457E0,7.635590737E-4,8.399150101E-4,-7.635590737E-5,1.137677418E-3
3.893119343E0,-1.068982761E-3,1.450762269E-3,1.145338640E-3,2.135236733E-3
3.895545176E0,-2.290677279E-3,2.061609412E-3,-7.635590737E-5,3.082736769E-3
3.897971009E0,-2.901524538E-3,8.399150101E-4,1.145338640E-3,3.230495700E-3
3.900396895E0,1.527118147E-4,-3.817795368E-4,5.344913807E-4,6.743571377E-4
3.902822728E0,-1.068982761E-3,2.290677221E-4,-6.872031372E-4,1.291295596E-3
3.905248561E0,-1.068982761E-3,2.290677221E-4,-6.872031372E-4,1.291295596E-3
3.907674447E0,1.527118147E-4,1.450762269E-3,1.756185899E-3,2.283028903E-3
3.910100280E0,-1.068982761E-3,-9.926267667E-4,-7.635590737E-5,1.460774543E-3
3.912526113E0,-1.679830020E-3,8.399150101E-4,-6.872031372E-4,1.999883565E-3
3.914951947E0,1.527118147E-4,8.399150101E-4,-6.872031372E-4,1.095913443E-3
3.917377832E0,6.872031372E-4,-3.817795368E-4,1.145338640E-3,1.389173987E-3
