"Time (s)","Acceleration x (m/s^2)","Acceleration y (m/s^2)","Acceleration z (m/s^2)","Absolute acceleration (m/s^2)"
2.689745200E-2,9.032905847E-2,-8.793623000E-2,9.870991707E0,9.871796665E0
2.934182700E-2,7.118647546E-2,-8.075776696E-2,9.875777245E0,9.876363983E0
3.178547300E-2,8.075776696E-2,-9.511470050E-2,9.890133858E0,9.890920905E0
3.422984800E-2,8.554340899E-2,-9.272187948E-2,9.863813400E0,9.864620105E0
3.667510900E-2,8.075776696E-2,-7.597211748E-2,9.868598938E0,9.869221782E0
3.911948400E-2,8.315058798E-2,-9.990034252E-2,9.890133858E0,9.890987909E0
4.156307700E-2,8.315058798E-2,-8.315058798E-2,9.868598938E0,9.869299521E0
4.400755700E-2,9.511470050E-2,-9.511470050E-2,9.878170013E0,9.879085809E0
4.645276500E-2,7.118647546E-2,-9.750752151E-2,9.873384476E0,9.874122555E0
4.889714000E-2,8.793623000E-2,-1.046859920E-1,9.875777245E0,9.876723552E0
5.134073400E-2,9.272187948E-2,-8.075776696E-2,9.878170013E0,9.878935265E0
5.378521300E-2,8.793623000E-2,-1.094716340E-1,9.890133858E0,9.891130600E0
5.623042100E-2,7.836493850E-2,-8.075776696E-2,9.885348320E0,9.885988787E0
5.867479600E-2,7.118647546E-2,-7.836493850E-2,9.911669731E0,9.912235138E0
6.111839000E-2,9.032905847E-2,-1.094716340E-1,9.885348320E0,9.886367118E0
6.356286900E-2,7.118647546E-2,-1.046859920E-1,9.873384476E0,9.874196052E0
6.600807700E-2,8.793623000E-2,-9.032905847E-2,9.875777245E0,9.876581813E0
6.845245200E-2,8.793623000E-2,-8.554340899E-2,9.861420631E0,9.862183700E0
7.089604600E-2,8.075776696E-2,-8.075776696E-2,9.894919395E0,9.895578481E0
7.334052500E-2,9.032905847E-2,-8.315058798E-2,9.887741089E0,9.888503284E0
7.578573400E-2,8.793623000E-2,-7.597211748E-2,9.861420631E0,9.862105324E0
7.823005700E-2,7.836493850E-2,-7.836493850E-2,9.885348320E0,9.885969529E0
8.067370200E-2,9.272187948E-2,-8.793623000E-2,9.878170013E0,9.878996555E0
8.311818200E-2,8.554340899E-2,-7.357929647E-2,9.870991707E0,9.871636585E0
8.556339000E-2,7.836493850E-2,-8.793623000E-2,9.892526627E0,9.893227830E0
8.800771300E-2,8.554340899E-2,-9.272187948E-2,9.873384476E0,9.874190399E0
9.045135900E-2,8.315058798E-2,-8.315058798E-2,9.875777245E0,9.876477319E0
9.289583800E-2,6.640082598E-2,-1.022931710E-1,9.902098656E0,9.902849628E0
9.534099400E-2,8.793623000E-2,-8.315058798E-2,9.878170013E0,9.878911358E0
9.778536900E-2,8.793623000E-2,-1.022931710E-1,9.878170013E0,9.879091025E0
1.002290150E-1,6.640082598E-2,-9.750752151E-2,9.902098656E0,9.902801350E0
1.026733900E-1,7.597211748E-2,-9.511470050E-2,9.861420631E0,9.862171943E0
1.051186500E-1,6.640082598E-2,-8.075776696E-2,9.868598938E0,9.869152744E0
1.075630250E-1,7.836493850E-2,-7.357929647E-2,9.870991707E0,9.871576989E0
1.100066710E-1,8.554340899E-2,-8.793623000E-2,9.878170013E0,9.878931788E0
1.124510460E-1,6.400800496E-2,-1.022931710E-1,9.894919395E0,9.895655146E0
1.148963070E-1,8.554340899E-2,-7.597211748E-2,9.906884193E0,9.907544795E0
1.173406820E-1,8.554340899E-2,-9.032905847E-2,9.885348320E0,9.886131115E0
1.197843270E-1,8.554340899E-2,-7.597211748E-2,9.882955551E0,9.883617752E0
1.222287020E-1,7.597211748E-2,-8.793623000E-2,9.882955551E0,9.883638751E0
1.246739630E-1,8.075776696E-2,-9.032905847E-2,9.859027863E0,9.859772388E0
1.271183380E-1,7.836493850E-2,-1.046859920E-1,9.906884193E0,9.907747203E0
1.295619320E-1,8.075776696E-2,-9.272187948E-2,9.914062500E0,9.914824982E0
1.320064110E-1,8.315058798E-2,-1.070788130E-1,9.892526627E0,9.893455562E0
1.344516190E-1,7.597211748E-2,-8.075776696E-2,9.906884193E0,9.907504630E0
1.368959940E-1,7.357929647E-2,-9.750752151E-2,9.894919395E0,9.895673371E0
1.393395880E-1,6.879365444E-2,-8.075776696E-2,9.906884193E0,9.907452185E0
1.417840670E-1,8.315058798E-2,-6.640082598E-2,9.868598938E0,9.869172614E0
1.442292750E-1,7.118647546E-2,-9.272187948E-2,9.897313118E0,9.898003426E0
1.466736500E-1,9.272187948E-2,-7.836493850E-2,9.882955551E0,9.883701171E0
1.491172440E-1,9.990034252E-2,-7.597211748E-2,9.892526627E0,9.893322743E0
1.515617230E-1,8.793623000E-2,-9.272187948E-2,9.875777245E0,9.876603987E0
1.540069320E-1,8.075776696E-2,-8.554340899E-2,9.880562782E0,9.881263097E0
1.564513070E-1,7.357929647E-2,-1.094716340E-1,9.890133858E0,9.891013380E0
1.588949000E-1,7.118647546E-2,-1.166501045E-1,9.885348320E0,9.886292843E0
1.613393790E-1,8.075776696E-2,-9.990034252E-2,9.863813400E0,9.864649851E0
1.637845880E-1,6.161518395E-2,-9.272187948E-2,9.856635094E0,9.857263776E0
1.662289630E-1,8.315058798E-2,-1.022931710E-1,9.899705887E0,9.900583546E0
1.686725570E-1,7.597211748E-2,-7.357929647E-2,9.882955551E0,9.883521442E0
1.711170360E-1,7.836493850E-2,-1.070788130E-1,9.880562782E0,9.881453731E0
1.735622440E-1,8.315058798E-2,-7.836493850E-2,9.890133858E0,9.890793841E0
1.760065670E-1,7.357929647E-2,-9.032905847E-2,9.887741089E0,9.888427433E0
1.784502130E-1,7.836493850E-2,-1.022931710E-1,9.873384476E0,9.874225335E0
1.808946920E-1,9.272187948E-2,-9.990034252E-2,9.875777245E0,9.876717755E0
1.833399000E-1,9.032905847E-2,-9.032905847E-2,9.875777245E0,9.876603407E0
1.857842230E-1,6.640082598E-2,-7.836493850E-2,9.880562782E0,9.881096651E0
1.882278690E-1,7.357929647E-2,-9.272187948E-2,9.878170013E0,9.878879191E0
1.906723480E-1,8.315058798E-2,-9.272187948E-2,9.890133858E0,9.890918011E0
1.931175570E-1,8.554340899E-2,-8.554340899E-2,9.899705887E0,9.900445040E0
1.955618790E-1,6.640082598E-2,-9.750752151E-2,9.880562782E0,9.881267008E0
1.980055250E-1,8.793623000E-2,-8.554340899E-2,9.892526627E0,9.893287296E0
2.004500040E-1,8.075776696E-2,-7.836493850E-2,9.892526627E0,9.893166628E0
2.028951610E-1,7.118647546E-2,-8.315058798E-2,9.870991707E0,9.871598595E0
2.053395360E-1,6.161518395E-2,-8.075776696E-2,9.870991707E0,9.871514348E0
2.077831820E-1,7.118647546E-2,-9.272187948E-2,9.887741089E0,9.888432065E0
2.102275570E-1,7.597211748E-2,-8.315058798E-2,9.899705887E0,9.900346581E0
2.126728170E-1,8.554340899E-2,-8.075776696E-2,9.887741089E0,9.888440895E0
2.151171920E-1,7.597211748E-2,-8.793623000E-2,9.880562782E0,9.881246148E0
2.175608380E-1,7.118647546E-2,-8.315058798E-2,9.861420631E0,9.862028108E0
2.200052130E-1,5.443671346E-2,-8.793623000E-2,9.890133858E0,9.890674591E0
2.224504730E-1,8.793623000E-2,-9.272187948E-2,9.887741089E0,9.888566831E0
2.248948480E-1,8.554340899E-2,-9.511470050E-2,9.873384476E0,9.874213158E0
2.273384420E-1,8.075776696E-2,-1.118644550E-1,9.868598938E0,9.869563337E0
2.297829210E-1,7.118647546E-2,-9.750752151E-2,9.882955551E0,9.883692916E0
2.322281290E-1,8.315058798E-2,-8.554340899E-2,9.878170013E0,9.878890348E0
2.346725040E-1,8.315058798E-2,-1.094716340E-1,9.878170013E0,9.879126524E0
2.371160980E-1,9.750752151E-2,-7.597211748E-2,9.887741089E0,9.888513706E0
2.395605770E-1,9.990034252E-2,-9.750752151E-2,9.861420631E0,9.862408664E0
2.420057860E-1,9.032905847E-2,-1.022931710E-1,9.873384476E0,9.874327533E0
2.444501610E-1,1.190429255E-1,-6.400800496E-2,9.875777245E0,9.876702103E0
2.468937540E-1,8.554340899E-2,-9.511470050E-2,9.885348320E0,9.886175999E0
2.493382340E-1,7.357929647E-2,-1.142572835E-1,9.887741089E0,9.888674961E0
2.517834420E-1,9.272187948E-2,-1.118644550E-1,9.878170013E0,9.879238524E0
2.542278170E-1,8.793623000E-2,-9.272187948E-2,9.887741089E0,9.888566831E0
2.566714110E-1,9.032905847E-2,-9.511470050E-2,9.887741089E0,9.888611125E0
2.591158900E-1,7.118647546E-2,-7.357929647E-2,9.892526627E0,9.893056377E0
2.615610980E-1,8.554340899E-2,-9.272187948E-2,9.892526627E0,9.893330990E0
2.640054210E-1,8.075776696E-2,-7.597211748E-2,9.904491425E0,9.905112011E0
2.664490670E-1,8.075776696E-2,-1.022931710E-1,9.868598938E0,9.869459494E0
2.688935460E-1,6.400800496E-2,-7.118647546E-2,9.892526627E0,9.892989821E0
2.713387540E-1,7.597211748E-2,-5.922235921E-2,9.894919395E0,9.895388264E0
2.737830770E-1,6.640082598E-2,-1.022931710E-1,9.902098656E0,9.902849628E0
2.762267230E-1,7.118647546E-2,-9.272187948E-2,9.890133858E0,9.890824667E0
2.786712020E-1,7.118647546E-2,-7.597211748E-2,9.875777245E0,9.876326010E0
2.811163590E-1,7.597211748E-2,-8.554340899E-2,9.880562782E0,9.881225143E0
2.835607340E-1,8.315058798E-2,-9.032905847E-2,9.890133858E0,9.890895869E0
2.860043790E-1,9.511470050E-2,-1.022931710E-1,9.868598938E0,9.869587413E0
2.884487540E-1,7.836493850E-2,-8.554340899E-2,9.870991707E0,9.871673415E0
2.908940150E-1,6.400800496E-2,-9.272187948E-2,9.914062500E0,9.914702700E0
2.933383900E-1,6.400800496E-2,-9.032905847E-2,9.882955551E0,9.883575608E0
2.957820360E-1,9.272187948E-2,-1.046859920E-1,9.909276962E0,9.910263691E0
2.982264110E-1,7.836493850E-2,-1.046859920E-1,9.890133858E0,9.890998329E0
3.006716710E-1,6.400800496E-2,-7.597211748E-2,9.878170013E0,9.878669526E0
3.031160460E-1,7.836493850E-2,-1.094716340E-1,9.890133858E0,9.891050138E0
3.055596400E-1,6.400800496E-2,-8.315058798E-2,9.890133858E0,9.890690510E0
3.080041190E-1,7.836493850E-2,-9.032905847E-2,9.906884193E0,9.907605908E0
3.104493270E-1,7.597211748E-2,-8.075776696E-2,9.885348320E0,9.885970109E0
3.128937020E-1,7.597211748E-2,-9.272187948E-2,9.890133858E0,9.890860268E0
3.153372960E-1,8.315058798E-2,-1.046859920E-1,9.863813400E0,9.864719356E0
3.177817750E-1,8.075776696E-2,-8.793623000E-2,9.892526627E0,9.893247073E0
3.202269840E-1,9.272187948E-2,-8.793623000E-2,9.892526627E0,9.893351969E0
3.226713590E-1,8.075776696E-2,-7.597211748E-2,9.882955551E0,9.883577490E0
3.251149520E-1,7.597211748E-2,-9.750752151E-2,9.878170013E0,9.878943379E0
3.275594320E-1,8.554340899E-2,-8.315058798E-2,9.878170013E0,9.878890348E0
3.300046400E-1,9.272187948E-2,-7.597211748E-2,9.902098656E0,9.902824188E0
3.324490150E-1,8.793623000E-2,-8.315058798E-2,9.904491425E0,9.905230799E0
3.348926090E-1,8.554340899E-2,-9.272187948E-2,9.890133858E0,9.890938416E0
3.373370880E-1,8.075776696E-2,-8.315058798E-2,9.863813400E0,9.864494444E0
3.397822960E-1,7.597211748E-2,-8.793623000E-2,9.890133858E0,9.890816562E0
3.422266710E-1,9.272187948E-2,-6.879365444E-2,9.887741089E0,9.888415129E0
3.446702650E-1,9.511470050E-2,-9.511470050E-2,9.885348320E0,9.886263451E0
3.471147440E-1,9.272187948E-2,-9.032905847E-2,9.885348320E0,9.886195835E0
3.495599520E-1,8.554340899E-2,-8.075776696E-2,9.890133858E0,9.890833494E0
3.520042750E-1,6.879365444E-2,-9.511470050E-2,9.882955551E0,9.883652655E0
3.544479210E-1,9.511470050E-2,-8.793623000E-2,9.890133858E0,9.890982121E0
3.568924000E-1,8.315058798E-2,-9.032905847E-2,9.878170013E0,9.878932947E0
3.593376090E-1,9.750752151E-2,-7.357929647E-2,9.873384476E0,9.874140096E0
3.617819320E-1,7.357929647E-2,-8.315058798E-2,9.882955551E0,9.883579228E0
3.642255770E-1,7.118647546E-2,-7.597211748E-2,9.885348320E0,9.885896554E0
3.666699520E-1,5.682953820E-2,-9.032905847E-2,9.880562782E0,9.881139096E0
3.691152130E-1,7.118647546E-2,-9.990034252E-2,9.882955551E0,9.883716812E0
3.715595880E-1,7.836493850E-2,-8.315058798E-2,9.873384476E0,9.874045579E0
3.740032340E-1,8.793623000E-2,-9.272187948E-2,9.890133858E0,9.890959400E0
3.764476090E-1,7.597211748E-2,-1.046859920E-1,9.882955551E0,9.883801968E0
3.788928690E-1,1.022931710E-1,-9.990034252E-2,9.892526627E0,9.893559876E0
3.813372440E-1,9.750752151E-2,-9.750752151E-2,9.878170013E0,9.879132464E0
3.837808380E-1,9.032905847E-2,-1.094716340E-1,9.880562782E0,9.881582073E0
3.862253170E-1,8.075776696E-2,-1.094716340E-1,9.887741089E0,9.888676843E0
3.886705250E-1,8.075776696E-2,-8.793623000E-2,9.894919395E0,9.895639668E0
3.911149000E-1,8.554340899E-2,-9.511470050E-2,9.880562782E0,9.881390862E0
3.935584940E-1,9.750752151E-2,-9.032905847E-2,9.882955551E0,9.883849325E0
3.960029730E-1,7.836493850E-2,-9.750752151E-2,9.878170013E0,9.878962071E0
3.984481820E-1,9.511470050E-2,-9.511470050E-2,9.868598938E0,9.869515622E0
4.008925570E-1,7.118647546E-2,-9.511470050E-2,9.904491425E0,9.905203920E0
4.033361500E-1,8.554340899E-2,-1.046859920E-1,9.894919395E0,9.895842899E0
4.057806290E-1,5.682953820E-2,-8.315058798E-2,9.875777245E0,9.876290792E0
4.082258380E-1,7.357929647E-2,-8.793623000E-2,9.880562782E0,9.881228040E0
4.106702130E-1,7.836493850E-2,-7.836493850E-2,9.870991707E0,9.871613820E0
4.131138070E-1,7.357929647E-2,-8.554340899E-2,9.868598938E0,9.869243972E0
4.155582860E-1,9.272187948E-2,-9.272187948E-2,9.897313118E0,9.898181735E0
4.180034940E-1,5.922235921E-2,-8.315058798E-2,9.873384476E0,9.873912209E0
4.204478690E-1,5.922235921E-2,-9.032905847E-2,9.880562782E0,9.881153147E0
4.228914630E-1,9.511470050E-2,-7.597211748E-2,9.894919395E0,9.895668164E0
4.253359420E-1,8.075776696E-2,-8.793623000E-2,9.909276962E0,9.909996191E0
4.277811500E-1,9.511470050E-2,-8.315058798E-2,9.873384476E0,9.874192718E0
4.302254730E-1,9.511470050E-2,-7.597211748E-2,9.870991707E0,9.871742290E0
4.326691190E-1,6.640082598E-2,-7.597211748E-2,9.909276962E0,9.909790651E0
4.351135980E-1,7.836493850E-2,-8.315058798E-2,9.882955551E0,9.883616014E0
4.375588070E-1,8.315058798E-2,-9.272187948E-2,9.863813400E0,9.864599645E0
4.400031290E-1,9.272187948E-2,-7.836493850E-2,9.873384476E0,9.874130818E0
4.424467750E-1,7.836493850E-2,-7.836493850E-2,9.894919395E0,9.895540004E0
4.448912540E-1,7.357929647E-2,-9.272187948E-2,9.894919395E0,9.895627373E0
4.473364110E-1,8.554340899E-2,-8.075776696E-2,9.899705887E0,9.900404847E0
4.497807860E-1,6.879365444E-2,-9.511470050E-2,9.875777245E0,9.876474855E0
4.522244320E-1,7.118647546E-2,-1.070788130E-1,9.887741089E0,9.888577108E0
4.546688070E-1,8.315058798E-2,-9.272187948E-2,9.866206169E0,9.866992224E0
4.571140670E-1,8.554340899E-2,-8.793623000E-2,9.870991707E0,9.871754035E0
4.595584420E-1,9.032905847E-2,-1.022931710E-1,9.880562782E0,9.881505155E0
4.620020360E-1,8.554340899E-2,-8.554340899E-2,9.873384476E0,9.874125600E0
4.644465150E-1,9.272187948E-2,-1.094716340E-1,9.880562782E0,9.881604236E0
4.668917230E-1,9.750752151E-2,-9.511470050E-2,9.894919395E0,9.895856929E0
4.693360980E-1,8.075776696E-2,-8.793623000E-2,9.897313118E0,9.898033216E0
4.717796920E-1,8.075776696E-2,-1.022931710E-1,9.897313118E0,9.898171178E0
4.742241710E-1,7.597211748E-2,-7.836493850E-2,9.887741089E0,9.888343474E0
4.766693790E-1,7.597211748E-2,-7.118647546E-2,9.887741089E0,9.888289191E0
4.791137540E-1,9.511470050E-2,-7.597211748E-2,9.873384476E0,9.874134877E0
4.815573480E-1,7.836493850E-2,-7.597211748E-2,9.887741089E0,9.888343474E0
4.840018270E-1,9.750752151E-2,-8.554340899E-2,9.878170013E0,9.879021622E0
4.864470360E-1,9.032905847E-2,-1.094716340E-1,9.880562782E0,9.881582073E0
4.888914110E-1,8.793623000E-2,-7.357929647E-2,9.899705887E0,9.900369859E0
4.913350040E-1,7.836493850E-2,-8.554340899E-2,9.866206169E0,9.866888208E0
4.937794840E-1,9.032905847E-2,-9.032905847E-2,9.880562782E0,9.881388545E0
4.962246920E-1,8.554340899E-2,-8.315058798E-2,9.899705887E0,9.900424655E0
4.986690670E-1,9.511470050E-2,-1.046859920E-1,9.866206169E0,9.867219980E0
5.011126610E-1,9.032905847E-2,-9.750752151E-2,9.897313118E0,9.898205596E0
5.035571400E-1,8.554340899E-2,-8.554340899E-2,9.904491425E0,9.905230221E0
5.060023480E-1,6.400800496E-2,-8.075776696E-2,9.887741089E0,9.888278044E0
5.084466710E-1,9.032905847E-2,-8.315058798E-2,9.885348320E0,9.886110700E0
5.108903170E-1,8.554340899E-2,-9.990034252E-2,9.878170013E0,9.879045529E0
5.133347960E-1,9.032905847E-2,-9.032905847E-2,9.880562782E0,9.881388545E0
5.157800040E-1,8.315058798E-2,-8.793623000E-2,9.885348320E0,9.886089126E0
5.182243270E-1,7.836493850E-2,-8.315058798E-2,9.878170013E0,9.878830796E0
5.206679730E-1,7.597211748E-2,-8.793623000E-2,9.885348320E0,9.886031355E0
5.231123480E-1,8.793623000E-2,-7.597211748E-2,9.902098656E0,9.902780535E0
5.255576090E-1,7.836493850E-2,-9.511470050E-2,9.854242325E0,9.855012921E0
5.280019840E-1,8.075776696E-2,-9.511470050E-2,9.882955551E0,9.883743170E0
5.304456290E-1,8.075776696E-2,-9.032905847E-2,9.885348320E0,9.886090864E0
5.328900040E-1,7.357929647E-2,-9.032905847E-2,9.892526627E0,9.893212638E0
5.353352650E-1,9.990034252E-2,-8.075776696E-2,9.904491425E0,9.905324441E0
5.377796400E-1,9.272187948E-2,-9.750752151E-2,9.892526627E0,9.893441672E0
5.402232340E-1,8.315058798E-2,-9.511470050E-2,9.894919395E0,9.895725879E0
5.426677130E-1,8.075776696E-2,-8.554340899E-2,9.878170013E0,9.878870497E0
5.451129210E-1,7.836493850E-2,-8.793623000E-2,9.906884193E0,9.907584381E0
5.475572960E-1,6.400800496E-2,-9.750752151E-2,9.887741089E0,9.888429025E0
5.500008900E-1,9.032905847E-2,-7.357929647E-2,9.878170013E0,9.878857022E0
5.524453690E-1,9.990034252E-2,-7.836493850E-2,9.911669731E0,9.912482938E0
5.548905770E-1,6.161518395E-2,-9.032905847E-2,9.882955551E0,9.883560401E0
5.573349520E-1,8.793623000E-2,-1.022931710E-1,9.870991707E0,9.871913388E0
5.597785460E-1,1.046859920E-1,-9.032905847E-2,9.882955551E0,9.883922750E0
5.622230250E-1,6.640082598E-2,-8.793623000E-2,9.890133858E0,9.890747675E0
5.646682340E-1,6.879365444E-2,-9.272187948E-2,9.870991707E0,9.871666890E0
5.671126090E-1,8.315058798E-2,-1.070788130E-1,9.873384476E0,9.874315212E0
5.695562020E-1,6.879365444E-2,-8.793623000E-2,9.880562782E0,9.881193564E0
5.720006820E-1,8.793623000E-2,-9.032905847E-2,9.878170013E0,9.878974387E0
5.744458900E-1,9.272187948E-2,-9.750752151E-2,9.870991707E0,9.871908749E0
5.768902650E-1,8.075776696E-2,-7.357929647E-2,9.873384476E0,9.873988897E0
5.793338590E-1,8.793623000E-2,-1.022931710E-1,9.897313118E0,9.898232349E0
5.817783380E-1,6.879365444E-2,-9.272187948E-2,9.870991707E0,9.871666890E0
5.842235460E-1,8.315058798E-2,-1.046859920E-1,9.894919395E0,9.895822503E0
5.866678690E-1,6.640082598E-2,-7.836493850E-2,9.892526627E0,9.893059850E0
5.891115150E-1,8.793623000E-2,-9.272187948E-2,9.878170013E0,9.878996555E0
5.915559940E-1,9.272187948E-2,-7.597211748E-2,9.890133858E0,9.890860268E0
5.940012020E-1,8.075776696E-2,-8.554340899E-2,9.887741089E0,9.888440895E0
5.964455250E-1,7.597211748E-2,-8.554340899E-2,9.899705887E0,9.900366967E0
5.988891710E-1,8.554340899E-2,-9.032905847E-2,9.866206169E0,9.866990483E0
6.013335460E-1,8.315058798E-2,-6.640082598E-2,9.885348320E0,9.885921024E0
6.037788070E-1,7.118647546E-2,-9.272187948E-2,9.899705887E0,9.900396028E0
6.062231820E-1,9.032905847E-2,-1.118644550E-1,9.887741089E0,9.888786419E0
6.086667750E-1,1.094716340E-1,-7.836493850E-2,9.870991707E0,9.871909764E0
6.111112540E-1,9.990034252E-2,-9.750752151E-2,9.873384476E0,9.874371312E0
6.135564630E-1,7.597211748E-2,-9.990034252E-2,9.866206169E0,9.867004409E0
6.160008380E-1,9.272187948E-2,-9.511470050E-2,9.894919395E0,9.895810932E0
6.184444320E-1,9.272187948E-2,-1.118644550E-1,9.868598938E0,9.869668485E0
6.208889110E-1,8.315058798E-2,-9.511470050E-2,9.878170013E0,9.878977864E0
6.233341190E-1,1.070788130E-1,-1.046859920E-1,9.897313118E0,9.898445938E0
6.257784940E-1,8.315058798E-2,-9.511470050E-2,9.887741089E0,9.888548158E0
6.282220880E-1,7.597211748E-2,-8.554340899E-2,9.887741089E0,9.888402969E0
6.306665670E-1,8.075776696E-2,-7.357929647E-2,9.863813400E0,9.864418408E0
6.331117750E-1,9.032905847E-2,-1.142572835E-1,9.892526627E0,9.893598795E0
6.355561500E-1,6.879365444E-2,-9.032905847E-2,9.882955551E0,9.883607759E0
6.379997440E-1,7.597211748E-2,-9.032905847E-2,9.873384476E0,9.874089938E0
6.404442230E-1,7.118647546E-2,-8.793623000E-2,9.897313118E0,9.897959752E0
6.428894320E-1,7.597211748E-2,-9.032905847E-2,9.882955551E0,9.883660330E0
6.453338070E-1,7.118647546E-2,-8.793623000E-2,9.875777245E0,9.876425288E0
6.477774000E-1,8.793623000E-2,-9.032905847E-2,9.894919395E0,9.895722407E0
6.502218790E-1,6.161518395E-2,-8.075776696E-2,9.885348320E0,9.885870202E0
6.526670880E-1,9.032905847E-2,-8.315058798E-2,9.873384476E0,9.874147779E0
6.551114110E-1,8.793623000E-2,-9.750752151E-2,9.873384476E0,9.874257517E0
6.575550570E-1,8.075776696E-2,-8.075776696E-2,9.882955551E0,9.883615435E0
6.599995360E-1,9.032905847E-2,-9.032905847E-2,9.890133858E0,9.890958821E0
6.624447440E-1,7.597211748E-2,-9.990034252E-2,9.887741089E0,9.888537591E0
6.648890670E-1,7.597211748E-2,-1.022931710E-1,9.894919395E0,9.895739765E0
6.673327130E-1,8.315058798E-2,-8.793623000E-2,9.870991707E0,9.871733590E0
6.697771920E-1,8.075776696E-2,-8.793623000E-2,9.890133858E0,9.890854479E0
6.722223480E-1,8.554340899E-2,-9.272187948E-2,9.870991707E0,9.871797825E0
6.746667230E-1,8.554340899E-2,-9.272187948E-2,9.887741089E0,9.888545842E0
6.771103690E-1,6.879365444E-2,-9.272187948E-2,9.909276962E0,9.909949537E0
6.795547440E-1,9.990034252E-2,-9.511470050E-2,9.873384476E0,9.874347973E0
6.820000040E-1,9.032905847E-2,-1.022931710E-1,9.882955551E0,9.883897696E0
6.844443790E-1,7.118647546E-2,-9.750752151E-2,9.885348320E0,9.886085506E0
6.868879730E-1,9.272187948E-2,-9.750752151E-2,9.890133858E0,9.891049125E0
6.893324520E-1,8.075776696E-2,-9.750752151E-2,9.866206169E0,9.867018481E0
6.917776610E-1,9.750752151E-2,-7.836493850E-2,9.866206169E0,9.866999187E0
6.942220360E-1,9.750752151E-2,-7.118647546E-2,9.880562782E0,9.881300326E0
6.966656290E-1,7.357929647E-2,-9.750752151E-2,9.870991707E0,9.871747510E0
6.991101090E-1,8.315058798E-2,-9.990034252E-2,9.880562782E0,9.881417661E0
7.015553170E-1,6.640082598E-2,-7.836493850E-2,9.882955551E0,9.883489291E0
7.039996920E-1,9.032905847E-2,-9.750752151E-2,9.878170013E0,9.879064220E0
7.064432860E-1,8.554340899E-2,-1.118644550E-1,9.873384476E0,9.874388707E0
7.088877650E-1,6.640082598E-2,-7.836493850E-2,9.882955551E0,9.883489291E0
7.113329730E-1,7.357929647E-2,-7.597211748E-2,9.887741089E0,9.888306706E0
7.137773480E-1,9.511470050E-2,-9.032905847E-2,9.885348320E0,9.886218567E0
7.162209420E-1,8.793623000E-2,-9.272187948E-2,9.892526627E0,9.893351969E0
7.186654210E-1,9.272187948E-2,-7.836493850E-2,9.870991707E0,9.871738230E0
7.211106290E-1,7.836493850E-2,-8.315058798E-2,9.880562782E0,9.881223405E0
7.235550040E-1,7.836493850E-2,-1.046859920E-1,9.892526627E0,9.893390889E0
7.259985980E-1,8.315058798E-2,-8.315058798E-2,9.851848602E0,9.852550377E0
7.284430770E-1,7.357929647E-2,-9.272187948E-2,9.894919395E0,9.895627373E0
7.308882860E-1,8.315058798E-2,-1.046859920E-1,9.906884193E0,9.907786211E0
7.333326090E-1,8.793623000E-2,-9.990034252E-2,9.878170013E0,9.879066539E0
7.357762540E-1,9.032905847E-2,-8.793623000E-2,9.890133858E0,9.890937258E0
7.382207340E-1,8.315058798E-2,-8.315058798E-2,9.868598938E0,9.869299521E0
7.406658900E-1,8.554340899E-2,-8.315058798E-2,9.899705887E0,9.900424655E0
7.431102650E-1,7.357929647E-2,-1.070788130E-1,9.892526627E0,9.893379748E0
7.455539110E-1,8.075776696E-2,-1.094716340E-1,9.890133858E0,9.891069385E0
7.479982860E-1,9.990034252E-2,-9.032905847E-2,9.923633575E0,9.924547484E0
7.504435460E-1,7.836493850E-2,-9.032905847E-2,9.892526627E0,9.893249388E0
7.528879210E-1,7.836493850E-2,-6.640082598E-2,9.894919395E0,9.895452490E0
7.553315150E-1,6.400800496E-2,-9.032905847E-2,9.916455269E0,9.917073231E0
7.577759940E-1,1.094716340E-1,-7.836493850E-2,9.892526627E0,9.893442685E0
7.602212020E-1,8.793623000E-2,-9.032905847E-2,9.887741089E0,9.888544684E0
7.626655770E-1,9.032905847E-2,-8.315058798E-2,9.880562782E0,9.881325531E0
7.651091710E-1,8.075776696E-2,-9.750752151E-2,9.878170013E0,9.878981342E0
7.675536500E-1,6.640082598E-2,-9.511470050E-2,9.870991707E0,9.871673270E0
7.699988590E-1,9.272187948E-2,-1.070788130E-1,9.873384476E0,9.874400449E0
7.724432340E-1,7.836493850E-2,-8.793623000E-2,9.894919395E0,9.895620430E0
7.748868270E-1,8.554340899E-2,-9.750752151E-2,9.885348320E0,9.886199310E0
7.773313070E-1,6.400800496E-2,-8.554340899E-2,9.885348320E0,9.885925658E0
7.797765150E-1,7.836493850E-2,-7.357929647E-2,9.890133858E0,9.890718007E0
7.822208900E-1,7.357929647E-2,-8.793623000E-2,9.904491425E0,9.905155076E0
7.846644840E-1,8.554340899E-2,-9.032905847E-2,9.885348320E0,9.886131115E0
7.871089630E-1,9.032905847E-2,-8.793623000E-2,9.890133858E0,9.890937258E0
7.895541710E-1,8.075776696E-2,-8.554340899E-2,9.899705887E0,9.900404847E0
7.919984940E-1,8.075776696E-2,-9.032905847E-2,9.875777245E0,9.876520508E0
7.944421400E-1,7.118647546E-2,-8.315058798E-2,9.875777245E0,9.876383838E0
7.968866190E-1,6.640082598E-2,-8.315058798E-2,9.882955551E0,9.883528394E0
7.993317750E-1,8.793623000E-2,-9.750752151E-2,9.882955551E0,9.883827747E0
8.017761500E-1,8.315058798E-2,-9.511470050E-2,9.892526627E0,9.893333305E0
8.042197960E-1,7.836493850E-2,-1.046859920E-1,9.868598938E0,9.869465296E0
8.066641710E-1,5.682953820E-2,-9.750752151E-2,9.885348320E0,9.885992551E0
8.091094320E-1,7.357929647E-2,-9.032905847E-2,9.899705887E0,9.900391401E0
8.115538070E-1,7.597211748E-2,-8.793623000E-2,9.887741089E0,9.888423959E0
8.139974520E-1,6.400800496E-2,-9.990034252E-2,9.880562782E0,9.881275120E0
8.164418270E-1,9.990034252E-2,-1.046859920E-1,9.880562782E0,9.881622343E0
8.188870880E-1,9.272187948E-2,-7.118647546E-2,9.890133858E0,9.890824667E0
8.213314630E-1,6.640082598E-2,-8.075776696E-2,9.875777245E0,9.876330648E0
8.237751090E-1,7.118647546E-2,-9.032905847E-2,9.887741089E0,9.888409917E0
8.262194840E-1,8.793623000E-2,-9.032905847E-2,9.904491425E0,9.905293660E0
8.286647440E-1,8.793623000E-2,-9.750752151E-2,9.892526627E0,9.893397978E0
8.311091190E-1,7.836493850E-2,-7.597211748E-2,9.882955551E0,9.883558228E0
8.335527130E-1,8.075776696E-2,-9.272187948E-2,9.894919395E0,9.895683352E0
8.359971920E-1,8.315058798E-2,-9.032905847E-2,9.897313118E0,9.898074576E0
8.384424000E-1,8.315058798E-2,-8.793623000E-2,9.885348320E0,9.886089126E0
8.408867750E-1,8.554340899E-2,-1.166501045E-1,9.892526627E0,9.893584183E0
8.433303690E-1,9.032905847E-2,-9.272187948E-2,9.873384476E0,9.874233018E0
8.457748480E-1,7.597211748E-2,-1.166501045E-1,9.885348320E0,9.886328460E0
8.482200570E-1,5.682953820E-2,-9.511470050E-2,9.894919395E0,9.895539715E0
8.506644320E-1,7.597211748E-2,-9.990034252E-2,9.880562782E0,9.881359863E0
8.531080250E-1,9.272187948E-2,-7.357929647E-2,9.885348320E0,9.886056983E0
8.555525040E-1,9.032905847E-2,-8.554340899E-2,9.885348320E0,9.886131115E0
8.579977130E-1,8.793623000E-2,-8.075776696E-2,9.892526627E0,9.893247073E0
8.604420880E-1,9.032905847E-2,-9.511470050E-2,9.847063065E0,9.847936695E0
8.628856820E-1,9.272187948E-2,-9.272187948E-2,9.878170013E0,9.879040313E0
8.653301610E-1,8.554340899E-2,-8.793623000E-2,9.894919395E0,9.895679881E0
8.677753170E-1,7.597211748E-2,-9.990034252E-2,9.859027863E0,9.859826684E0
8.702196920E-1,8.075776696E-2,-7.118647546E-2,9.890133858E0,9.890719744E0
8.726633380E-1,8.554340899E-2,-8.075776696E-2,9.890133858E0,9.890833494E0
8.751077130E-1,6.879365444E-2,-9.272187948E-2,9.880562782E0,9.881237312E0
8.775529730E-1,8.075776696E-2,-8.075776696E-2,9.870991707E0,9.871652390E0
8.799973480E-1,9.272187948E-2,-9.272187948E-2,9.861420631E0,9.862292409E0
8.824409940E-1,7.597211748E-2,-7.597211748E-2,9.880562782E0,9.881146918E0
8.848853690E-1,8.075776696E-2,-7.597211748E-2,9.880562782E0,9.881184872E0
8.873306290E-1,8.075776696E-2,-9.032905847E-2,9.885348320E0,9.886090864E0
8.897750040E-1,7.836493850E-2,-9.272187948E-2,9.916455269E0,9.917198370E0
8.922185980E-1,6.879365444E-2,-8.793623000E-2,9.894919395E0,9.895549262E0
8.946630770E-1,6.640082598E-2,-7.836493850E-2,9.892526627E0,9.893059850E0
8.971082860E-1,8.075776696E-2,-9.032905847E-2,9.882955551E0,9.883698275E0
8.995526610E-1,6.879365444E-2,-8.315058798E-2,9.890133858E0,9.890722638E0
9.019962540E-1,7.597211748E-2,-9.032905847E-2,9.897313118E0,9.898016875E0
9.044407340E-1,7.836493850E-2,-8.075776696E-2,9.878170013E0,9.878810945E0
9.068859420E-1,8.554340899E-2,-8.554340899E-2,9.899705887E0,9.900445040E0
9.093303170E-1,6.640082598E-2,-7.836493850E-2,9.887741089E0,9.888274570E0
9.117739110E-1,8.075776696E-2,-8.793623000E-2,9.863813400E0,9.864535944E0
9.142183900E-1,9.511470050E-2,-7.836493850E-2,9.890133858E0,9.890901657E0
9.166635980E-1,9.032905847E-2,-9.032905847E-2,9.894919395E0,9.895743960E0
9.191079210E-1,8.315058798E-2,-9.032905847E-2,9.887741089E0,9.888503284E0
9.215515670E-1,8.554340899E-2,-9.272187948E-2,9.861420631E0,9.862227532E0
9.239960460E-1,6.640082598E-2,-8.075776696E-2,9.878170013E0,9.878723283E0
9.264412540E-1,8.075776696E-2,-7.836493850E-2,9.878170013E0,9.878810945E0
9.288855770E-1,8.793623000E-2,-7.836493850E-2,9.882955551E0,9.883657434E0
9.313292230E-1,9.032905847E-2,-9.272187948E-2,9.892526627E0,9.893373527E0
9.337735980E-1,9.272187948E-2,-8.793623000E-2,9.892526627E0,9.893351969E0
9.362188590E-1,8.075776696E-2,-1.118644550E-1,9.897313118E0,9.898274720E0
9.386632340E-1,6.879365444E-2,-1.070788130E-1,9.887741089E0,9.888560172E0
9.411068790E-1,1.046859920E-1,-1.022931710E-1,9.897313118E0,9.898395325E0
9.435512540E-1,9.750752151E-2,-9.511470050E-2,9.868598938E0,9.869538972E0
9.459965150E-1,8.793623000E-2,-8.315058798E-2,9.873384476E0,9.874126179E0
9.484408900E-1,8.554340899E-2,-9.272187948E-2,9.887741089E0,9.888545842E0
9.508844840E-1,7.357929647E-2,-9.511470050E-2,9.882955551E0,9.883687123E0
9.533289630E-1,9.272187948E-2,-1.022931710E-1,9.890133858E0,9.891097460E0
9.557741710E-1,7.597211748E-2,-7.597211748E-2,9.885348320E0,9.885932173E0
9.582185460E-1,8.075776696E-2,-8.793623000E-2,9.882955551E0,9.883676696E0
9.606621400E-1,8.075776696E-2,-9.272187948E-2,9.890133858E0,9.890898184E0
9.631066190E-1,9.511470050E-2,-7.836493850E-2,9.878170013E0,9.878938743E0
9.655518270E-1,7.836493850E-2,-9.272187948E-2,9.870991707E0,9.871738230E0
9.679962020E-1,8.793623000E-2,-9.750752151E-2,9.882955551E0,9.883827747E0
9.704397960E-1,6.161518395E-2,-9.990034252E-2,9.890133858E0,9.890830311E0
9.728842750E-1,6.640082598E-2,-1.070788130E-1,9.856635094E0,9.857440353E0
9.753294840E-1,7.836493850E-2,-1.190429255E-1,9.870991707E0,9.872020541E0
9.777738590E-1,7.836493850E-2,-8.793623000E-2,9.882955551E0,9.883657434E0
9.802174520E-1,7.597211748E-2,-9.750752151E-2,9.890133858E0,9.890906288E0
9.826619320E-1,7.357929647E-2,-9.032905847E-2,9.887741089E0,9.888427433E0
9.851071400E-1,7.597211748E-2,-8.554340899E-2,9.866206169E0,9.866869494E0
9.875514630E-1,6.161518395E-2,-9.032905847E-2,9.873384476E0,9.873989912E0
9.899951090E-1,5.204389244E-2,-1.094716340E-1,9.870991707E0,9.871735910E0
9.924395880E-1,7.597211748E-2,-9.032905847E-2,9.856635094E0,9.857341755E0
9.948847960E-1,9.272187948E-2,-8.793623000E-2,9.882955551E0,9.883781693E0
9.973291190E-1,9.511470050E-2,-7.836493850E-2,9.885348320E0,9.886116491E0
9.997727650E-1,7.118647546E-2,-9.272187948E-2,9.868598938E0,9.869291254E0
1.002217140E0,8.075776696E-2,-9.750752151E-2,9.887741089E0,9.888551632E0
1.004662400E0,8.075776696E-2,-9.511470050E-2,9.890133858E0,9.890920905E0
1.007106775E0,8.075776696E-2,-1.046859920E-1,9.875777245E0,9.876662248E0
1.009550421E0,6.879365444E-2,-9.511470050E-2,9.866206169E0,9.866904456E0
1.011994796E0,7.118647546E-2,-8.075776696E-2,9.892526627E0,9.893112371E0
1.014440057E0,6.161518395E-2,-9.272187948E-2,9.892526627E0,9.893153028E0
1.016884432E0,8.075776696E-2,-8.793623000E-2,9.897313118E0,9.898033216E0
1.019328025E0,8.793623000E-2,-8.315058798E-2,9.885348320E0,9.886089126E0
1.021772504E0,8.554340899E-2,-7.357929647E-2,9.902098656E0,9.902741508E0
1.024217713E0,7.118647546E-2,-8.554340899E-2,9.894919395E0,9.895545211E0
1.026662088E0,6.879365444E-2,-7.597211748E-2,9.870991707E0,9.871523773E0
1.029105682E0,8.554340899E-2,-8.554340899E-2,9.875777245E0,9.876518189E0
1.031550161E0,1.046859920E-1,-9.032905847E-2,9.875777245E0,9.876745146E0
1.033995369E0,1.022931710E-1,-1.046859920E-1,9.885348320E0,9.886431836E0
1.036439744E0,8.075776696E-2,-9.511470050E-2,9.885348320E0,9.886135748E0
1.038883338E0,8.793623000E-2,-8.075776696E-2,9.873384476E0,9.874106319E0
1.041327817E0,9.032905847E-2,-8.075776696E-2,9.890133858E0,9.890876042E0
1.043773025E0,8.793623000E-2,-8.554340899E-2,9.854242325E0,9.855005949E0
1.046217348E0,8.315058798E-2,-8.554340899E-2,9.868598938E0,9.869319971E0
1.048660994E0,7.597211748E-2,-1.022931710E-1,9.880562782E0,9.881384344E0
1.051105473E0,7.357929647E-2,-9.750752151E-2,9.892526627E0,9.893280785E0
1.053550682E0,8.554340899E-2,-9.272187948E-2,9.887741089E0,9.888545842E0
1.055995004E0,7.118647546E-2,-8.554340899E-2,9.885348320E0,9.885974742E0
1.058438650E0,8.793623000E-2,-7.836493850E-2,9.882955551E0,9.883657434E0
1.060883025E0,8.793623000E-2,-6.161518395E-2,9.897313118E0,9.897895542E0
1.063328286E0,7.836493850E-2,-1.022931710E-1,9.890133858E0,9.890973293E0
1.065772661E0,8.075776696E-2,-8.315058798E-2,9.873384476E0,9.874064859E0
1.068216307E0,8.075776696E-2,-1.070788130E-1,9.880562782E0,9.881472997E0
1.070660682E0,1.022931710E-1,-1.046859920E-1,9.880562782E0,9.881646824E0
1.073105942E0,8.075776696E-2,-8.554340899E-2,9.878170013E0,9.878870497E0
1.075550317E0,7.836493850E-2,-8.793623000E-2,9.890133858E0,9.890835231E0
1.077993911E0,8.793623000E-2,-9.272187948E-2,9.887741089E0,9.888566831E0
1.080438390E0,6.879365444E-2,-9.511470050E-2,9.861420631E0,9.862119257E0
1.082883598E0,8.315058798E-2,-9.511470050E-2,9.887741089E0,9.888548158E0
1.085327973E0,7.836493850E-2,-1.070788130E-1,9.870991707E0,9.871883519E0
1.087771567E0,8.075776696E-2,-8.793623000E-2,9.890133858E0,9.890854479E0
1.090216046E0,6.161518395E-2,-7.597211748E-2,9.899705887E0,9.900189132E0
1.092661254E0,8.075776696E-2,-9.272187948E-2,9.892526627E0,9.893290768E0
1.095105629E0,7.357929647E-2,-9.511470050E-2,9.894919395E0,9.895650083E0
1.097549223E0,8.315058798E-2,-8.075776696E-2,9.890133858E0,9.890813089E0
1.099993702E0,9.511470050E-2,-8.315058798E-2,9.894919395E0,9.895725879E0
1.102438911E0,8.793623000E-2,-7.836493850E-2,9.892526627E0,9.893227830E0
1.104883234E0,1.046859920E-1,-8.075776696E-2,9.878170013E0,9.879054802E0
1.107326879E0,8.793623000E-2,-8.315058798E-2,9.887741089E0,9.888481716E0
1.109771359E0,8.315058798E-2,-9.032905847E-2,9.885348320E0,9.886110700E0
1.112216567E0,8.075776696E-2,-8.793623000E-2,9.863813400E0,9.864535944E0
1.114660890E0,8.075776696E-2,-9.272187948E-2,9.892526627E0,9.893290768E0
1.117104536E0,5.922235921E-2,-9.511470050E-2,9.899705887E0,9.900339931E0
1.119548911E0,7.836493850E-2,-7.836493850E-2,9.873384476E0,9.874006438E0
1.121994171E0,7.118647546E-2,-9.032905847E-2,9.880562782E0,9.881232097E0
1.124438546E0,7.357929647E-2,-9.990034252E-2,9.878170013E0,9.878949175E0
1.126882192E0,9.511470050E-2,-9.272187948E-2,9.904491425E0,9.905382099E0
1.129326567E0,8.554340899E-2,-1.046859920E-1,9.894919395E0,9.895842899E0
1.131771827E0,6.400800496E-2,-8.315058798E-2,9.887741089E0,9.888297876E0
1.134216202E0,7.118647546E-2,-9.511470050E-2,9.892526627E0,9.893239984E0
1.136659796E0,8.554340899E-2,-8.793623000E-2,9.866206169E0,9.866968867E0
1.139104275E0,9.032905847E-2,-9.990034252E-2,9.894919395E0,9.895835956E0
1.141549484E0,6.879365444E-2,-9.750752151E-2,9.887741089E0,9.888461161E0
1.143993859E0,8.793623000E-2,-9.032905847E-2,9.878170013E0,9.878974387E0
1.146437452E0,8.075776696E-2,-1.142572835E-1,9.892526627E0,9.893516038E0
1.148881932E0,1.022931710E-1,-9.511470050E-2,9.885348320E0,9.886335120E0
1.151327140E0,8.554340899E-2,-7.836493850E-2,9.885348320E0,9.886029038E0
1.153771515E0,8.554340899E-2,-1.022931710E-1,9.899705887E0,9.900603932E0
1.156215109E0,8.554340899E-2,-8.793623000E-2,9.875777245E0,9.876539204E0
1.158659588E0,8.075776696E-2,-7.597211748E-2,9.885348320E0,9.885970109E0
1.161104796E0,8.075776696E-2,-1.022931710E-1,9.897313118E0,9.898171178E0
1.163549119E0,8.075776696E-2,-8.793623000E-2,9.880562782E0,9.881284101E0
1.165992765E0,6.640082598E-2,-9.032905847E-2,9.851848602E0,9.852486452E0
1.168437244E0,8.075776696E-2,-8.075776696E-2,9.899705887E0,9.900364654E0
1.170882452E0,7.836493850E-2,-8.554340899E-2,9.880562782E0,9.881243830E0
1.173326775E0,7.118647546E-2,-9.750752151E-2,9.904491425E0,9.905227186E0
1.175770421E0,8.793623000E-2,-1.022931710E-1,9.899705887E0,9.900624895E0
1.178214796E0,9.511470050E-2,-9.272187948E-2,9.894919395E0,9.895810932E0
1.180660109E0,7.597211748E-2,-9.511470050E-2,9.878170013E0,9.878920051E0
1.183104432E0,7.357929647E-2,-8.554340899E-2,9.897313118E0,9.897956281E0
1.185548077E0,6.879365444E-2,-7.597211748E-2,9.882955551E0,9.883486974E0
1.187992452E0,8.075776696E-2,-8.793623000E-2,9.899705887E0,9.900425811E0
1.190437713E0,8.315058798E-2,-8.075776696E-2,9.880562782E0,9.881242671E0
1.192882088E0,6.879365444E-2,-9.272187948E-2,9.878170013E0,9.878844706E0
1.195325734E0,9.032905847E-2,-1.046859920E-1,9.880562782E0,9.881530215E0
1.197770109E0,7.597211748E-2,-8.554340899E-2,9.892526627E0,9.893188187E0
1.200215369E0,8.554340899E-2,-9.511470050E-2,9.887741089E0,9.888568568E0
1.202659744E0,9.511470050E-2,-9.511470050E-2,9.878170013E0,9.879085809E0
1.205103338E0,6.640082598E-2,-7.836493850E-2,9.892526627E0,9.893059850E0
1.207547817E0,8.554340899E-2,-1.046859920E-1,9.868598938E0,9.869524904E0
1.209993025E0,8.554340899E-2,-9.750752151E-2,9.882955551E0,9.883806747E0
1.212437400E0,7.836493850E-2,-9.032905847E-2,9.880562782E0,9.881286419E0
1.214880994E0,9.750752151E-2,-8.793623000E-2,9.894919395E0,9.895790536E0
1.217325473E0,8.554340899E-2,-9.750752151E-2,9.899705887E0,9.900555643E0
1.219770682E0,8.315058798E-2,-8.075776696E-2,9.870991707E0,9.871672255E0
1.222215057E0,5.443671346E-2,-8.793623000E-2,9.894919395E0,9.895459867E0
1.224658650E0,8.793623000E-2,-9.032905847E-2,9.890133858E0,9.890937258E0
1.227103129E0,8.075776696E-2,-9.750752151E-2,9.890133858E0,9.890944205E0
1.229548338E0,8.075776696E-2,-8.554340899E-2,9.902098656E0,9.902797447E0
1.231992661E0,8.554340899E-2,-9.750752151E-2,9.880562782E0,9.881414185E0
1.234436307E0,9.750752151E-2,-9.272187948E-2,9.882955551E0,9.883871483E0
1.236880682E0,1.022931710E-1,-8.075776696E-2,9.906884193E0,9.907741424E0
1.239325942E0,7.836493850E-2,-8.315058798E-2,9.897313118E0,9.897972623E0
1.241770317E0,7.597211748E-2,-1.046859920E-1,9.882955551E0,9.883801968E0
1.244213911E0,7.118647546E-2,-8.554340899E-2,9.890133858E0,9.890759977E0
1.246658390E0,8.075776696E-2,-8.554340899E-2,9.866206169E0,9.866907503E0
1.249103598E0,8.075776696E-2,-1.094716340E-1,9.873384476E0,9.874321590E0
1.251547973E0,6.879365444E-2,-8.075776696E-2,9.880562782E0,9.881132287E0
1.253991567E0,8.793623000E-2,-1.094716340E-1,9.880562782E0,9.881560490E0
1.256436046E0,9.750752151E-2,-9.750752151E-2,9.899705887E0,9.900666244E0
1.258881254E0,7.118647546E-2,-1.046859920E-1,9.880562782E0,9.881373769E0
1.261325629E0,8.554340899E-2,-9.272187948E-2,9.875777245E0,9.876582972E0
1.263769223E0,9.990034252E-2,-1.022931710E-1,9.894919395E0,9.895952395E0
1.266213702E0,9.272187948E-2,-1.094716340E-1,9.906884193E0,9.907922881E0
1.268658911E0,7.836493850E-2,-8.315058798E-2,9.892526627E0,9.893186450E0
1.271103286E0,8.315058798E-2,-9.032905847E-2,9.866206169E0,9.866970028E0
1.273546879E0,8.554340899E-2,-1.046859920E-1,9.873384476E0,9.874309993E0
1.275991359E0,5.922235921E-2,-1.094716340E-1,9.875777245E0,9.876561523E0
1.278436567E0,7.357929647E-2,-9.750752151E-2,9.875777245E0,9.876532682E0
1.280880890E0,7.118647546E-2,-9.990034252E-2,9.902098656E0,9.902858445E0
1.283324536E0,9.272187948E-2,-1.070788130E-1,9.887741089E0,9.888755587E0
1.285769015E0,8.793623000E-2,-9.032905847E-2,9.894919395E0,9.895722407E0
1.288214223E0,8.793623000E-2,-8.793623000E-2,9.887741089E0,9.888523115E0
1.290658546E0,9.750752151E-2,-9.272187948E-2,9.906884193E0,9.907797913E0
1.293102192E0,7.597211748E-2,-6.879365444E-2,9.885348320E0,9.885879614E0
1.295546567E0,1.046859920E-1,-7.836493850E-2,9.878170013E0,9.879035532E0
1.297991827E0,1.022931710E-1,-6.640082598E-2,9.873384476E0,9.874137632E0
1.300436202E0,9.511470050E-2,-7.836493850E-2,9.894919395E0,9.895686824E0
1.302879796E0,7.836493850E-2,-8.075776696E-2,9.894919395E0,9.895559243E0
1.305324275E0,9.272187948E-2,-7.597211748E-2,9.897313118E0,9.898039001E0
1.307769484E0,8.793623000E-2,-8.075776696E-2,9.873384476E0,9.874106319E0
1.310213859E0,8.793623000E-2,-9.032905847E-2,9.885348320E0,9.886152109E0
1.312657452E0,9.032905847E-2,-1.190429255E-1,9.880562782E0,9.881692742E0
1.315101932E0,1.046859920E-1,-8.554340899E-2,9.880562782E0,9.881487627E0
1.317547140E0,8.075776696E-2,-8.315058798E-2,9.870991707E0,9.871672255E0
1.319991515E0,6.879365444E-2,-9.032905847E-2,9.882955551E0,9.883607759E0
1.322435109E0,8.554340899E-2,-1.022931710E-1,9.902098656E0,9.902996484E0
1.324879588E0,9.032905847E-2,-8.793623000E-2,9.892526627E0,9.893329833E0
1.327324796E0,6.879365444E-2,-8.075776696E-2,9.878170013E0,9.878739656E0
1.329769171E0,6.879365444E-2,-1.022931710E-1,9.880562782E0,9.881331760E0
1.332212765E0,7.118647546E-2,-9.511470050E-2,9.882955551E0,9.883669599E0
1.334657244E0,7.357929647E-2,-9.032905847E-2,9.882955551E0,9.883642227E0
1.337102452E0,7.836493850E-2,-1.142572835E-1,9.887741089E0,9.888711728E0
1.339546775E0,8.075776696E-2,-9.032905847E-2,9.861420631E0,9.862164977E0
1.341990421E0,9.272187948E-2,-7.597211748E-2,9.892526627E0,9.893252861E0
1.344434796E0,6.640082598E-2,-1.142572835E-1,9.882955551E0,9.883839043E0
1.346880057E0,7.836493850E-2,-9.750752151E-2,9.873384476E0,9.874176917E0
1.349324432E0,9.511470050E-2,-9.272187948E-2,9.875777245E0,9.876670509E0
1.351768077E0,8.075776696E-2,-7.597211748E-2,9.890133858E0,9.890755345E0
1.354212452E0,7.357929647E-2,-7.357929647E-2,9.890133858E0,9.890681248E0
1.356657713E0,7.597211748E-2,-7.597211748E-2,9.878170013E0,9.878754291E0
1.359102088E0,8.554340899E-2,-7.118647546E-2,9.882955551E0,9.883582125E0
1.361545682E0,8.554340899E-2,-9.032905847E-2,9.885348320E0,9.886131115E0
1.363990161E0,8.793623000E-2,-9.511470050E-2,9.894919395E0,9.895767248E0
1.366435369E0,8.315058798E-2,-1.094716340E-1,9.892526627E0,9.893481749E0
1.368879744E0,6.400800496E-2,-9.032905847E-2,9.882955551E0,9.883575608E0
1.371323338E0,6.879365444E-2,-8.075776696E-2,9.902098656E0,9.902666922E0
1.373767817E0,8.315058798E-2,-8.554340899E-2,9.890133858E0,9.890853321E0
1.376213025E0,9.032905847E-2,-9.511470050E-2,9.887741089E0,9.888611125E0
1.378657400E0,8.315058798E-2,-9.272187948E-2,9.887741089E0,9.888525431E0
1.381100994E0,9.990034252E-2,-8.075776696E-2,9.892526627E0,9.893360650E0
1.383545473E0,7.357929647E-2,-8.554340899E-2,9.856635094E0,9.857280911E0
1.385990682E0,8.315058798E-2,-9.750752151E-2,9.873384476E0,9.874216057E0
1.388435004E0,6.640082598E-2,-9.750752151E-2,9.885348320E0,9.886052205E0
1.390878650E0,8.315058798E-2,-9.750752151E-2,9.887741089E0,9.888571463E0
1.393323129E0,7.597211748E-2,-9.750752151E-2,9.892526627E0,9.893298870E0
1.395768338E0,9.750752151E-2,-9.272187948E-2,9.875777245E0,9.876693842E0
1.398212661E0,9.032905847E-2,-9.990034252E-2,9.863813400E0,9.864732851E0
1.400656307E0,9.511470050E-2,-1.070788130E-1,9.870991707E0,9.872030691E0
1.403100682E0,9.272187948E-2,-1.118644550E-1,9.887741089E0,9.888808565E0
1.405545942E0,6.879365444E-2,-9.032905847E-2,9.875777245E0,9.876429926E0
1.407990317E0,6.879365444E-2,-8.075776696E-2,9.887741089E0,9.888310180E0
1.410433963E0,7.836493850E-2,-9.750752151E-2,9.885348320E0,9.886139802E0
1.412878338E0,1.046859920E-1,-8.793623000E-2,9.878170013E0,9.879116092E0
1.415323598E0,8.554340899E-2,-8.554340899E-2,9.880562782E0,9.881303368E0
1.417767973E0,8.793623000E-2,-9.990034252E-2,9.892526627E0,9.893421851E0
1.420211567E0,7.357929647E-2,-8.075776696E-2,9.892526627E0,9.893129878E0
1.422656046E0,6.879365444E-2,-9.750752151E-2,9.870991707E0,9.871713000E0
1.425101254E0,7.836493850E-2,-8.554340899E-2,9.890133858E0,9.890814247E0
1.427545629E0,6.400800496E-2,-1.022931710E-1,9.866206169E0,9.866944060E0
1.429989223E0,7.836493850E-2,-1.022931710E-1,9.892526627E0,9.893365859E0
1.432433702E0,8.793623000E-2,-9.032905847E-2,9.866206169E0,9.867011518E0
1.434878911E0,8.075776696E-2,-9.272187948E-2,9.894919395E0,9.895683352E0
1.437323286E0,7.118647546E-2,-9.990034252E-2,9.890133858E0,9.890894566E0
1.439766879E0,7.357929647E-2,-9.750752151E-2,9.880562782E0,9.881317854E0
1.442211359E0,6.640082598E-2,-9.272187948E-2,9.882955551E0,9.883613552E0
1.444656567E0,1.022931710E-1,-7.597211748E-2,9.875777245E0,9.876599204E0
1.447100890E0,7.357929647E-2,-1.046859920E-1,9.863813400E0,9.864643322E0
1.449544536E0,8.075776696E-2,-8.075776696E-2,9.861420631E0,9.862081956E0
1.451988911E0,9.032905847E-2,-8.315058798E-2,9.875777245E0,9.876540363E0
1.454434223E0,7.597211748E-2,-9.272187948E-2,9.887741089E0,9.888467675E0
1.456878546E0,8.315058798E-2,-9.511470050E-2,9.892526627E0,9.893333305E0
1.459322192E0,5.443671346E-2,-9.750752151E-2,9.899705887E0,9.900335738E0
1.461766567E0,7.836493850E-2,-7.597211748E-2,9.904491425E0,9.905092791E0
1.464211827E0,9.750752151E-2,-9.511470050E-2,9.887741089E0,9.888679303E0
1.466656202E0,8.554340899E-2,-8.554340899E-2,9.894919395E0,9.895658906E0
1.469099848E0,6.400800496E-2,-7.597211748E-2,9.890133858E0,9.890632766E0
1.471544223E0,8.793623000E-2,-8.554340899E-2,9.870991707E0,9.871754035E0
1.473989484E0,9.511470050E-2,-9.511470050E-2,9.887741089E0,9.888655998E0
1.476433859E0,8.315058798E-2,-7.836493850E-2,9.875777245E0,9.876438187E0
1.478877452E0,8.075776696E-2,-8.793623000E-2,9.897313118E0,9.898033216E0
1.481321932E0,6.879365444E-2,-9.511470050E-2,9.880562782E0,9.881260055E0
1.483767140E0,6.400800496E-2,-9.750752151E-2,9.873384476E0,9.874073412E0
1.486211515E0,8.793623000E-2,-8.793623000E-2,9.885348320E0,9.886130536E0
1.488655109E0,7.357929647E-2,-9.990034252E-2,9.866206169E0,9.866986276E0
1.491099588E0,7.597211748E-2,-7.836493850E-2,9.892526627E0,9.893128721E0
1.493544796E0,6.400800496E-2,-9.990034252E-2,9.882955551E0,9.883667716E0
1.495989119E0,7.118647546E-2,-8.075776696E-2,9.887741089E0,9.888327117E0
1.498432765E0,8.793623000E-2,-8.554340899E-2,9.878170013E0,9.878931788E0
1.500877244E0,7.357929647E-2,-9.272187948E-2,9.885348320E0,9.886056983E0
1.503322452E0,9.750752151E-2,-8.793623000E-2,9.885348320E0,9.886220304E0
1.505766775E0,6.640082598E-2,-9.272187948E-2,9.885348320E0,9.886006161E0
1.508210421E0,7.597211748E-2,-1.022931710E-1,9.887741089E0,9.888562054E0
1.510654796E0,8.315058798E-2,-9.032905847E-2,9.880562782E0,9.881325531E0
1.513100057E0,8.075776696E-2,-8.793623000E-2,9.875777245E0,9.876498913E0
1.515544432E0,8.075776696E-2,-7.357929647E-2,9.878170013E0,9.878774142E0
1.517988025E0,6.161518395E-2,-9.990034252E-2,9.897313118E0,9.898009066E0
1.520432504E0,9.032905847E-2,-8.554340899E-2,9.878170013E0,9.878953377E0
1.522877713E0,9.511470050E-2,-1.118644550E-1,9.892526627E0,9.893616301E0
1.525322088E0,7.836493850E-2,-9.990034252E-2,9.870991707E0,9.871808265E0
1.527765682E0,8.793623000E-2,-9.750752151E-2,9.870991707E0,9.871864959E0
1.530210161E0,9.032905847E-2,-1.046859920E-1,9.873384476E0,9.874352612E0
1.532655369E0,9.032905847E-2,-9.511470050E-2,9.875777245E0,9.876648335E0
1.535099744E0,8.793623000E-2,-9.032905847E-2,9.875777245E0,9.876581813E0
1.537543338E0,7.118647546E-2,-9.272187948E-2,9.892526627E0,9.893217268E0
1.539987817E0,6.640082598E-2,-8.075776696E-2,9.878170013E0,9.878723283E0
1.542433025E0,9.032905847E-2,-8.793623000E-2,9.892526627E0,9.893329833E0
1.544877400E0,7.597211748E-2,-7.836493850E-2,9.899705887E0,9.900307544E0
1.547320994E0,7.836493850E-2,-1.022931710E-1,9.887741089E0,9.888580727E0
1.549765473E0,5.922235921E-2,-9.511470050E-2,9.885348320E0,9.885983285E0
1.552210682E0,7.118647546E-2,-7.118647546E-2,9.866206169E0,9.866719779E0
1.554655004E0,6.879365444E-2,-9.511470050E-2,9.885348320E0,9.886045255E0
1.557098650E0,7.357929647E-2,-1.070788130E-1,9.873384476E0,9.874239251E0
1.559543025E0,7.357929647E-2,-9.750752151E-2,9.878170013E0,9.878925268E0
1.561988286E0,8.793623000E-2,-7.836493850E-2,9.885348320E0,9.886050033E0
1.564432661E0,7.597211748E-2,-8.793623000E-2,9.851848602E0,9.852533960E0
1.566876307E0,7.357929647E-2,-9.032905847E-2,9.859027863E0,9.859716205E0
1.569320682E0,1.046859920E-1,-8.075776696E-2,9.894919395E0,9.895802687E0
1.571765942E0,8.315058798E-2,-9.032905847E-2,9.875777245E0,9.876540363E0
1.574210317E0,6.640082598E-2,-9.272187948E-2,9.890133858E0,9.890791381E0
1.576653911E0,8.315058798E-2,-8.793623000E-2,9.887741089E0,9.888481716E0
1.579098390E0,6.400800496E-2,-9.511470050E-2,9.885348320E0,9.886013111E0
1.581543598E0,5.922235921E-2,-7.118647546E-2,9.882955551E0,9.883389359E0
1.583987973E0,9.511470050E-2,-9.511470050E-2,9.897313118E0,9.898227143E0
1.586431567E0,7.357929647E-2,-9.990034252E-2,9.890133858E0,9.890912077E0
1.588876046E0,7.597211748E-2,-9.750752151E-2,9.906884193E0,9.907655318E0
1.591321254E0,6.879365444E-2,-6.879365444E-2,9.897313118E0,9.897791273E0
1.593765577E0,8.315058798E-2,-9.511470050E-2,9.897313118E0,9.898119406E0
1.596209223E0,1.022931710E-1,-7.597211748E-2,9.890133858E0,9.890954624E0
1.598653702E0,8.075776696E-2,-8.793623000E-2,9.873384476E0,9.874106319E0
1.601098911E0,8.315058798E-2,-9.272187948E-2,9.859027863E0,9.859814489E0
1.603543234E0,6.879365444E-2,-9.750752151E-2,9.882955551E0,9.883675971E0
1.605986879E0,8.554340899E-2,-8.075776696E-2,9.878170013E0,9.878870497E0
1.608431254E0,9.272187948E-2,-9.032905847E-2,9.885348320E0,9.886195835E0
1.610876567E0,7.357929647E-2,-9.272187948E-2,9.887741089E0,9.888449580E0
1.613320890E0,7.836493850E-2,-8.315058798E-2,9.902098656E0,9.902757842E0
1.615764536E0,7.836493850E-2,-7.357929647E-2,9.885348320E0,9.885932752E0
1.618208911E0,8.554340899E-2,-9.990034252E-2,9.890133858E0,9.891008314E0
1.620654171E0,8.793623000E-2,-1.118644550E-1,9.906884193E0,9.907905977E0
1.623098546E0,7.357929647E-2,-8.315058798E-2,9.899705887E0,9.900328509E0
1.625542140E0,5.922235921E-2,-9.511470050E-2,9.878170013E0,9.878805439E0
1.627986619E0,7.357929647E-2,-7.836493850E-2,9.902098656E0,9.902682099E0
1.630431827E0,7.836493850E-2,-9.272187948E-2,9.882955551E0,9.883701171E0
1.632876202E0,1.094716340E-1,-1.094716340E-1,9.880562782E0,9.881775598E0
1.635319796E0,9.511470050E-2,-9.990034252E-2,9.875777245E0,9.876740508E0
1.637764275E0,7.836493850E-2,-8.554340899E-2,9.856635094E0,9.857317795E0
1.640209484E0,8.075776696E-2,-8.554340899E-2,9.880562782E0,9.881263097E0
1.642653859E0,8.075776696E-2,-9.032905847E-2,9.866206169E0,9.866950153E0
1.645097452E0,8.075776696E-2,-7.836493850E-2,9.880562782E0,9.881203559E0
1.647541932E0,9.511470050E-2,-9.511470050E-2,9.870991707E0,9.871908169E0
1.649987140E0,9.511470050E-2,-8.315058798E-2,9.887741089E0,9.888548158E0
1.652431463E0,9.511470050E-2,-7.118647546E-2,9.875777245E0,9.876491812E0
1.654875109E0,7.836493850E-2,-1.142572835E-1,9.892526627E0,9.893496796E0
1.657319588E0,7.118647546E-2,-7.118647546E-2,9.878170013E0,9.878683001E0
1.659764796E0,8.315058798E-2,-9.032905847E-2,9.870991707E0,9.871755195E0
1.662209119E0,9.032905847E-2,-1.046859920E-1,9.880562782E0,9.881530215E0
1.664652765E0,7.597211748E-2,-8.315058798E-2,9.866206169E0,9.866849039E0
1.667097140E0,7.836493850E-2,-8.554340899E-2,9.902098656E0,9.902778223E0
1.669542400E0,7.357929647E-2,-9.032905847E-2,9.892526627E0,9.893212638E0
1.671986775E0,8.554340899E-2,-8.554340899E-2,9.878170013E0,9.878910778E0
1.674430369E0,6.879365444E-2,-9.272187948E-2,9.878170013E0,9.878844706E0
1.676874848E0,8.793623000E-2,-1.022931710E-1,9.897313118E0,9.898232349E0
1.679320057E0,6.879365444E-2,-1.046859920E-1,9.890133858E0,9.890927128E0
1.681764432E0,8.075776696E-2,-9.990034252E-2,9.885348320E0,9.886182949E0
1.684208025E0,9.511470050E-2,-8.315058798E-2,9.894919395E0,9.895725879E0
1.686652504E0,7.597211748E-2,-9.272187948E-2,9.885348320E0,9.886075082E0
1.689097713E0,9.032905847E-2,-9.272187948E-2,9.880562782E0,9.881410708E0
1.691542088E0,7.597211748E-2,-8.793623000E-2,9.868598938E0,9.869283132E0
1.693985682E0,8.315058798E-2,-9.990034252E-2,9.880562782E0,9.881417661E0
1.696430161E0,7.597211748E-2,-9.750752151E-2,9.887741089E0,9.888513706E0
1.698875369E0,7.357929647E-2,-9.272187948E-2,9.899705887E0,9.900413522E0
1.701319692E0,1.022931710E-1,-9.272187948E-2,9.878170013E0,9.879134783E0
1.703763338E0,7.597211748E-2,-8.315058798E-2,9.899705887E0,9.900346581E0
1.706207713E0,7.836493850E-2,-1.022931710E-1,9.880562782E0,9.881403030E0
1.708652973E0,8.793623000E-2,-8.315058798E-2,9.885348320E0,9.886089126E0
1.711097348E0,8.075776696E-2,-9.990034252E-2,9.873384476E0,9.874220116E0
1.713540994E0,7.357929647E-2,-8.315058798E-2,9.875777245E0,9.876401375E0
1.715985369E0,8.315058798E-2,-9.032905847E-2,9.832706451E0,9.833472912E0
1.718430629E0,7.118647546E-2,-8.075776696E-2,9.866206169E0,9.866793476E0
1.720875004E0,7.118647546E-2,-1.046859920E-1,9.904491425E0,9.905300452E0
1.723318598E0,9.032905847E-2,-1.022931710E-1,9.873384476E0,9.874327533E0
1.725763077E0,5.682953820E-2,-9.272187948E-2,9.873384476E0,9.873983388E0
1.728208286E0,8.793623000E-2,-8.075776696E-2,9.892526627E0,9.893247073E0
1.730652661E0,8.554340899E-2,-8.075776696E-2,9.902098656E0,9.902797447E0
1.733096254E0,8.554340899E-2,-8.793623000E-2,9.887741089E0,9.888502126E0
1.735540734E0,8.315058798E-2,-9.750752151E-2,9.880562782E0,9.881393760E0
1.737985942E0,7.836493850E-2,-9.990034252E-2,9.892526627E0,9.893341407E0
1.740430317E0,8.075776696E-2,-1.046859920E-1,9.899705887E0,9.900588751E0
1.742873911E0,9.990034252E-2,-8.075776696E-2,9.859027863E0,9.859864720E0
1.745318390E0,9.272187948E-2,-1.046859920E-1,9.890133858E0,9.891122496E0
1.747763598E0,8.315058798E-2,-8.554340899E-2,9.875777245E0,9.876497754E0
1.750207921E0,6.879365444E-2,-9.511470050E-2,9.887741089E0,9.888437855E0
1.752651567E0,8.315058798E-2,-9.511470050E-2,9.897313118E0,9.898119406E0
1.755095942E0,9.511470050E-2,-9.032905847E-2,9.887741089E0,9.888611125E0
1.757541202E0,8.075776696E-2,-9.990034252E-2,9.902098656E0,9.902931873E0
1.759985577E0,6.879365444E-2,-9.750752151E-2,9.904491425E0,9.905210279E0
1.762429223E0,6.640082598E-2,-8.554340899E-2,9.890133858E0,9.890726691E0
1.764873598E0,8.075776696E-2,-9.511470050E-2,9.897313118E0,9.898099594E0
1.767318859E0,6.879365444E-2,-1.022931710E-1,9.894919395E0,9.895687258E0
1.769763234E0,8.554340899E-2,-1.070788130E-1,9.887741089E0,9.888690883E0
1.772206827E0,8.315058798E-2,-7.836493850E-2,9.899705887E0,9.900365232E0
1.774651307E0,9.032905847E-2,-9.511470050E-2,9.885348320E0,9.886218567E0
1.777096515E0,7.118647546E-2,-9.032905847E-2,9.904491425E0,9.905159122E0
1.779540890E0,6.640082598E-2,-8.554340899E-2,9.897313118E0,9.897905521E0
1.781984484E0,6.640082598E-2,-9.750752151E-2,9.875777245E0,9.876481811E0
1.784428963E0,9.511470050E-2,-8.554340899E-2,9.890133858E0,9.890961137E0
1.786874171E0,7.597211748E-2,-8.554340899E-2,9.890133858E0,9.890795578E0
1.789318494E0,9.272187948E-2,-8.793623000E-2,9.885348320E0,9.886174262E0
1.791762140E0,9.032905847E-2,-9.750752151E-2,9.878170013E0,9.879064220E0
1.794206619E0,8.793623000E-2,-8.793623000E-2,9.892526627E0,9.893308275E0
1.796651827E0,7.836493850E-2,-9.511470050E-2,9.887741089E0,9.888509074E0
1.799096150E0,5.204389244E-2,-9.032905847E-2,9.892526627E0,9.893075910E0
1.801539796E0,8.315058798E-2,-9.032905847E-2,9.882955551E0,9.883718115E0
1.803984171E0,9.032905847E-2,-1.046859920E-1,9.878170013E0,9.879137680E0
1.806429432E0,8.075776696E-2,-9.272187948E-2,9.894919395E0,9.895683352E0
1.808873807E0,7.118647546E-2,-9.272187948E-2,9.897313118E0,9.898003426E0
1.811317452E0,8.554340899E-2,-8.554340899E-2,9.875777245E0,9.876518189E0
1.813761827E0,8.554340899E-2,-9.750752151E-2,9.866206169E0,9.867058810E0
1.816207088E0,8.793623000E-2,-9.750752151E-2,9.904491425E0,9.905361724E0
1.818651463E0,9.990034252E-2,-9.511470050E-2,9.885348320E0,9.886310651E0
1.821095057E0,9.511470050E-2,-8.315058798E-2,9.882955551E0,9.883763011E0
1.823539536E0,9.750752151E-2,-9.511470050E-2,9.875777245E0,9.876716595E0
1.825984744E0,7.597211748E-2,-8.554340899E-2,9.866206169E0,9.866869494E0
1.828429119E0,9.272187948E-2,-7.357929647E-2,9.851848602E0,9.852559675E0
1.830872713E0,7.836493850E-2,-9.272187948E-2,9.882955551E0,9.883701171E0
1.833317192E0,9.272187948E-2,-1.070788130E-1,9.878170013E0,9.879185494E0
1.835762400E0,6.640082598E-2,-8.793623000E-2,9.890133858E0,9.890747675E0
1.838206775E0,7.597211748E-2,-9.511470050E-2,9.875777245E0,9.876527464E0
1.840650369E0,7.836493850E-2,-9.511470050E-2,9.878170013E0,9.878938743E0
1.843094848E0,9.511470050E-2,-1.166501045E-1,9.909276962E0,9.910419969E0
1.845540057E0,9.032905847E-2,-8.075776696E-2,9.880562782E0,9.881305686E0
1.847984379E0,8.075776696E-2,-8.554340899E-2,9.880562782E0,9.881263097E0
1.850428025E0,5.922235921E-2,-9.750752151E-2,9.875777245E0,9.876436158E0
1.852872400E0,8.554340899E-2,-8.075776696E-2,9.880562782E0,9.881263097E0
1.855317661E0,8.554340899E-2,-7.836493850E-2,9.887741089E0,9.888421642E0
1.857762036E0,9.032905847E-2,-7.836493850E-2,9.878170013E0,9.878893826E0
1.860205682E0,8.793623000E-2,-1.022931710E-1,9.887741089E0,9.888661209E0
1.862650057E0,6.879365444E-2,-9.511470050E-2,9.887741089E0,9.888437855E0
1.865095317E0,8.793623000E-2,-9.272187948E-2,9.892526627E0,9.893351969E0
1.867539692E0,9.032905847E-2,-9.750752151E-2,9.902098656E0,9.902990702E0
1.869983286E0,9.511470050E-2,-9.032905847E-2,9.882955551E0,9.883826009E0
1.872427765E0,8.793623000E-2,-1.070788130E-1,9.894919395E0,9.895889475E0
1.874872973E0,6.161518395E-2,-9.032905847E-2,9.897313118E0,9.897917090E0
1.877317348E0,7.118647546E-2,-9.511470050E-2,9.878170013E0,9.878884407E0
1.879760942E0,7.836493850E-2,-9.272187948E-2,9.873384476E0,9.874130818E0
1.882205421E0,7.118647546E-2,-9.032905847E-2,9.873384476E0,9.874054277E0
1.884650629E0,8.075776696E-2,-9.511470050E-2,9.904491425E0,9.905277331E0
1.887094952E0,6.640082598E-2,-7.836493850E-2,9.887741089E0,9.888274570E0
1.889538598E0,8.075776696E-2,-9.511470050E-2,9.873384476E0,9.874172858E0
1.891983077E0,9.511470050E-2,-1.022931710E-1,9.856635094E0,9.857624768E0
1.894428286E0,6.161518395E-2,-8.315058798E-2,9.880562782E0,9.881104763E0
1.896872609E0,8.554340899E-2,-9.511470050E-2,9.878170013E0,9.878998294E0
1.899316254E0,7.597211748E-2,-9.272187948E-2,9.885348320E0,9.886075082E0
1.901760629E0,8.075776696E-2,-8.315058798E-2,9.882955551E0,9.883635276E0
1.904205890E0,9.750752151E-2,-9.511470050E-2,9.894919395E0,9.895856929E0
1.906650265E0,7.836493850E-2,-8.315058798E-2,9.887741089E0,9.888401232E0
1.909093859E0,7.357929647E-2,-7.836493850E-2,9.902098656E0,9.902682099E0
1.911538338E0,9.990034252E-2,-8.793623000E-2,9.899705887E0,9.900600462E0
1.913983546E0,8.075776696E-2,-9.032905847E-2,9.885348320E0,9.886090864E0
1.916427921E0,9.032905847E-2,-9.511470050E-2,9.894919395E0,9.895788801E0
1.918871515E0,1.094716340E-1,-9.990034252E-2,9.899705887E0,9.900815156E0
1.921315994E0,7.836493850E-2,-9.750752151E-2,9.878170013E0,9.878962071E0
1.923761202E0,7.597211748E-2,-9.032905847E-2,9.873384476E0,9.874089938E0
1.926205577E0,7.118647546E-2,-1.046859920E-1,9.882955551E0,9.883766342E0
1.928649171E0,5.443671346E-2,-1.094716340E-1,9.899705887E0,9.900460799E0
1.931093650E0,8.075776696E-2,-1.094716340E-1,9.887741089E0,9.888676843E0
1.933538859E0,9.990034252E-2,-8.554340899E-2,9.892526627E0,9.893400872E0
1.935983182E0,6.640082598E-2,-9.032905847E-2,9.885348320E0,9.885984009E0
1.938426827E0,7.357929647E-2,-9.032905847E-2,9.863813400E0,9.864501409E0
1.940871307E0,6.640082598E-2,-9.032905847E-2,9.878170013E0,9.878806164E0
1.943316463E0,8.554340899E-2,-9.990034252E-2,9.880562782E0,9.881438086E0
1.945760838E0,1.022931710E-1,-1.022931710E-1,9.885348320E0,9.886406789E0
1.948204484E0,1.022931710E-1,-7.836493850E-2,9.875777245E0,9.876617900E0
1.950648859E0,8.793623000E-2,-1.142572835E-1,9.880562782E0,9.881614666E0
1.953094119E0,9.032905847E-2,-1.046859920E-1,9.887741089E0,9.888707819E0
1.955538494E0,8.554340899E-2,-9.990034252E-2,9.880562782E0,9.881438086E0
1.957982088E0,7.836493850E-2,-8.554340899E-2,9.870991707E0,9.871673415E0
1.960426567E0,8.554340899E-2,-1.046859920E-1,9.875777245E0,9.876702538E0
1.962871775E0,7.597211748E-2,-1.022931710E-1,9.878170013E0,9.878991774E0
1.965316150E0,7.597211748E-2,-9.990034252E-2,9.897313118E0,9.898108849E0
1.967759744E0,7.118647546E-2,-9.750752151E-2,9.870991707E0,9.871729965E0
1.970204223E0,6.400800496E-2,-9.990034252E-2,9.899705887E0,9.900416847E0
1.972649432E0,8.075776696E-2,-1.094716340E-1,9.878170013E0,9.879106674E0
1.975093807E0,9.750752151E-2,-9.750752151E-2,9.878170013E0,9.879132464E0
1.977537400E0,7.836493850E-2,-9.511470050E-2,9.870991707E0,9.871760995E0
1.979981879E0,8.793623000E-2,-8.554340899E-2,9.880562782E0,9.881324372E0
1.982427088E0,1.118644550E-1,-8.075776696E-2,9.861420631E0,9.862385733E0
1.984871411E0,9.272187948E-2,-9.990034252E-2,9.859027863E0,9.859969971E0
1.987315057E0,7.118647546E-2,-8.793623000E-2,9.880562782E0,9.881210512E0
1.989759432E0,7.836493850E-2,-9.272187948E-2,9.875777245E0,9.876523406E0
1.992204692E0,8.315058798E-2,-9.032905847E-2,9.875777245E0,9.876540363E0
1.994649067E0,8.554340899E-2,-9.750752151E-2,9.866206169E0,9.867058810E0
1.997092713E0,8.554340899E-2,-1.094716340E-1,9.880562782E0,9.881539486E0
1.999537088E0,9.511470050E-2,-7.836493850E-2,9.890133858E0,9.890901657E0
2.001982348E0,8.315058798E-2,-9.511470050E-2,9.887741089E0,9.888548158E0
2.004426723E0,7.357929647E-2,-8.793623000E-2,9.875777245E0,9.876442825E0
2.006870317E0,9.272187948E-2,-8.315058798E-2,9.875777245E0,9.876562537E0
2.009314796E0,8.554340899E-2,-7.597211748E-2,9.870991707E0,9.871654710E0
2.011760004E0,7.597211748E-2,-9.750752151E-2,9.892526627E0,9.893298870E0
2.014204379E0,7.597211748E-2,-1.022931710E-1,9.875777245E0,9.876599204E0
2.016647973E0,1.094716340E-1,-9.511470050E-2,9.887741089E0,9.888804512E0
2.019092452E0,7.836493850E-2,-1.070788130E-1,9.873384476E0,9.874276072E0
2.021537661E0,8.793623000E-2,-9.750752151E-2,9.882955551E0,9.883827747E0
2.023982036E0,6.879365444E-2,-8.315058798E-2,9.890133858E0,9.890722638E0
2.026425629E0,7.118647546E-2,-9.511470050E-2,9.873384476E0,9.874099216E0
2.028870109E0,8.075776696E-2,-9.750752151E-2,9.890133858E0,9.890944205E0
2.031315317E0,1.022931710E-1,-9.511470050E-2,9.875777245E0,9.876765001E0
2.033759640E0,1.046859920E-1,-7.836493850E-2,9.892526627E0,9.893390889E0
2.036203286E0,4.965107143E-2,-1.022931710E-1,9.892526627E0,9.893180084E0
2.038647661E0,7.118647546E-2,-7.836493850E-2,9.859027863E0,9.859596289E0
2.041092921E0,7.357929647E-2,-1.046859920E-1,9.866206169E0,9.867035889E0
2.043537296E0,9.511470050E-2,-9.990034252E-2,9.868598938E0,9.869562902E0
2.045980942E0,7.597211748E-2,-1.022931710E-1,9.856635094E0,9.857458649E0
2.048425317E0,9.511470050E-2,-9.990034252E-2,9.873384476E0,9.874347973E0
2.050870577E0,7.836493850E-2,-8.793623000E-2,9.866206169E0,9.866909243E0
2.053314952E0,7.118647546E-2,-8.793623000E-2,9.880562782E0,9.881210512E0
2.055758546E0,9.511470050E-2,-9.750752151E-2,9.882955551E0,9.883894220E0
2.058203025E0,9.032905847E-2,-1.166501045E-1,9.878170013E0,9.879271704E0
2.060648234E0,9.511470050E-2,-9.272187948E-2,9.892526627E0,9.893418378E0
2.063092609E0,7.597211748E-2,-9.272187948E-2,9.880562782E0,9.881289896E0
2.065536202E0,9.511470050E-2,-9.032905847E-2,9.882955551E0,9.883826009E0
2.067980682E0,9.272187948E-2,-7.597211748E-2,9.882955551E0,9.883682489E0
2.070425890E0,9.990034252E-2,-7.836493850E-2,9.882955551E0,9.883771121E0
2.072870213E0,8.075776696E-2,-1.022931710E-1,9.882955551E0,9.883814857E0
2.075313859E0,8.315058798E-2,-9.032905847E-2,9.873384476E0,9.874147779E0
2.077758338E0,9.032905847E-2,-1.046859920E-1,9.873384476E0,9.874352612E0
2.080203494E0,9.990034252E-2,-8.315058798E-2,9.873384476E0,9.874239976E0
2.082647869E0,9.032905847E-2,-1.070788130E-1,9.882955551E0,9.883948383E0
2.085091515E0,7.357929647E-2,-9.511470050E-2,9.873384476E0,9.874116757E0
2.087535890E0,7.597211748E-2,-9.511470050E-2,9.880562782E0,9.881312639E0
2.089981150E0,8.075776696E-2,-8.793623000E-2,9.899705887E0,9.900425811E0
2.092425525E0,7.597211748E-2,-8.554340899E-2,9.890133858E0,9.890795578E0
2.094869119E0,8.075776696E-2,-9.511470050E-2,9.875777245E0,9.876565436E0
2.097313598E0,6.879365444E-2,-9.032905847E-2,9.904491425E0,9.905142214E0
2.099758807E0,6.879365444E-2,-7.836493850E-2,9.885348320E0,9.885898292E0
2.102203182E0,7.836493850E-2,-7.118647546E-2,9.885348320E0,9.885915233E0
2.104646775E0,7.118647546E-2,-9.511470050E-2,9.878170013E0,9.878884407E0
2.107091254E0,6.161518395E-2,-9.750752151E-2,9.880562782E0,9.881236008E0
2.109536463E0,7.597211748E-2,-9.990034252E-2,9.870991707E0,9.871789560E0
2.111980838E0,6.879365444E-2,-9.990034252E-2,9.882955551E0,9.883699868E0
2.114424432E0,7.836493850E-2,-1.166501045E-1,9.878170013E0,9.879169556E0
2.116868911E0,7.597211748E-2,-9.990034252E-2,9.882955551E0,9.883752439E0
2.119314119E0,6.879365444E-2,-1.070788130E-1,9.890133858E0,9.890952743E0
2.121758442E0,6.640082598E-2,-8.554340899E-2,9.868598938E0,9.869193064E0
2.124202088E0,6.400800496E-2,-9.032905847E-2,9.861420631E0,9.862042042E0
2.126646567E0,9.032905847E-2,-1.094716340E-1,9.873384476E0,9.874404508E0
2.129091723E0,7.357929647E-2,-9.511470050E-2,9.873384476E0,9.874116757E0
2.131536098E0,8.554340899E-2,-9.511470050E-2,9.887741089E0,9.888568568E0
2.133979744E0,7.836493850E-2,-9.750752151E-2,9.878170013E0,9.878962071E0
2.136424119E0,8.793623000E-2,-7.118647546E-2,9.854242325E0,9.854891785E0
2.138869379E0,7.357929647E-2,-1.046859920E-1,9.904491425E0,9.905317938E0
2.141313754E0,8.075776696E-2,-9.032905847E-2,9.899705887E0,9.900447354E0
2.143757348E0,6.879365444E-2,-9.750752151E-2,9.902098656E0,9.902817683E0
2.146201827E0,6.879365444E-2,-9.750752151E-2,9.887741089E0,9.888461161E0
2.148647036E0,9.990034252E-2,-9.032905847E-2,9.885348320E0,9.886265767E0
2.151091411E0,9.032905847E-2,-8.554340899E-2,9.887741089E0,9.888523694E0
2.153535004E0,7.836493850E-2,-1.022931710E-1,9.899705887E0,9.900544510E0
2.155979484E0,9.511470050E-2,-9.511470050E-2,9.878170013E0,9.879085809E0
2.158424692E0,8.315058798E-2,-9.032905847E-2,9.851848602E0,9.852613574E0
2.160869015E0,7.357929647E-2,-9.511470050E-2,9.875777245E0,9.876509348E0
2.163312661E0,7.357929647E-2,-8.793623000E-2,9.873384476E0,9.874050218E0
2.165757140E0,9.032905847E-2,-8.315058798E-2,9.870991707E0,9.871755195E0
2.168202348E0,8.315058798E-2,-7.597211748E-2,9.887741089E0,9.888382559E0
2.170646671E0,9.511470050E-2,-1.094716340E-1,9.861420631E0,9.862486893E0
2.173090317E0,9.990034252E-2,-7.357929647E-2,9.868598938E0,9.869378855E0
2.175534692E0,8.315058798E-2,-9.032905847E-2,9.861420631E0,9.862184861E0
2.177979952E0,6.400800496E-2,-1.046859920E-1,9.882955551E0,9.883717246E0
2.180424327E0,6.640082598E-2,-8.793623000E-2,9.902098656E0,9.902711732E0
2.182867973E0,9.032905847E-2,-7.357929647E-2,9.873384476E0,9.874071817E0
2.185312348E0,9.511470050E-2,-9.750752151E-2,9.885348320E0,9.886286762E0
2.187757609E0,8.793623000E-2,-9.990034252E-2,9.892526627E0,9.893421851E0
2.190201984E0,7.597211748E-2,-9.750752151E-2,9.885348320E0,9.886121124E0
2.192645577E0,9.032905847E-2,-9.511470050E-2,9.870991707E0,9.871863219E0
2.195090057E0,9.750752151E-2,-8.554340899E-2,9.875777245E0,9.876629059E0
2.197535265E0,9.032905847E-2,-9.511470050E-2,9.880562782E0,9.881433451E0
2.199979640E0,8.793623000E-2,-1.022931710E-1,9.885348320E0,9.886268663E0
2.202423234E0,7.597211748E-2,-9.511470050E-2,9.887741089E0,9.888490401E0
2.204867713E0,7.118647546E-2,-9.750752151E-2,9.882955551E0,9.883692916E0
2.207312921E0,8.075776696E-2,-8.793623000E-2,9.882955551E0,9.883676696E0
2.209757244E0,7.597211748E-2,-9.511470050E-2,9.890133858E0,9.890882989E0
2.212200890E0,8.075776696E-2,-1.166501045E-1,9.902098656E0,9.903115007E0
2.214645369E0,9.750752151E-2,-8.554340899E-2,9.870991707E0,9.871843935E0
2.217090525E0,8.075776696E-2,-9.272187948E-2,9.854242325E0,9.855009435E0
2.219534900E0,7.357929647E-2,-8.793623000E-2,9.878170013E0,9.878835433E0
2.221978546E0,8.075776696E-2,-9.032905847E-2,9.892526627E0,9.893268631E0
2.224422921E0,9.750752151E-2,-1.070788130E-1,9.880562782E0,9.881624081E0
2.226868182E0,8.793623000E-2,-7.836493850E-2,9.854242325E0,9.854946253E0
2.229312557E0,9.511470050E-2,-1.046859920E-1,9.899705887E0,9.900716267E0
2.231756202E0,9.511470050E-2,-9.272187948E-2,9.894919395E0,9.895810932E0
2.234200577E0,6.879365444E-2,-9.750752151E-2,9.892526627E0,9.893246350E0
2.236645838E0,8.315058798E-2,-9.511470050E-2,9.911669731E0,9.912474852E0
2.239090213E0,8.793623000E-2,-1.046859920E-1,9.866206169E0,9.867153394E0
2.241533807E0,8.075776696E-2,-1.142572835E-1,9.885348320E0,9.886338450E0
2.243978286E0,9.272187948E-2,-8.554340899E-2,9.880562782E0,9.881368120E0
2.246423494E0,8.554340899E-2,-8.554340899E-2,9.875777245E0,9.876518189E0
2.248867869E0,8.315058798E-2,-1.046859920E-1,9.861420631E0,9.862326807E0
2.251311463E0,7.597211748E-2,-9.272187948E-2,9.887741089E0,9.888467675E0
2.253755942E0,9.032905847E-2,-1.046859920E-1,9.875777245E0,9.876745146E0
2.256201150E0,7.836493850E-2,-9.032905847E-2,9.890133858E0,9.890856794E0
2.258645473E0,8.315058798E-2,-1.142572835E-1,9.878170013E0,9.879180713E0
2.261089119E0,7.597211748E-2,-9.032905847E-2,9.878170013E0,9.878875134E0
2.263533494E0,8.793623000E-2,-1.118644550E-1,9.870991707E0,9.872017206E0
2.265978754E0,9.032905847E-2,-9.272187948E-2,9.875777245E0,9.876625581E0
2.268423129E0,9.032905847E-2,-9.032905847E-2,9.885348320E0,9.886173683E0
2.270866775E0,9.990034252E-2,-9.511470050E-2,9.897313118E0,9.898274286E0
2.273311150E0,7.118647546E-2,-8.793623000E-2,9.880562782E0,9.881210512E0
2.275756411E0,7.357929647E-2,-8.554340899E-2,9.868598938E0,9.869243972E0
2.278200786E0,7.836493850E-2,-9.272187948E-2,9.878170013E0,9.878915994E0
2.280644379E0,8.075776696E-2,-9.032905847E-2,9.880562782E0,9.881305686E0
2.283088859E0,8.793623000E-2,-9.750752151E-2,9.873384476E0,9.874257517E0
2.285534067E0,9.990034252E-2,-8.315058798E-2,9.882955551E0,9.883810223E0
2.287978442E0,8.075776696E-2,-9.990034252E-2,9.868598938E0,9.869434984E0
2.290422036E0,8.075776696E-2,-7.597211748E-2,9.873384476E0,9.874007018E0
2.292866515E0,9.750752151E-2,-9.032905847E-2,9.878170013E0,9.879064220E0
2.295311723E0,8.315058798E-2,-9.032905847E-2,9.897313118E0,9.898074576E0
2.297756046E0,8.075776696E-2,-1.022931710E-1,9.875777245E0,9.876637175E0
2.300199692E0,7.357929647E-2,-9.032905847E-2,9.859027863E0,9.859716205E0
2.302644171E0,9.990034252E-2,-8.075776696E-2,9.875777245E0,9.876612682E0
2.305089379E0,8.315058798E-2,-8.315058798E-2,9.882955551E0,9.883655117E0
2.307533702E0,8.793623000E-2,-9.750752151E-2,9.885348320E0,9.886220304E0
2.309977348E0,6.640082598E-2,-8.075776696E-2,9.873384476E0,9.873938013E0
2.312421723E0,7.597211748E-2,-9.511470050E-2,9.880562782E0,9.881312639E0
2.314866984E0,8.793623000E-2,-9.272187948E-2,9.890133858E0,9.890959400E0
2.317311359E0,6.879365444E-2,-9.032905847E-2,9.890133858E0,9.890785592E0
2.319755004E0,7.357929647E-2,-9.032905847E-2,9.892526627E0,9.893212638E0
2.322199379E0,7.597211748E-2,-1.046859920E-1,9.887741089E0,9.888587096E0
2.324644640E0,6.879365444E-2,-8.315058798E-2,9.868598938E0,9.869189003E0
2.327089015E0,8.315058798E-2,-1.070788130E-1,9.911669731E0,9.912596872E0
2.329532609E0,8.793623000E-2,-9.032905847E-2,9.873384476E0,9.874189239E0
2.331977088E0,6.879365444E-2,-8.793623000E-2,9.885348320E0,9.885978796E0
2.334422296E0,9.032905847E-2,-9.511470050E-2,9.890133858E0,9.891003684E0
2.336866671E0,7.597211748E-2,-8.554340899E-2,9.890133858E0,9.890795578E0
2.339310265E0,7.836493850E-2,-8.315058798E-2,9.897313118E0,9.897972623E0
2.341754744E0,8.793623000E-2,-7.118647546E-2,9.863813400E0,9.864462230E0
2.344199952E0,7.836493850E-2,-8.315058798E-2,9.870991707E0,9.871652970E0
2.346644275E0,9.511470050E-2,-9.511470050E-2,9.882955551E0,9.883870904E0
2.349087921E0,8.793623000E-2,-7.597211748E-2,9.861420631E0,9.862105324E0
2.351532400E0,9.032905847E-2,-8.075776696E-2,9.882955551E0,9.883698275E0
2.353977609E0,9.032905847E-2,-6.879365444E-2,9.870991707E0,9.871644705E0
2.356421932E0,9.032905847E-2,-9.032905847E-2,9.892526627E0,9.893351390E0
2.358865577E0,9.511470050E-2,-8.554340899E-2,9.892526627E0,9.893353705E0
2.361309952E0,6.879365444E-2,-8.793623000E-2,9.875777245E0,9.876408332E0
2.363755213E0,7.836493850E-2,-9.511470050E-2,9.902098656E0,9.902865528E0
2.366199588E0,6.879365444E-2,-9.032905847E-2,9.897313118E0,9.897964380E0
2.368643182E0,8.315058798E-2,-9.511470050E-2,9.882955551E0,9.883763011E0
2.371087661E0,7.597211748E-2,-9.272187948E-2,9.863813400E0,9.864541748E0
2.373532869E0,7.357929647E-2,-7.118647546E-2,9.897313118E0,9.897842613E0
2.375977244E0,6.640082598E-2,-8.315058798E-2,9.880562782E0,9.881135764E0
2.378420838E0,8.315058798E-2,-9.511470050E-2,9.880562782E0,9.881370437E0
2.380865317E0,6.161518395E-2,-9.272187948E-2,9.880562782E0,9.881189942E0
2.383310525E0,8.793623000E-2,-1.046859920E-1,9.892526627E0,9.893471332E0
2.385754900E0,8.315058798E-2,-1.118644550E-1,9.887741089E0,9.888723452E0
2.388198494E0,9.511470050E-2,-9.511470050E-2,9.882955551E0,9.883870904E0
2.390642973E0,6.879365444E-2,-1.022931710E-1,9.894919395E0,9.895687258E0
2.393088182E0,7.357929647E-2,-9.272187948E-2,9.887741089E0,9.888449580E0
2.395532504E0,7.836493850E-2,-8.554340899E-2,9.882955551E0,9.883636434E0
2.397976150E0,8.075776696E-2,-1.142572835E-1,9.882955551E0,9.883945921E0
2.400420629E0,7.118647546E-2,-8.315058798E-2,9.892526627E0,9.893132193E0
2.402865786E0,7.836493850E-2,-9.032905847E-2,9.887741089E0,9.888464200E0
2.405310161E0,7.597211748E-2,-9.750752151E-2,9.887741089E0,9.888513706E0
2.407753754E0,9.272187948E-2,-1.070788130E-1,9.899705887E0,9.900719159E0
2.410198234E0,9.511470050E-2,-9.272187948E-2,9.866206169E0,9.867100300E0
2.412643442E0,7.357929647E-2,-6.640082598E-2,9.885348320E0,9.885845153E0
2.415087817E0,6.879365444E-2,-9.032905847E-2,9.902098656E0,9.902749603E0
2.417531411E0,6.400800496E-2,-8.793623000E-2,9.882955551E0,9.883554028E0
2.419975890E0,8.554340899E-2,-8.793623000E-2,9.870991707E0,9.871754035E0
2.422421098E0,8.554340899E-2,-1.070788130E-1,9.880562782E0,9.881513267E0
2.424865473E0,8.793623000E-2,-9.990034252E-2,9.882955551E0,9.883851642E0
2.427309067E0,8.315058798E-2,-1.046859920E-1,9.878170013E0,9.879074653E0
2.429753546E0,9.272187948E-2,-1.046859920E-1,9.870991707E0,9.871982262E0
2.432198754E0,8.075776696E-2,-8.793623000E-2,9.861420631E0,9.862143351E0
2.434643077E0,6.640082598E-2,-1.070788130E-1,9.887741089E0,9.888543815E0
2.437086723E0,7.597211748E-2,-1.094716340E-1,9.906884193E0,9.907780287E0
2.439531202E0,7.357929647E-2,-8.075776696E-2,9.890133858E0,9.890737255E0
2.441976411E0,9.032905847E-2,-8.793623000E-2,9.887741089E0,9.888544684E0
2.444420734E0,7.836493850E-2,-8.554340899E-2,9.878170013E0,9.878851226E0
2.446864379E0,7.836493850E-2,-9.272187948E-2,9.875777245E0,9.876523406E0
2.449308754E0,8.315058798E-2,-8.075776696E-2,9.885348320E0,9.886027880E0
2.451754015E0,7.597211748E-2,-9.032905847E-2,9.892526627E0,9.893230724E0
2.454198390E0,9.032905847E-2,-8.793623000E-2,9.897313118E0,9.898115936E0
2.456641984E0,6.400800496E-2,-9.750752151E-2,9.885348320E0,9.886036423E0
2.459086463E0,7.357929647E-2,-9.511470050E-2,9.870991707E0,9.871724165E0
2.461531671E0,7.357929647E-2,-9.272187948E-2,9.859027863E0,9.859738417E0
2.463976046E0,7.118647546E-2,-9.272187948E-2,9.882955551E0,9.883646862E0
2.466419640E0,7.597211748E-2,-8.793623000E-2,9.870991707E0,9.871675735E0
2.468864119E0,6.161518395E-2,-9.511470050E-2,9.880562782E0,9.881212685E0
2.471309327E0,9.272187948E-2,-7.836493850E-2,9.897313118E0,9.898057656E0
2.473753702E0,6.640082598E-2,-1.046859920E-1,9.887741089E0,9.888518194E0
2.476197296E0,7.118647546E-2,-9.272187948E-2,9.875777245E0,9.876469058E0
2.478641775E0,8.075776696E-2,-9.032905847E-2,9.878170013E0,9.878913097E0
2.481086984E0,7.597211748E-2,-9.990034252E-2,9.870991707E0,9.871789560E0
2.483531307E0,6.640082598E-2,-9.511470050E-2,9.875777245E0,9.876458478E0
2.485974952E0,8.554340899E-2,-8.793623000E-2,9.885348320E0,9.886109541E0
2.488419432E0,9.032905847E-2,-1.046859920E-1,9.851848602E0,9.852818854E0
2.490864588E0,7.836493850E-2,-9.272187948E-2,9.885348320E0,9.886093759E0
2.493308963E0,9.272187948E-2,-8.793623000E-2,9.880562782E0,9.881389124E0
2.495752609E0,7.597211748E-2,-9.750752151E-2,9.870991707E0,9.871765635E0
2.498196984E0,7.597211748E-2,-7.597211748E-2,9.863813400E0,9.864398528E0
2.500642244E0,7.118647546E-2,-9.511470050E-2,9.863813400E0,9.864528834E0
2.503086619E0,7.118647546E-2,-9.272187948E-2,9.878170013E0,9.878861659E0
2.505530213E0,8.075776696E-2,-8.075776696E-2,9.890133858E0,9.890793262E0
2.507974692E0,9.511470050E-2,-9.272187948E-2,9.880562782E0,9.881455614E0
2.510419900E0,8.554340899E-2,-8.554340899E-2,9.878170013E0,9.878910778E0
2.512864275E0,7.597211748E-2,-8.793623000E-2,9.866206169E0,9.866890529E0
2.515307869E0,5.443671346E-2,-7.836493850E-2,9.894919395E0,9.895379440E0
2.517752348E0,7.836493850E-2,-9.511470050E-2,9.875777245E0,9.876546160E0
2.520197557E0,8.075776696E-2,-9.272187948E-2,9.866206169E0,9.866972349E0
2.522641879E0,7.836493850E-2,-9.272187948E-2,9.887741089E0,9.888486348E0
2.525085525E0,8.315058798E-2,-9.990034252E-2,9.868598938E0,9.869454853E0
2.527530004E0,8.793623000E-2,-8.793623000E-2,9.873384476E0,9.874167639E0
2.529975213E0,6.640082598E-2,-8.315058798E-2,9.892526627E0,9.893098915E0
2.532419536E0,7.118647546E-2,-8.315058798E-2,9.873384476E0,9.873991216E0
2.534863182E0,7.597211748E-2,-9.990034252E-2,9.894919395E0,9.895715319E0
2.537307557E0,7.118647546E-2,-8.554340899E-2,9.880562782E0,9.881189508E0
2.539752817E0,7.118647546E-2,-8.315058798E-2,9.897313118E0,9.897918392E0
2.542197192E0,9.032905847E-2,-8.315058798E-2,9.885348320E0,9.886110700E0
2.544640838E0,8.315058798E-2,-7.836493850E-2,9.875777245E0,9.876438187E0
2.547085213E0,7.836493850E-2,-9.750752151E-2,9.875777245E0,9.876569494E0
2.549530473E0,6.161518395E-2,-9.511470050E-2,9.885348320E0,9.885997908E0
2.551974848E0,8.075776696E-2,-1.094716340E-1,9.887741089E0,9.888676843E0
2.554418442E0,9.032905847E-2,-8.315058798E-2,9.870991707E0,9.871755195E0
2.556862921E0,7.118647546E-2,-9.511470050E-2,9.878170013E0,9.878884407E0
2.559308129E0,6.640082598E-2,-9.750752151E-2,9.880562782E0,9.881267008E0
2.561752504E0,8.315058798E-2,-1.046859920E-1,9.887741089E0,9.888644852E0
2.564196098E0,7.597211748E-2,-1.046859920E-1,9.873384476E0,9.874231713E0
2.566640577E0,8.315058798E-2,-8.075776696E-2,9.894919395E0,9.895598298E0
2.569085786E0,9.032905847E-2,-8.315058798E-2,9.868598938E0,9.869362612E0
2.571530109E0,8.554340899E-2,-8.793623000E-2,9.899705887E0,9.900466004E0
2.573973754E0,6.879365444E-2,-7.597211748E-2,9.880562782E0,9.881094333E0
2.576418234E0,9.750752151E-2,-8.315058798E-2,9.890133858E0,9.890964031E0
2.578863442E0,7.357929647E-2,-1.166501045E-1,9.868598938E0,9.869562612E0
2.581307765E0,9.272187948E-2,-9.511470050E-2,9.880562782E0,9.881455614E0
2.583751411E0,7.836493850E-2,-6.640082598E-2,9.909276962E0,9.909809284E0
2.586195786E0,6.640082598E-2,-8.793623000E-2,9.880562782E0,9.881177194E0
2.588641046E0,8.793623000E-2,-7.597211748E-2,9.873384476E0,9.874068338E0
2.591085421E0,7.357929647E-2,-9.511470050E-2,9.859027863E0,9.859761210E0
2.593529015E0,7.118647546E-2,-8.075776696E-2,9.885348320E0,9.885934490E0
2.595973494E0,6.879365444E-2,-1.022931710E-1,9.880562782E0,9.881331760E0
2.598418702E0,8.315058798E-2,-7.836493850E-2,9.870991707E0,9.871652970E0
2.600863077E0,9.511470050E-2,-9.511470050E-2,9.861420631E0,9.862337983E0
2.603306671E0,9.032905847E-2,-9.750752151E-2,9.878170013E0,9.879064220E0
2.605751150E0,9.032905847E-2,-9.990034252E-2,9.880562782E0,9.881480674E0
2.608196359E0,9.511470050E-2,-8.315058798E-2,9.875777245E0,9.876585291E0
2.610640734E0,9.750752151E-2,-8.315058798E-2,9.868598938E0,9.869430923E0
2.613084327E0,9.272187948E-2,-8.793623000E-2,9.873384476E0,9.874211418E0
2.615528807E0,6.879365444E-2,-8.315058798E-2,9.866206169E0,9.866796378E0
2.617974015E0,9.032905847E-2,-9.272187948E-2,9.897313118E0,9.898159609E0
2.620418338E0,7.597211748E-2,-9.511470050E-2,9.870991707E0,9.871742290E0
2.622861984E0,9.032905847E-2,-1.022931710E-1,9.856635094E0,9.857579754E0
2.625306463E0,8.075776696E-2,-9.511470050E-2,9.873384476E0,9.874172858E0
2.627751671E0,8.075776696E-2,-9.272187948E-2,9.887741089E0,9.888505600E0
2.630195994E0,8.793623000E-2,-1.022931710E-1,9.882955551E0,9.883876117E0
2.632639640E0,7.118647546E-2,-9.750752151E-2,9.897313118E0,9.898049413E0
2.635084015E0,8.315058798E-2,-8.315058798E-2,9.887741089E0,9.888440316E0
2.637529275E0,9.272187948E-2,-8.075776696E-2,9.863813400E0,9.864579766E0
2.639973650E0,9.032905847E-2,-9.272187948E-2,9.909276962E0,9.910122431E0
2.642417244E0,8.554340899E-2,-9.511470050E-2,9.890133858E0,9.890961137E0
2.644861723E0,8.315058798E-2,-9.990034252E-2,9.875777245E0,9.876632538E0
2.647306932E0,7.597211748E-2,-8.793623000E-2,9.897313118E0,9.897995327E0
2.649751307E0,7.597211748E-2,-8.315058798E-2,9.878170013E0,9.878812105E0
2.652194900E0,6.879365444E-2,-8.315058798E-2,9.870991707E0,9.871581629E0
2.654639379E0,9.032905847E-2,-8.075776696E-2,9.882955551E0,9.883698275E0
2.657084588E0,7.836493850E-2,-9.272187948E-2,9.882955551E0,9.883701171E0
2.659528963E0,8.075776696E-2,-8.315058798E-2,9.880562782E0,9.881242671E0
2.661972557E0,7.118647546E-2,-7.357929647E-2,9.880562782E0,9.881093174E0
2.664417036E0,6.879365444E-2,-8.075776696E-2,9.878170013E0,9.878739656E0
2.666862244E0,8.075776696E-2,-8.554340899E-2,9.890133858E0,9.890833494E0
2.669306567E0,6.400800496E-2,-9.750752151E-2,9.906884193E0,9.907570800E0
2.671750213E0,9.032905847E-2,-1.046859920E-1,9.863813400E0,9.864782476E0
2.674194588E0,7.357929647E-2,-1.070788130E-1,9.890133858E0,9.890987186E0
2.676639848E0,1.046859920E-1,-1.022931710E-1,9.906884193E0,9.907965355E0
2.679084223E0,8.075776696E-2,-9.990034252E-2,9.897313118E0,9.898146738E0
2.681527869E0,9.032905847E-2,-1.070788130E-1,9.890133858E0,9.891125969E0
2.683972244E0,9.511470050E-2,-9.032905847E-2,9.873384476E0,9.874255777E0
2.686417504E0,6.879365444E-2,-7.836493850E-2,9.887741089E0,9.888290928E0
2.688861879E0,6.400800496E-2,-9.272187948E-2,9.875777245E0,9.876419926E0
2.691305473E0,7.836493850E-2,-9.750752151E-2,9.894919395E0,9.895710112E0
2.693749952E0,8.315058798E-2,-8.554340899E-2,9.875777245E0,9.876497754E0
2.696195161E0,7.118647546E-2,-8.075776696E-2,9.890133858E0,9.890719744E0
2.698639536E0,8.315058798E-2,-9.511470050E-2,9.875777245E0,9.876585291E0
2.701083129E0,9.990034252E-2,-8.315058798E-2,9.866206169E0,9.867062292E0
2.703527609E0,6.400800496E-2,-8.075776696E-2,9.870991707E0,9.871529573E0
2.705972817E0,9.511470050E-2,-1.142572835E-1,9.878170013E0,9.879288656E0
2.708417192E0,8.075776696E-2,-1.070788130E-1,9.882955551E0,9.883865545E0
2.710860786E0,8.075776696E-2,-8.793623000E-2,9.870991707E0,9.871713725E0
2.713305265E0,7.836493850E-2,-9.750752151E-2,9.885348320E0,9.886139802E0
2.715750421E0,6.161518395E-2,-1.022931710E-1,9.885348320E0,9.886069580E0
2.718194796E0,6.640082598E-2,-9.990034252E-2,9.887741089E0,9.888468688E0
2.720638442E0,9.032905847E-2,-8.554340899E-2,9.878170013E0,9.878953377E0
2.723082817E0,7.597211748E-2,-1.046859920E-1,9.870991707E0,9.871839150E0
2.725528077E0,8.315058798E-2,-9.511470050E-2,9.880562782E0,9.881370437E0
2.727972452E0,6.400800496E-2,-8.315058798E-2,9.894919395E0,9.895475779E0
2.730416046E0,7.357929647E-2,-9.032905847E-2,9.894919395E0,9.895605241E0
2.732860525E0,6.640082598E-2,-8.793623000E-2,9.894919395E0,9.895532916E0
2.735305734E0,7.836493850E-2,-8.315058798E-2,9.873384476E0,9.874045579E0
2.737750109E0,9.750752151E-2,-8.315058798E-2,9.882955551E0,9.883786327E0
2.740193702E0,8.075776696E-2,-1.142572835E-1,9.878170013E0,9.879160863E0
2.742638182E0,8.554340899E-2,-9.032905847E-2,9.863813400E0,9.864597904E0
2.745083390E0,6.879365444E-2,-9.990034252E-2,9.882955551E0,9.883699868E0
2.747527765E0,6.879365444E-2,-7.836493850E-2,9.882955551E0,9.883505656E0
2.749971359E0,9.032905847E-2,-8.315058798E-2,9.897313118E0,9.898074576E0
2.752415838E0,9.750752151E-2,-1.046859920E-1,9.870991707E0,9.872028371E0
2.754861046E0,9.750752151E-2,-1.022931710E-1,9.873384476E0,9.874395810E0
2.757305369E0,7.597211748E-2,-9.032905847E-2,9.899705887E0,9.900409474E0
2.759749015E0,8.793623000E-2,-9.990034252E-2,9.892526627E0,9.893421851E0
2.762193390E0,8.554340899E-2,-9.272187948E-2,9.885348320E0,9.886153268E0
2.764638650E0,8.793623000E-2,-6.879365444E-2,9.885348320E0,9.885978796E0
2.767083025E0,7.357929647E-2,-8.793623000E-2,9.880562782E0,9.881228040E0
2.769526671E0,7.118647546E-2,-8.793623000E-2,9.897313118E0,9.897959752E0
2.771971046E0,7.118647546E-2,-1.070788130E-1,9.882955551E0,9.883791975E0
2.774416307E0,9.272187948E-2,-7.836493850E-2,9.856635094E0,9.857382704E0
2.776860682E0,9.032905847E-2,-9.990034252E-2,9.885348320E0,9.886265767E0
2.779304275E0,7.836493850E-2,-9.272187948E-2,9.899705887E0,9.900450245E0
2.781748754E0,8.315058798E-2,-8.554340899E-2,9.892526627E0,9.893245916E0
2.784193963E0,5.443671346E-2,-7.836493850E-2,9.880562782E0,9.881023495E0
2.786638338E0,8.554340899E-2,-9.990034252E-2,9.880562782E0,9.881438086E0
2.789081932E0,9.750752151E-2,-7.836493850E-2,9.880562782E0,9.881354648E0
2.791526411E0,1.070788130E-1,-9.990034252E-2,9.894919395E0,9.896003021E0
2.793971619E0,9.032905847E-2,-9.750752151E-2,9.882955551E0,9.883849325E0
2.796415942E0,9.272187948E-2,-9.990034252E-2,9.911669731E0,9.912606836E0
2.798859588E0,9.990034252E-2,-1.022931710E-1,9.887741089E0,9.888774839E0
2.801304067E0,8.075776696E-2,-9.032905847E-2,9.887741089E0,9.888483453E0
2.803749275E0,7.357929647E-2,-8.075776696E-2,9.856635094E0,9.857240542E0
2.806193598E0,8.315058798E-2,-9.511470050E-2,9.870991707E0,9.871800145E0
2.808637244E0,8.315058798E-2,-8.554340899E-2,9.882955551E0,9.883675537E0
2.811081619E0,8.554340899E-2,-9.990034252E-2,9.914062500E0,9.914934846E0
2.813526879E0,8.315058798E-2,-1.046859920E-1,9.890133858E0,9.891037403E0
2.815971254E0,1.022931710E-1,-1.070788130E-1,9.878170013E0,9.879279963E0
2.818414848E0,1.142572835E-1,-8.315058798E-2,9.906884193E0,9.907891964E0
2.820859327E0,8.793623000E-2,-9.032905847E-2,9.897313118E0,9.898115936E0
2.823304536E0,9.032905847E-2,-9.032905847E-2,9.885348320E0,9.886173683E0
2.825748911E0,9.511470050E-2,-9.511470050E-2,9.849455833E0,9.850374299E0
2.828192504E0,7.836493850E-2,-1.070788130E-1,9.880562782E0,9.881453731E0
2.830636984E0,6.400800496E-2,-8.554340899E-2,9.882955551E0,9.883533029E0
2.833082192E0,7.357929647E-2,-9.990034252E-2,9.897313118E0,9.898090773E0
2.835526567E0,7.597211748E-2,-9.990034252E-2,9.892526627E0,9.893322743E0
2.837970161E0,7.836493850E-2,-9.272187948E-2,9.880562782E0,9.881308583E0
2.840414640E0,8.793623000E-2,-1.070788130E-1,9.880562782E0,9.881534271E0
2.842859848E0,8.075776696E-2,-7.836493850E-2,9.882955551E0,9.883596173E0
2.845304171E0,8.793623000E-2,-9.272187948E-2,9.866206169E0,9.867033713E0
2.847747817E0,6.640082598E-2,-8.075776696E-2,9.875777245E0,9.876330648E0
2.850192192E0,7.357929647E-2,-7.836493850E-2,9.887741089E0,9.888325380E0
2.852637452E0,9.511470050E-2,-9.990034252E-2,9.873384476E0,9.874347973E0
2.855081827E0,9.032905847E-2,-1.142572835E-1,9.870991707E0,9.872066214E0
2.857525473E0,7.357929647E-2,-1.046859920E-1,9.890133858E0,9.890961571E0
2.859969848E0,8.793623000E-2,-8.793623000E-2,9.894919395E0,9.895700855E0
2.862415109E0,5.682953820E-2,-8.075776696E-2,9.887741089E0,9.888234183E0
2.864859484E0,7.836493850E-2,-9.032905847E-2,9.875777245E0,9.876501232E0
2.867303077E0,9.032905847E-2,-9.511470050E-2,9.878170013E0,9.879040893E0
2.869747557E0,9.990034252E-2,-1.046859920E-1,9.894919395E0,9.895977419E0
2.872192765E0,9.511470050E-2,-1.022931710E-1,9.875777245E0,9.876765001E0
2.874637140E0,8.315058798E-2,-7.357929647E-2,9.890133858E0,9.890757082E0
2.877080734E0,6.400800496E-2,-8.554340899E-2,9.890133858E0,9.890710916E0
2.879525213E0,8.075776696E-2,-1.046859920E-1,9.875777245E0,9.876662248E0
2.881970421E0,8.075776696E-2,-8.315058798E-2,9.897313118E0,9.897991857E0
2.884414744E0,7.118647546E-2,-9.511470050E-2,9.866206169E0,9.866921429E0
2.886858390E0,6.640082598E-2,-8.793623000E-2,9.890133858E0,9.890747675E0
2.889302869E0,7.357929647E-2,-9.272187948E-2,9.887741089E0,9.888449580E0
2.891748077E0,9.272187948E-2,-9.272187948E-2,9.870991707E0,9.871862639E0
2.894192400E0,7.597211748E-2,-9.511470050E-2,9.868598938E0,9.869349703E0
2.896636046E0,7.836493850E-2,-8.793623000E-2,9.906884193E0,9.907584381E0
2.899080421E0,8.315058798E-2,-1.166501045E-1,9.899705887E0,9.900742291E0
2.901525682E0,7.118647546E-2,-9.511470050E-2,9.875777245E0,9.876491812E0
2.903970057E0,8.315058798E-2,-8.793623000E-2,9.882955551E0,9.883696537E0
2.906413702E0,7.118647546E-2,-9.750752151E-2,9.873384476E0,9.874122555E0
2.908858077E0,8.075776696E-2,-6.879365444E-2,9.885348320E0,9.885917549E0
2.911303338E0,9.032905847E-2,-9.750752151E-2,9.880562782E0,9.881456773E0
2.913747713E0,8.075776696E-2,-8.315058798E-2,9.875777245E0,9.876457463E0
2.916191307E0,7.118647546E-2,-9.750752151E-2,9.880562782E0,9.881300326E0
2.918635786E0,8.075776696E-2,-9.990034252E-2,9.870991707E0,9.871827550E0
2.921080994E0,5.922235921E-2,-9.272187948E-2,9.856635094E0,9.857249109E0
2.923525369E0,8.315058798E-2,-9.032905847E-2,9.885348320E0,9.886110700E0
2.925968963E0,8.315058798E-2,-9.990034252E-2,9.878170013E0,9.879025099E0
2.928413442E0,8.793623000E-2,-8.554340899E-2,9.875777245E0,9.876539204E0
2.930858650E0,7.836493850E-2,-1.094716340E-1,9.909276962E0,9.910191472E0
2.933302973E0,7.836493850E-2,-8.793623000E-2,9.882955551E0,9.883657434E0
2.935746619E0,9.511470050E-2,-8.793623000E-2,9.885348320E0,9.886196994E0
2.938190994E0,7.836493850E-2,-9.511470050E-2,9.875777245E0,9.876546160E0
2.940636254E0,8.315058798E-2,-8.793623000E-2,9.897313118E0,9.898053029E0
2.943080629E0,8.315058798E-2,-7.357929647E-2,9.880562782E0,9.881186610E0
2.945524275E0,7.597211748E-2,-9.032905847E-2,9.892526627E0,9.893230724E0
2.947968650E0,8.075776696E-2,-7.118647546E-2,9.890133858E0,9.890719744E0
2.950413911E0,7.118647546E-2,-9.990034252E-2,9.863813400E0,9.864576138E0
2.952858286E0,9.272187948E-2,-9.032905847E-2,9.885348320E0,9.886195835E0
2.955301879E0,8.315058798E-2,-9.750752151E-2,9.878170013E0,9.879001192E0
2.957746359E0,1.022931710E-1,-7.357929647E-2,9.890133858E0,9.890936534E0
2.960191567E0,8.554340899E-2,-9.750752151E-2,9.897313118E0,9.898163079E0
2.962635942E0,8.315058798E-2,-1.022931710E-1,9.880562782E0,9.881442142E0
2.965079536E0,9.750752151E-2,-9.990034252E-2,9.894919395E0,9.895904084E0
2.967524015E0,8.554340899E-2,-7.836493850E-2,9.856635094E0,9.857317795E0
2.969969223E0,7.118647546E-2,-8.315058798E-2,9.870991707E0,9.871598595E0
2.972413598E0,6.879365444E-2,-8.075776696E-2,9.873384476E0,9.873954395E0
2.974857192E0,9.032905847E-2,-9.750752151E-2,9.882955551E0,9.883849325E0
2.977301671E0,8.793623000E-2,-8.554340899E-2,9.892526627E0,9.893287296E0
2.979746879E0,7.357929647E-2,-8.554340899E-2,9.894919395E0,9.895562714E0
2.982191202E0,8.315058798E-2,-8.075776696E-2,9.882955551E0,9.883635276E0
2.984634848E0,7.118647546E-2,-9.750752151E-2,9.892526627E0,9.893263278E0
2.987079223E0,6.640082598E-2,-9.032905847E-2,9.870991707E0,9.871628320E0
2.989524484E0,7.836493850E-2,-7.597211748E-2,9.854242325E0,9.854846758E0
2.991968859E0,8.554340899E-2,-8.075776696E-2,9.870991707E0,9.871692700E0
2.994412452E0,6.640082598E-2,-8.075776696E-2,9.868598938E0,9.869152744E0
2.996856932E0,8.793623000E-2,-7.118647546E-2,9.878170013E0,9.878817900E0
2.999302140E0,9.511470050E-2,-7.357929647E-2,9.866206169E0,9.866938983E0
3.001746515E0,6.879365444E-2,-9.511470050E-2,9.885348320E0,9.886045255E0
3.004190109E0,7.597211748E-2,-9.511470050E-2,9.892526627E0,9.893275576E0
3.006634588E0,7.118647546E-2,-7.836493850E-2,9.866206169E0,9.866774182E0
3.009079796E0,7.118647546E-2,-1.022931710E-1,9.892526627E0,9.893311603E0
3.011524171E0,8.315058798E-2,-9.511470050E-2,9.854242325E0,9.855052137E0
3.013967765E0,8.793623000E-2,-9.750752151E-2,9.885348320E0,9.886220304E0
3.016412244E0,7.597211748E-2,-9.272187948E-2,9.880562782E0,9.881289896E0
3.018857452E0,8.315058798E-2,-8.554340899E-2,9.882955551E0,9.883675537E0
3.021301775E0,7.357929647E-2,-9.032905847E-2,9.887741089E0,9.888427433E0
3.023745421E0,8.315058798E-2,-8.793623000E-2,9.873384476E0,9.874126179E0
3.026189796E0,9.272187948E-2,-1.046859920E-1,9.887741089E0,9.888729966E0
3.028635057E0,8.554340899E-2,-7.836493850E-2,9.854242325E0,9.854925192E0
3.031079432E0,8.793623000E-2,-8.315058798E-2,9.902098656E0,9.902838209E0
3.033523077E0,9.511470050E-2,-7.118647546E-2,9.878170013E0,9.878884407E0
3.035967452E0,7.597211748E-2,-1.022931710E-1,9.887741089E0,9.888562054E0
3.038412713E0,8.315058798E-2,-8.793623000E-2,9.880562782E0,9.881303947E0
3.040857088E0,7.836493850E-2,-9.750752151E-2,9.902098656E0,9.902888799E0
3.043300682E0,7.118647546E-2,-7.836493850E-2,9.875777245E0,9.876344707E0
3.045745161E0,7.597211748E-2,-8.315058798E-2,9.880562782E0,9.881204718E0
3.048190369E0,8.315058798E-2,-1.046859920E-1,9.892526627E0,9.893429953E0
3.050634744E0,9.272187948E-2,-1.022931710E-1,9.880562782E0,9.881527318E0
3.053078338E0,9.272187948E-2,-9.511470050E-2,9.887741089E0,9.888633272E0
3.055522817E0,7.118647546E-2,-9.990034252E-2,9.863813400E0,9.864576138E0
3.057968025E0,7.357929647E-2,-9.272187948E-2,9.894919395E0,9.895627373E0
3.060412348E0,8.315058798E-2,-9.990034252E-2,9.878170013E0,9.879025099E0
3.062855994E0,7.597211748E-2,-8.554340899E-2,9.906884193E0,9.907544795E0
3.065300473E0,8.793623000E-2,-8.075776696E-2,9.902098656E0,9.902818406E0
3.067745629E0,9.511470050E-2,-8.315058798E-2,9.875777245E0,9.876585291E0
3.070190004E0,6.879365444E-2,-9.511470050E-2,9.890133858E0,9.890830455E0
3.072633650E0,8.793623000E-2,-1.022931710E-1,9.873384476E0,9.874305934E0
3.075078025E0,8.075776696E-2,-9.032905847E-2,9.882955551E0,9.883698275E0
3.077523286E0,7.597211748E-2,-9.511470050E-2,9.887741089E0,9.888490401E0
3.079967661E0,8.793623000E-2,-9.032905847E-2,9.880562782E0,9.881366961E0
3.082411254E0,9.990034252E-2,-1.022931710E-1,9.885348320E0,9.886382320E0
3.084855734E0,9.990034252E-2,-7.597211748E-2,9.904491425E0,9.905286579E0
3.087300942E0,9.511470050E-2,-9.511470050E-2,9.885348320E0,9.886263451E0
3.089745317E0,8.315058798E-2,-8.793623000E-2,9.882955551E0,9.883696537E0
3.092188911E0,8.554340899E-2,-8.075776696E-2,9.882955551E0,9.883655696E0
3.094633390E0,8.554340899E-2,-7.357929647E-2,9.887741089E0,9.888384875E0
3.097078598E0,8.075776696E-2,-9.272187948E-2,9.897313118E0,9.898076890E0
3.099522973E0,8.554340899E-2,-7.357929647E-2,9.851848602E0,9.852494733E0
3.101966567E0,9.990034252E-2,-9.032905847E-2,9.892526627E0,9.893443408E0
3.104411046E0,8.315058798E-2,-9.511470050E-2,9.887741089E0,9.888548158E0
3.106856254E0,7.357929647E-2,-9.750752151E-2,9.890133858E0,9.890888198E0
3.109300577E0,7.357929647E-2,-9.511470050E-2,9.894919395E0,9.895650083E0
3.111744223E0,7.118647546E-2,-9.272187948E-2,9.887741089E0,9.888432065E0
3.114188702E0,8.315058798E-2,-7.357929647E-2,9.890133858E0,9.890757082E0
3.116633859E0,8.315058798E-2,-8.554340899E-2,9.887741089E0,9.888460726E0
3.119078234E0,7.118647546E-2,-9.511470050E-2,9.870991707E0,9.871706620E0
3.121521827E0,7.357929647E-2,-9.750752151E-2,9.875777245E0,9.876532682E0
3.123966307E0,7.836493850E-2,-9.750752151E-2,9.887741089E0,9.888532380E0
3.126411515E0,6.161518395E-2,-7.118647546E-2,9.878170013E0,9.878618667E0
3.128855890E0,8.075776696E-2,-8.793623000E-2,9.885348320E0,9.886069290E0
3.131299484E0,8.793623000E-2,-9.511470050E-2,9.892526627E0,9.893374684E0
3.133743963E0,7.357929647E-2,-7.836493850E-2,9.894919395E0,9.895503263E0
3.136189171E0,8.075776696E-2,-9.272187948E-2,9.882955551E0,9.883720433E0
3.138633546E0,8.554340899E-2,-1.022931710E-1,9.866206169E0,9.867107263E0
3.141077140E0,8.554340899E-2,-7.597211748E-2,9.873384476E0,9.874047318E0
3.143521619E0,8.793623000E-2,-1.022931710E-1,9.868598938E0,9.869520843E0
3.145966827E0,8.554340899E-2,-8.315058798E-2,9.887741089E0,9.888460726E0
3.148411150E0,7.836493850E-2,-6.640082598E-2,9.870991707E0,9.871526093E0
3.150854796E0,8.793623000E-2,-9.272187948E-2,9.854242325E0,9.855070874E0
3.153299275E0,8.793623000E-2,-8.315058798E-2,9.868598938E0,9.869341001E0
3.155744484E0,6.640082598E-2,-9.272187948E-2,9.875777245E0,9.876435724E0
3.158188807E0,8.315058798E-2,-1.070788130E-1,9.885348320E0,9.886277930E0
3.160632452E0,8.793623000E-2,-1.022931710E-1,9.863813400E0,9.864735753E0
3.163076827E0,8.075776696E-2,-8.554340899E-2,9.863813400E0,9.864514904E0
3.165522088E0,9.750752151E-2,-7.836493850E-2,9.880562782E0,9.881354648E0
3.167966463E0,7.357929647E-2,-9.511470050E-2,9.880562782E0,9.881294531E0
3.170410057E0,8.554340899E-2,-7.597211748E-2,9.904491425E0,9.905152185E0
3.172854536E0,9.272187948E-2,-9.272187948E-2,9.885348320E0,9.886217988E0
3.175299744E0,7.118647546E-2,-9.032905847E-2,9.899705887E0,9.900373907E0
3.177744119E0,9.032905847E-2,-8.793623000E-2,9.887741089E0,9.888544684E0
3.180187713E0,6.400800496E-2,-9.511470050E-2,9.875777245E0,9.876442680E0
3.182632192E0,8.793623000E-2,-7.597211748E-2,9.890133858E0,9.890816562E0
3.185077400E0,8.315058798E-2,-9.990034252E-2,9.870991707E0,9.871847415E0
3.187521775E0,9.032905847E-2,-1.070788130E-1,9.892526627E0,9.893518498E0
3.189965369E0,9.990034252E-2,-9.990034252E-2,9.868598938E0,9.869610183E0
3.192409848E0,7.836493850E-2,-8.793623000E-2,9.882955551E0,9.883657434E0
3.194855057E0,8.793623000E-2,-9.511470050E-2,9.873384476E0,9.874234177E0
3.197299379E0,9.272187948E-2,-9.272187948E-2,9.890133858E0,9.891003105E0
3.199743025E0,8.075776696E-2,-9.511470050E-2,9.870991707E0,9.871780280E0
3.202187504E0,7.357929647E-2,-9.511470050E-2,9.878170013E0,9.878901940E0
3.204632661E0,8.554340899E-2,-9.511470050E-2,9.880562782E0,9.881390862E0
3.207077036E0,5.922235921E-2,-9.990034252E-2,9.878170013E0,9.878852675E0
3.209520682E0,8.075776696E-2,-8.315058798E-2,9.887741089E0,9.888420484E0
3.211965057E0,6.879365444E-2,-8.793623000E-2,9.873384476E0,9.874015716E0
3.214410317E0,7.357929647E-2,-8.554340899E-2,9.890133858E0,9.890777488E0
3.216854692E0,6.640082598E-2,-8.554340899E-2,9.885348320E0,9.885941440E0
3.219298286E0,8.075776696E-2,-9.511470050E-2,9.859027863E0,9.859817393E0
3.221742765E0,8.554340899E-2,-8.315058798E-2,9.880562782E0,9.881282943E0
3.224187973E0,1.046859920E-1,-1.046859920E-1,9.894919395E0,9.896026887E0
3.226632348E0,6.640082598E-2,-1.070788130E-1,9.866206169E0,9.867010647E0
3.229075942E0,5.922235921E-2,-8.554340899E-2,9.875777245E0,9.876325286E0
3.231520421E0,8.315058798E-2,-8.315058798E-2,9.887741089E0,9.888440316E0
3.233965629E0,7.118647546E-2,-9.272187948E-2,9.878170013E0,9.878861659E0
3.236409952E0,9.750752151E-2,-8.793623000E-2,9.890133858E0,9.891005420E0
3.238853598E0,5.682953820E-2,-8.315058798E-2,9.873384476E0,9.873898147E0
3.241298077E0,9.032905847E-2,-8.554340899E-2,9.875777245E0,9.876560798E0
3.243743286E0,6.400800496E-2,-8.075776696E-2,9.892526627E0,9.893063322E0
3.246187609E0,8.554340899E-2,-9.990034252E-2,9.890133858E0,9.891008314E0
3.248631254E0,8.554340899E-2,-8.315058798E-2,9.878170013E0,9.878890348E0
3.251075629E0,8.075776696E-2,-8.315058798E-2,9.870991707E0,9.871672255E0
3.253520890E0,7.597211748E-2,-8.075776696E-2,9.899705887E0,9.900326774E0
3.255965265E0,6.879365444E-2,-1.022931710E-1,9.873384476E0,9.874154013E0
3.258408859E0,9.032905847E-2,-8.554340899E-2,9.870991707E0,9.871775640E0
3.260853338E0,8.554340899E-2,-1.070788130E-1,9.875777245E0,9.876728190E0
3.263298546E0,8.554340899E-2,-9.750752151E-2,9.866206169E0,9.867058810E0
3.265742921E0,1.022931710E-1,-9.032905847E-2,9.866206169E0,9.867149913E0
3.268186515E0,8.793623000E-2,-9.272187948E-2,9.875777245E0,9.876603987E0
3.270630994E0,7.836493850E-2,-9.990034252E-2,9.892526627E0,9.893341407E0
3.273076202E0,5.922235921E-2,-9.032905847E-2,9.887741089E0,9.888331025E0
3.275520525E0,7.357929647E-2,-9.272187948E-2,9.875777245E0,9.876486594E0
3.277964171E0,7.836493850E-2,-8.315058798E-2,9.880562782E0,9.881223405E0
3.280408650E0,8.793623000E-2,-1.022931710E-1,9.878170013E0,9.879091025E0
3.282853807E0,9.032905847E-2,-8.793623000E-2,9.873384476E0,9.874189239E0
3.285298182E0,7.836493850E-2,-9.032905847E-2,9.878170013E0,9.878893826E0
3.287741827E0,9.272187948E-2,-9.032905847E-2,9.882955551E0,9.883803272E0
3.290186202E0,7.118647546E-2,-8.793623000E-2,9.880562782E0,9.881210512E0
3.292631463E0,9.511470050E-2,-8.793623000E-2,9.892526627E0,9.893374684E0
3.295075838E0,8.315058798E-2,-7.357929647E-2,9.885348320E0,9.885971846E0
3.297519432E0,1.022931710E-1,-9.511470050E-2,9.854242325E0,9.855232240E0
3.299963911E0,9.032905847E-2,-1.118644550E-1,9.868598938E0,9.869646295E0
3.302409119E0,8.315058798E-2,-9.272187948E-2,9.899705887E0,9.900489282E0
3.304853494E0,9.032905847E-2,-9.032905847E-2,9.904491425E0,9.905315192E0
3.307297088E0,8.075776696E-2,-9.272187948E-2,9.897313118E0,9.898076890E0
3.309741567E0,8.075776696E-2,-8.315058798E-2,9.892526627E0,9.893205694E0
3.312186775E0,6.400800496E-2,-1.022931710E-1,9.887741089E0,9.888477373E0
3.314631150E0,7.836493850E-2,-7.597211748E-2,9.894919395E0,9.895521344E0
3.317074744E0,6.400800496E-2,-8.075776696E-2,9.902098656E0,9.902634833E0
3.319519223E0,8.075776696E-2,-8.793623000E-2,9.868598938E0,9.869321131E0
3.321964432E0,9.272187948E-2,-9.990034252E-2,9.899705887E0,9.900644124E0
3.324408754E0,7.357929647E-2,-9.750752151E-2,9.875777245E0,9.876532682E0
3.326852400E0,6.161518395E-2,-9.032905847E-2,9.887741089E0,9.888345646E0
3.329296775E0,8.075776696E-2,-8.554340899E-2,9.878170013E0,9.878870497E0
3.331742036E0,7.597211748E-2,-9.750752151E-2,9.868598938E0,9.869373054E0
3.334186411E0,9.032905847E-2,-1.046859920E-1,9.904491425E0,9.905456520E0
3.336630057E0,7.836493850E-2,-9.272187948E-2,9.866206169E0,9.866953055E0
3.339074432E0,9.272187948E-2,-9.032905847E-2,9.906884193E0,9.907729867E0
3.341519692E0,8.554340899E-2,-8.315058798E-2,9.885348320E0,9.886068132E0
3.343964067E0,8.075776696E-2,-9.511470050E-2,9.902098656E0,9.902884752E0
3.346407661E0,7.836493850E-2,-8.554340899E-2,9.885348320E0,9.886029038E0
3.348852140E0,9.511470050E-2,-8.075776696E-2,9.875777245E0,9.876565436E0
3.351297348E0,9.511470050E-2,-9.990034252E-2,9.854242325E0,9.855207693E0
3.353741723E0,8.554340899E-2,-1.094716340E-1,9.870991707E0,9.871969357E0
3.356185317E0,7.836493850E-2,-8.075776696E-2,9.873384476E0,9.874025718E0
3.358629796E0,9.990034252E-2,-9.990034252E-2,9.892526627E0,9.893535425E0
3.361075004E0,7.357929647E-2,-9.272187948E-2,9.890133858E0,9.890842178E0
3.363519327E0,6.400800496E-2,-6.400800496E-2,9.899705887E0,9.900119731E0
3.365962973E0,9.032905847E-2,-9.032905847E-2,9.868598938E0,9.869425701E0
3.368407452E0,7.836493850E-2,-9.511470050E-2,9.875777245E0,9.876546160E0
3.370852609E0,8.554340899E-2,-1.070788130E-1,9.861420631E0,9.862372961E0
3.373296984E0,8.793623000E-2,-9.032905847E-2,9.880562782E0,9.881366961E0
3.375740629E0,6.161518395E-2,-1.094716340E-1,9.892526627E0,9.893324190E0
3.378185004E0,8.554340899E-2,-8.075776696E-2,9.887741089E0,9.888440895E0
3.380630265E0,8.554340899E-2,-9.511470050E-2,9.866206169E0,9.867035454E0
3.383074640E0,9.511470050E-2,-9.511470050E-2,9.873384476E0,9.874300715E0
3.385518234E0,9.511470050E-2,-8.554340899E-2,9.890133858E0,9.890961137E0
3.387962713E0,9.272187948E-2,-1.046859920E-1,9.878170013E0,9.879159849E0
3.390407921E0,7.836493850E-2,-1.118644550E-1,9.854242325E0,9.855188812E0
3.392852296E0,8.793623000E-2,-8.075776696E-2,9.882955551E0,9.883676696E0
3.395295890E0,8.075776696E-2,-8.075776696E-2,9.890133858E0,9.890793262E0
3.397740369E0,9.032905847E-2,-9.032905847E-2,9.856635094E0,9.857462861E0
3.400185577E0,8.075776696E-2,-9.990034252E-2,9.885348320E0,9.886182949E0
3.402629952E0,7.118647546E-2,-8.554340899E-2,9.890133858E0,9.890759977E0
3.405073546E0,8.315058798E-2,-7.836493850E-2,9.887741089E0,9.888401232E0
3.407518025E0,9.032905847E-2,-8.793623000E-2,9.890133858E0,9.890937258E0
3.409963234E0,7.836493850E-2,-8.793623000E-2,9.870991707E0,9.871694440E0
3.412407557E0,5.922235921E-2,-8.075776696E-2,9.863813400E0,9.864321766E0
3.414851202E0,7.597211748E-2,-1.094716340E-1,9.890133858E0,9.891031469E0
3.417295577E0,7.836493850E-2,-1.118644550E-1,9.878170013E0,9.879114208E0
3.419740838E0,9.272187948E-2,-7.836493850E-2,9.868598938E0,9.869345642E0
3.422185213E0,8.793623000E-2,-9.511470050E-2,9.882955551E0,9.883804430E0
3.424628859E0,8.793623000E-2,-9.032905847E-2,9.870991707E0,9.871796665E0
3.427073234E0,9.272187948E-2,-8.554340899E-2,9.866206169E0,9.867012678E0
3.429518494E0,7.597211748E-2,-8.554340899E-2,9.870991707E0,9.871654710E0
3.431962869E0,9.032905847E-2,-9.750752151E-2,9.875777245E0,9.876671668E0
3.434406463E0,6.640082598E-2,-9.272187948E-2,9.880562782E0,9.881220942E0
3.436850942E0,7.118647546E-2,-9.990034252E-2,9.885348320E0,9.886109397E0
3.439296150E0,6.879365444E-2,-9.032905847E-2,9.894919395E0,9.895570815E0
3.441740525E0,8.554340899E-2,-1.022931710E-1,9.859027863E0,9.859929612E0
3.444184119E0,7.597211748E-2,-8.315058798E-2,9.887741089E0,9.888382559E0
3.446628598E0,7.597211748E-2,-1.022931710E-1,9.875777245E0,9.876599204E0
3.449073807E0,7.597211748E-2,-9.750752151E-2,9.866206169E0,9.866980473E0
3.451518129E0,8.793623000E-2,-8.793623000E-2,9.880562782E0,9.881345377E0
3.453961775E0,8.315058798E-2,-6.879365444E-2,9.902098656E0,9.902686725E0
3.456406254E0,8.075776696E-2,-9.511470050E-2,9.892526627E0,9.893313483E0
3.458851411E0,9.990034252E-2,-8.075776696E-2,9.885348320E0,9.886182949E0
3.461295786E0,9.032905847E-2,-8.315058798E-2,9.885348320E0,9.886110700E0
3.463739432E0,1.070788130E-1,-1.022931710E-1,9.870991707E0,9.872102463E0
3.466183807E0,7.836493850E-2,-1.022931710E-1,9.904491425E0,9.905329643E0
3.468629067E0,5.443671346E-2,-1.094716340E-1,9.892526627E0,9.893282087E0
3.471073442E0,9.032905847E-2,-9.032905847E-2,9.892526627E0,9.893351390E0
3.473517036E0,8.793623000E-2,-1.022931710E-1,9.870991707E0,9.871913388E0
3.475961515E0,9.032905847E-2,-1.094716340E-1,9.887741089E0,9.888759640E0
3.478406723E0,8.554340899E-2,-9.272187948E-2,9.870991707E0,9.871797825E0
3.480851098E0,9.272187948E-2,-9.272187948E-2,9.885348320E0,9.886217988E0
3.483294692E0,9.511470050E-2,-8.075776696E-2,9.890133858E0,9.890920905E0
3.485739171E0,8.793623000E-2,-9.272187948E-2,9.868598938E0,9.869426282E0
3.488184379E0,8.793623000E-2,-9.032905847E-2,9.866206169E0,9.867011518E0
3.490628702E0,8.793623000E-2,-9.750752151E-2,9.885348320E0,9.886220304E0
3.493072348E0,7.357929647E-2,-1.046859920E-1,9.878170013E0,9.878998729E0
3.495516827E0,7.836493850E-2,-7.836493850E-2,9.882955551E0,9.883576911E0
3.497961984E0,1.022931710E-1,-9.032905847E-2,9.863813400E0,9.864757373E0
3.500406359E0,6.161518395E-2,-7.836493850E-2,9.890133858E0,9.890636239E0
3.502850004E0,6.640082598E-2,-9.272187948E-2,9.890133858E0,9.890791381E0
3.505294379E0,8.554340899E-2,-9.511470050E-2,9.885348320E0,9.886175999E0
3.507739640E0,6.161518395E-2,-8.315058798E-2,9.878170013E0,9.878712126E0
3.510184015E0,7.836493850E-2,-9.990034252E-2,9.887741089E0,9.888556264E0
3.512627609E0,8.554340899E-2,-9.511470050E-2,9.902098656E0,9.902924935E0
3.515072088E0,7.597211748E-2,-8.793623000E-2,9.880562782E0,9.881246148E0
3.517517296E0,8.315058798E-2,-8.793623000E-2,9.868598938E0,9.869341001E0
3.519961671E0,7.597211748E-2,-9.272187948E-2,9.868598938E0,9.869326933E0
3.522405265E0,8.075776696E-2,-8.315058798E-2,9.892526627E0,9.893205694E0
3.524849744E0,9.511470050E-2,-8.793623000E-2,9.904491425E0,9.905338458E0
3.527294952E0,8.075776696E-2,-9.990034252E-2,9.887741089E0,9.888575516E0
3.529739275E0,8.075776696E-2,-7.597211748E-2,9.866206169E0,9.866829164E0
3.532182921E0,7.357929647E-2,-1.046859920E-1,9.885348320E0,9.886176434E0
3.534627400E0,8.075776696E-2,-8.075776696E-2,9.890133858E0,9.890793262E0
3.537072609E0,7.836493850E-2,-7.118647546E-2,9.873384476E0,9.873952075E0
3.539516932E0,6.879365444E-2,-9.511470050E-2,9.892526627E0,9.893223056E0
3.541960577E0,9.272187948E-2,-9.750752151E-2,9.887741089E0,9.888656577E0
3.544404952E0,8.554340899E-2,-9.272187948E-2,9.878170013E0,9.878975546E0
3.546850213E0,1.046859920E-1,-8.554340899E-2,9.878170013E0,9.879095082E0
3.549294588E0,6.400800496E-2,-9.272187948E-2,9.890133858E0,9.890775606E0
3.551738182E0,7.597211748E-2,-8.554340899E-2,9.870991707E0,9.871654710E0
3.554182661E0,9.272187948E-2,-8.793623000E-2,9.878170013E0,9.878996555E0
3.556627869E0,9.750752151E-2,-9.750752151E-2,9.868598938E0,9.869562322E0
3.559072244E0,8.315058798E-2,-8.315058798E-2,9.863813400E0,9.864514323E0
3.561515838E0,9.990034252E-2,-7.836493850E-2,9.892526627E0,9.893341407E0
3.563960317E0,7.357929647E-2,-9.032905847E-2,9.875777245E0,9.876464420E0
3.566405525E0,6.879365444E-2,-7.597211748E-2,9.890133858E0,9.890664894E0
3.568849900E0,5.922235921E-2,-8.554340899E-2,9.892526627E0,9.893073740E0
3.571293494E0,7.357929647E-2,-9.032905847E-2,9.885348320E0,9.886034830E0
3.573737973E0,6.879365444E-2,-7.597211748E-2,9.892526627E0,9.893057535E0
3.576183182E0,6.640082598E-2,-7.836493850E-2,9.887741089E0,9.888274570E0
3.578627504E0,7.357929647E-2,-8.793623000E-2,9.887741089E0,9.888405864E0
3.581071150E0,7.836493850E-2,-8.075776696E-2,9.887741089E0,9.888381400E0
3.583515525E0,9.032905847E-2,-8.315058798E-2,9.906884193E0,9.907644916E0
3.585960786E0,8.554340899E-2,-8.793623000E-2,9.873384476E0,9.874146619E0
3.588405161E0,8.075776696E-2,-8.075776696E-2,9.880562782E0,9.881222826E0
3.590848807E0,8.554340899E-2,-1.022931710E-1,9.882955551E0,9.883855118E0
3.593293182E0,7.597211748E-2,-8.315058798E-2,9.890133858E0,9.890775172E0
3.595738442E0,9.511470050E-2,-8.075776696E-2,9.885348320E0,9.886135748E0
3.598182817E0,9.511470050E-2,-7.836493850E-2,9.902098656E0,9.902865528E0
3.600626411E0,9.511470050E-2,-9.272187948E-2,9.875777245E0,9.876670509E0
3.603070890E0,6.400800496E-2,-1.046859920E-1,9.890133858E0,9.890895000E0
3.605516098E0,8.554340899E-2,-1.046859920E-1,9.875777245E0,9.876702538E0
3.607960473E0,6.400800496E-2,-9.032905847E-2,9.902098656E0,9.902717513E0
3.610404067E0,1.046859920E-1,-9.272187948E-2,9.885348320E0,9.886337437E0
3.612848546E0,9.032905847E-2,-9.272187948E-2,9.880562782E0,9.881410708E0
3.615293754E0,8.315058798E-2,-9.750752151E-2,9.878170013E0,9.879001192E0
3.617738077E0,7.836493850E-2,-7.597211748E-2,9.882955551E0,9.883558228E0
3.620181723E0,9.750752151E-2,-9.511470050E-2,9.885348320E0,9.886286762E0
3.622626098E0,8.075776696E-2,-9.032905847E-2,9.880562782E0,9.881305686E0
3.625071359E0,8.315058798E-2,-9.272187948E-2,9.880562782E0,9.881347695E0
3.627515734E0,7.118647546E-2,-9.511470050E-2,9.882955551E0,9.883669599E0
3.629959379E0,9.511470050E-2,-1.022931710E-1,9.875777245E0,9.876765001E0
3.632403754E0,8.315058798E-2,-1.166501045E-1,9.882955551E0,9.883993712E0
3.634849015E0,6.640082598E-2,-9.032905847E-2,9.875777245E0,9.876413549E0
3.637293390E0,8.315058798E-2,-7.118647546E-2,9.892526627E0,9.893132193E0
3.639736984E0,8.793623000E-2,-9.990034252E-2,9.897313118E0,9.898207909E0
3.642181463E0,8.554340899E-2,-9.032905847E-2,9.875777245E0,9.876560798E0
3.644626671E0,1.046859920E-1,-9.032905847E-2,9.887741089E0,9.888707819E0
3.647071046E0,9.511470050E-2,-7.836493850E-2,9.904491425E0,9.905258111E0
3.649514640E0,9.511470050E-2,-8.075776696E-2,9.880562782E0,9.881350592E0
3.651959119E0,4.965107143E-2,-8.793623000E-2,9.882955551E0,9.883471477E0
3.654404327E0,8.315058798E-2,-8.793623000E-2,9.878170013E0,9.878911358E0
3.656848650E0,8.315058798E-2,-8.554340899E-2,9.882955551E0,9.883675537E0
3.659292296E0,7.597211748E-2,-7.597211748E-2,9.875777245E0,9.876361664E0
3.661736671E0,6.400800496E-2,-9.272187948E-2,9.880562782E0,9.881205153E0
3.664181984E0,9.032905847E-2,-8.793623000E-2,9.885348320E0,9.886152109E0
3.666626307E0,8.554340899E-2,-9.511470050E-2,9.894919395E0,9.895746274E0
3.669069952E0,7.597211748E-2,-9.272187948E-2,9.909276962E0,9.910001969E0
3.671514327E0,8.554340899E-2,-8.793623000E-2,9.897313118E0,9.898073419E0
3.673959588E0,9.272187948E-2,-1.022931710E-1,9.873384476E0,9.874349713E0
3.676403963E0,7.357929647E-2,-9.272187948E-2,9.866206169E0,9.866916207E0
3.678847557E0,6.400800496E-2,-7.836493850E-2,9.890133858E0,9.890651435E0
3.681292036E0,8.554340899E-2,-8.315058798E-2,9.859027863E0,9.859749596E0
3.683737244E0,6.640082598E-2,-1.046859920E-1,9.892526627E0,9.893303356E0
3.686181619E0,5.682953820E-2,-7.597211748E-2,9.878170013E0,9.878625622E0
3.688625213E0,7.357929647E-2,-9.272187948E-2,9.868598938E0,9.869308803E0
3.691069692E0,6.161518395E-2,-8.075776696E-2,9.863813400E0,9.864336422E0
3.693514900E0,5.204389244E-2,-9.032905847E-2,9.902098656E0,9.902647408E0
3.695959223E0,6.161518395E-2,-9.511470050E-2,9.878170013E0,9.878820074E0
3.698402869E0,8.554340899E-2,-9.032905847E-2,9.887741089E0,9.888523694E0
3.700847244E0,8.554340899E-2,-9.032905847E-2,9.904491425E0,9.905272707E0
3.703292557E0,6.879365444E-2,-9.750752151E-2,9.882955551E0,9.883675971E0
3.705736879E0,9.990034252E-2,-9.272187948E-2,9.892526627E0,9.893465545E0
3.708180525E0,7.357929647E-2,-6.879365444E-2,9.873384476E0,9.873898292E0
3.710624900E0,9.032905847E-2,-8.793623000E-2,9.894919395E0,9.895722407E0
3.713070161E0,7.357929647E-2,-9.272187948E-2,9.866206169E0,9.866916207E0
3.715514536E0,7.597211748E-2,-1.022931710E-1,9.890133858E0,9.890954624E0
3.717958129E0,7.836493850E-2,-8.315058798E-2,9.882955551E0,9.883616014E0
3.720402609E0,8.793623000E-2,-9.032905847E-2,9.873384476E0,9.874189239E0
3.722847817E0,9.032905847E-2,-8.315058798E-2,9.882955551E0,9.883718115E0
3.725292192E0,7.597211748E-2,-8.793623000E-2,9.868598938E0,9.869283132E0
3.727735786E0,7.836493850E-2,-1.046859920E-1,9.880562782E0,9.881428091E0
3.730180265E0,9.032905847E-2,-9.511470050E-2,9.885348320E0,9.886218567E0
3.732625473E0,7.597211748E-2,-8.793623000E-2,9.892526627E0,9.893209166E0
3.735069796E0,8.075776696E-2,-7.597211748E-2,9.880562782E0,9.881184872E0
3.737513442E0,8.793623000E-2,-7.597211748E-2,9.856635094E0,9.857320118E0
3.739957921E0,8.793623000E-2,-1.070788130E-1,9.861420631E0,9.862394006E0
3.742403129E0,7.357929647E-2,-9.511470050E-2,9.866206169E0,9.866938983E0
3.744847452E0,6.640082598E-2,-9.990034252E-2,9.873384476E0,9.874113132E0
3.747291098E0,6.640082598E-2,-7.597211748E-2,9.878170013E0,9.878685320E0
3.749735473E0,8.075776696E-2,-9.750752151E-2,9.878170013E0,9.878981342E0
3.752180734E0,9.272187948E-2,-9.750752151E-2,9.885348320E0,9.886264030E0
3.754625109E0,7.597211748E-2,-7.597211748E-2,9.885348320E0,9.885932173E0
3.757068702E0,1.022931710E-1,-1.022931710E-1,9.861420631E0,9.862481668E0
3.759513182E0,9.272187948E-2,-9.032905847E-2,9.875777245E0,9.876625581E0
3.761958390E0,7.357929647E-2,-8.793623000E-2,9.868598938E0,9.869265003E0
3.764402765E0,8.075776696E-2,-9.750752151E-2,9.870991707E0,9.871803625E0
3.766846359E0,8.554340899E-2,-1.118644550E-1,9.882955551E0,9.883958810E0
3.769290838E0,7.597211748E-2,-9.032905847E-2,9.882955551E0,9.883660330E0
3.771736046E0,9.032905847E-2,-9.750752151E-2,9.892526627E0,9.893419536E0
3.774180369E0,7.836493850E-2,-8.793623000E-2,9.880562782E0,9.881264835E0
3.776624015E0,8.315058798E-2,-8.315058798E-2,9.885348320E0,9.886047716E0
3.779068494E0,9.750752151E-2,-9.032905847E-2,9.911669731E0,9.912560916E0
3.781513702E0,8.554340899E-2,-8.793623000E-2,9.885348320E0,9.886109541E0
3.783958025E0,6.640082598E-2,-9.511470050E-2,9.878170013E0,9.878851081E0
3.786401671E0,7.357929647E-2,-9.272187948E-2,9.880562782E0,9.881271788E0
3.788846046E0,6.879365444E-2,-8.075776696E-2,9.897313118E0,9.897881659E0
3.791291307E0,8.075776696E-2,-7.357929647E-2,9.880562782E0,9.881166764E0
3.793735682E0,6.879365444E-2,-8.793623000E-2,9.887741089E0,9.888371412E0
3.796179275E0,6.640082598E-2,-1.142572835E-1,9.882955551E0,9.883839043E0
3.798623754E0,9.511470050E-2,-8.554340899E-2,9.870991707E0,9.871820590E0
3.801068963E0,8.793623000E-2,-1.070788130E-1,9.873384476E0,9.874356671E0
3.803513338E0,8.075776696E-2,-9.511470050E-2,9.890133858E0,9.890920905E0
3.805956932E0,7.597211748E-2,-1.022931710E-1,9.887741089E0,9.888562054E0
3.808401411E0,8.315058798E-2,-7.836493850E-2,9.880562782E0,9.881223405E0
3.810846619E0,5.922235921E-2,-7.357929647E-2,9.887741089E0,9.888192203E0
3.813290994E0,8.793623000E-2,-9.750752151E-2,9.892526627E0,9.893397978E0
3.815734588E0,9.032905847E-2,-9.272187948E-2,9.887741089E0,9.888588399E0
3.818179067E0,8.075776696E-2,-8.554340899E-2,9.880562782E0,9.881263097E0
3.820624275E0,8.075776696E-2,-7.357929647E-2,9.885348320E0,9.885952010E0
3.823068598E0,9.990034252E-2,-7.597211748E-2,9.899705887E0,9.900501426E0
3.825512244E0,8.315058798E-2,-9.750752151E-2,9.873384476E0,9.874216057E0
3.827956619E0,9.032905847E-2,-8.793623000E-2,9.880562782E0,9.881366961E0
3.830401879E0,9.032905847E-2,-6.640082598E-2,9.882955551E0,9.883591394E0
3.832846254E0,8.075776696E-2,-1.046859920E-1,9.887741089E0,9.888625021E0
3.835289848E0,9.032905847E-2,-9.032905847E-2,9.899705887E0,9.900530053E0
3.837734327E0,8.315058798E-2,-9.750752151E-2,9.892526627E0,9.893356599E0
3.840179536E0,7.357929647E-2,-9.272187948E-2,9.887741089E0,9.888449580E0
3.842623911E0,8.793623000E-2,-8.315058798E-2,9.870991707E0,9.871733590E0
3.845067504E0,8.315058798E-2,-9.272187948E-2,9.892526627E0,9.893310590E0
3.847511984E0,8.075776696E-2,-8.793623000E-2,9.863813400E0,9.864535944E0
3.849957192E0,8.315058798E-2,-9.750752151E-2,9.875777245E0,9.876608624E0
3.852401567E0,7.118647546E-2,-9.990034252E-2,9.880562782E0,9.881324227E0
3.854845161E0,1.046859920E-1,-8.075776696E-2,9.875777245E0,9.876662248E0
3.857289640E0,9.272187948E-2,-8.554340899E-2,9.890133858E0,9.890938416E0
3.859734848E0,7.597211748E-2,-9.511470050E-2,9.887741089E0,9.888490401E0
3.862179171E0,9.272187948E-2,-7.836493850E-2,9.866206169E0,9.866953055E0
3.864622817E0,6.879365444E-2,-1.022931710E-1,9.863813400E0,9.864583684E0
3.867067192E0,7.597211748E-2,-9.750752151E-2,9.894919395E0,9.895691452E0
3.869512452E0,8.315058798E-2,-9.511470050E-2,9.880562782E0,9.881370437E0
3.871956827E0,6.879365444E-2,-9.990034252E-2,9.856635094E0,9.857381397E0
3.874400473E0,6.400800496E-2,-9.272187948E-2,9.863813400E0,9.864456861E0
3.876844848E0,8.075776696E-2,-9.750752151E-2,9.866206169E0,9.867018481E0
3.879290109E0,8.793623000E-2,-1.094716340E-1,9.904491425E0,9.905486722E0
3.881734484E0,4.007977992E-2,-8.793623000E-2,9.885348320E0,9.885820683E0
3.884178077E0,8.793623000E-2,-8.075776696E-2,9.885348320E0,9.886069290E0
3.886622557E0,8.793623000E-2,-8.793623000E-2,9.885348320E0,9.886130536E0
3.889067765E0,8.554340899E-2,-8.554340899E-2,9.870991707E0,9.871733010E0
3.891512140E0,1.094716340E-1,-9.750752151E-2,9.882955551E0,9.884042806E0
3.893955734E0,8.315058798E-2,-1.046859920E-1,9.892526627E0,9.893429953E0
3.896400213E0,7.836493850E-2,-1.094716340E-1,9.892526627E0,9.893442685E0
3.898845421E0,8.315058798E-2,-8.315058798E-2,9.899705887E0,9.900404269E0
3.901289744E0,7.836493850E-2,-1.118644550E-1,9.906884193E0,9.907825652E0
3.903733390E0,8.793623000E-2,-9.272187948E-2,9.894919395E0,9.895744538E0
3.906177765E0,9.511470050E-2,-9.272187948E-2,9.894919395E0,9.895810932E0
3.908623025E0,8.793623000E-2,-1.022931710E-1,9.894919395E0,9.895838849E0
3.911067400E0,8.075776696E-2,-9.990034252E-2,9.894919395E0,9.895753217E0
3.913510994E0,8.793623000E-2,-9.990034252E-2,9.878170013E0,9.879066539E0
3.915955473E0,8.315058798E-2,-9.272187948E-2,9.878170013E0,9.878955116E0
3.918400682E0,9.032905847E-2,-1.070788130E-1,9.887741089E0,9.888733440E0
3.920845057E0,7.597211748E-2,-9.272187948E-2,9.897313118E0,9.898039001E0
3.923288650E0,8.793623000E-2,-7.597211748E-2,9.906884193E0,9.907565744E0
3.925733129E0,8.075776696E-2,-9.032905847E-2,9.885348320E0,9.886090864E0
3.928178338E0,7.118647546E-2,-8.554340899E-2,9.875777245E0,9.876404273E0
3.930622713E0,7.357929647E-2,-9.990034252E-2,9.880562782E0,9.881341755E0
3.933066307E0,8.075776696E-2,-9.272187948E-2,9.885348320E0,9.886113016E0
3.935510786E0,7.836493850E-2,-7.597211748E-2,9.868598938E0,9.869202492E0
3.937955994E0,9.511470050E-2,-8.554340899E-2,9.873384476E0,9.874213158E0
3.940400317E0,9.032905847E-2,-8.075776696E-2,9.878170013E0,9.878913097E0
3.942843963E0,8.315058798E-2,-9.990034252E-2,9.873384476E0,9.874239976E0
3.945288338E0,7.836493850E-2,-9.272187948E-2,9.875777245E0,9.876523406E0
3.947733598E0,7.357929647E-2,-8.793623000E-2,9.902098656E0,9.902762467E0
3.950177973E0,6.400800496E-2,-1.190429255E-1,9.894919395E0,9.895842465E0
3.952621567E0,9.511470050E-2,-1.022931710E-1,9.885348320E0,9.886335120E0
3.955066046E0,8.315058798E-2,-8.315058798E-2,9.904491425E0,9.905189469E0
3.957511254E0,9.272187948E-2,-9.990034252E-2,9.887741089E0,9.888680461E0
3.959955629E0,9.272187948E-2,-8.554340899E-2,9.880562782E0,9.881368120E0
3.962399223E0,7.597211748E-2,-1.046859920E-1,9.885348320E0,9.886194532E0
3.964843702E0,9.272187948E-2,-9.511470050E-2,9.870991707E0,9.871885404E0
3.967288911E0,6.161518395E-2,-1.022931710E-1,9.878170013E0,9.878891797E0
3.969733286E0,9.750752151E-2,-9.032905847E-2,9.887741089E0,9.888634430E0
3.972176879E0,8.315058798E-2,-1.118644550E-1,9.894919395E0,9.895901046E0
3.974621359E0,9.511470050E-2,-8.793623000E-2,9.875777245E0,9.876626740E0
3.977066567E0,7.597211748E-2,-1.022931710E-1,9.885348320E0,9.886169484E0
3.979510890E0,9.032905847E-2,-1.070788130E-1,9.894919395E0,9.895911027E0
3.981954536E0,6.400800496E-2,-9.750752151E-2,9.914062500E0,9.914748610E0
3.984398911E0,8.793623000E-2,-8.315058798E-2,9.873384476E0,9.874126179E0
3.986844171E0,8.315058798E-2,-8.554340899E-2,9.882955551E0,9.883675537E0
3.989288546E0,9.272187948E-2,-9.990034252E-2,9.880562782E0,9.881502837E0
3.991732192E0,8.793623000E-2,-8.793623000E-2,9.880562782E0,9.881345377E0
3.994176567E0,9.032905847E-2,-8.075776696E-2,9.885348320E0,9.886090864E0
3.996621827E0,9.511470050E-2,-7.597211748E-2,9.870991707E0,9.871742290E0
3.999066202E0,8.793623000E-2,-9.032905847E-2,9.873384476E0,9.874189239E0
4.001509796E0,9.990034252E-2,-9.032905847E-2,9.887741089E0,9.888658314E0
4.003954275E0,9.750752151E-2,-9.032905847E-2,9.878170013E0,9.879064220E0
4.006399484E0,8.554340899E-2,-7.836493850E-2,9.880562782E0,9.881243830E0
4.008843859E0,7.357929647E-2,-8.793623000E-2,9.863813400E0,9.864479788E0
4.011287452E0,7.597211748E-2,-8.075776696E-2,9.887741089E0,9.888362727E0
4.013731932E0,7.597211748E-2,-1.046859920E-1,9.873384476E0,9.874231713E0
4.016177140E0,8.554340899E-2,-8.793623000E-2,9.882955551E0,9.883716957E0
4.018621463E0,8.315058798E-2,-8.554340899E-2,9.870991707E0,9.871712565E0
4.021065109E0,8.554340899E-2,-9.272187948E-2,9.878170013E0,9.878975546E0
4.023509484E0,7.118647546E-2,-8.315058798E-2,9.878170013E0,9.878776460E0
