"Time (s)","Gyroscope x (rad/s)","Gyroscope y (rad/s)","Gyroscope z (rad/s)","Absolute (rad/s)"
1.125578720E-1,1.527118147E-3,-1.221694518E-3,-7.635590737E-4,2.099440352E-3
1.150021430E-1,3.054236295E-4,-2.443389036E-3,-7.635590737E-4,2.578072154E-3
1.174456850E-1,1.527118147E-3,-1.221694518E-3,4.581354442E-4,2.008610320E-3
1.198899560E-1,3.054236295E-4,-1.221694518E-3,4.581354442E-4,1.340040736E-3
1.223351640E-1,3.054236295E-4,0.000000000E0,-7.635590737E-4,8.223782903E-4
1.247794350E-1,3.054236295E-4,0.000000000E0,-1.985253533E-3,2.008610262E-3
1.272229760E-1,3.054236295E-4,-1.221694518E-3,-7.635590737E-4,1.472699408E-3
1.296673510E-1,3.054236295E-4,0.000000000E0,-7.635590737E-4,8.223782903E-4
1.321124560E-1,-9.162708884E-4,0.000000000E0,4.581354442E-4,1.024421996E-3
1.345567260E-1,1.527118147E-3,-1.221694518E-3,-7.635590737E-4,2.099440352E-3
1.370002680E-1,3.054236295E-4,0.000000000E0,-1.985253533E-3,2.008610262E-3
1.394446430E-1,-9.162708884E-4,0.000000000E0,-1.985253533E-3,2.186500385E-3
1.418897470E-1,-9.162708884E-4,-1.221694518E-3,4.581354442E-4,1.594358153E-3
1.443340180E-1,3.054236295E-4,-1.221694518E-3,4.581354442E-4,1.340040736E-3
1.467775600E-1,3.054236295E-4,-1.221694518E-3,-7.635590737E-4,1.472699408E-3
1.492219350E-1,3.054236295E-4,0.000000000E0,4.581354442E-4,5.506102784E-4
1.516670390E-1,-9.162708884E-4,0.000000000E0,1.679830020E-3,1.913473605E-3
1.541113100E-1,3.054236295E-4,0.000000000E0,-7.635590737E-4,8.223782903E-4
1.565548510E-1,-9.162708884E-4,1.221694518E-3,-1.985253533E-3,2.504659943E-3
1.589992260E-1,1.527118147E-3,-2.443389036E-3,4.581354442E-4,2.917555124E-3
1.614443310E-1,3.054236295E-4,-2.443389036E-3,4.581354442E-4,2.504659989E-3
1.638886010E-1,3.054236295E-4,-1.221694518E-3,-7.635590737E-4,1.472699408E-3
1.663321430E-1,3.054236295E-4,0.000000000E0,-1.985253533E-3,2.008610262E-3
1.687765180E-1,-9.162708884E-4,0.000000000E0,-4.428642802E-3,4.522436225E-3
1.712216220E-1,-9.162708884E-4,-1.221694518E-3,-1.985253533E-3,2.504659943E-3
1.736658930E-1,-9.162708884E-4,-1.221694518E-3,4.581354442E-4,1.594358153E-3
1.761094350E-1,3.054236295E-4,0.000000000E0,4.581354442E-4,5.506102784E-4
1.785538100E-1,1.527118147E-3,-1.221694518E-3,4.581354442E-4,2.008610320E-3
1.809989140E-1,1.527118147E-3,-1.221694518E-3,-7.635590737E-4,2.099440352E-3
1.834431850E-1,3.054236295E-4,1.221694518E-3,1.679830020E-3,2.099440398E-3
1.858867260E-1,3.054236295E-4,0.000000000E0,4.581354442E-4,5.506102784E-4
1.883311010E-1,3.054236295E-4,-2.443389036E-3,4.581354442E-4,2.504659989E-3
1.907762060E-1,3.054236295E-4,-1.221694518E-3,-1.985253533E-3,2.350968456E-3
1.932204760E-1,-2.137965523E-3,0.000000000E0,-1.985253533E-3,2.917555170E-3
1.956640180E-1,-9.162708884E-4,1.221694518E-3,-7.635590737E-4,1.707369994E-3
1.981083930E-1,-9.162708884E-4,0.000000000E0,-7.635590737E-4,1.192717402E-3
2.005534970E-1,-9.162708884E-4,0.000000000E0,4.581354442E-4,1.024421996E-3
2.029977680E-1,3.054236295E-4,-1.221694518E-3,4.581354442E-4,1.340040736E-3
2.054413100E-1,3.054236295E-4,-1.221694518E-3,-7.635590737E-4,1.472699408E-3
2.078856850E-1,3.054236295E-4,-1.221694518E-3,1.679830020E-3,2.099440398E-3
2.103307890E-1,-9.162708884E-4,-1.221694518E-3,-7.635590737E-4,1.707369994E-3
2.127750600E-1,3.054236295E-4,-1.221694518E-3,4.581354442E-4,1.340040736E-3
2.152186010E-1,3.054236295E-4,-2.443389036E-3,-7.635590737E-4,2.578072154E-3
2.176629760E-1,3.054236295E-4,-1.221694518E-3,-1.985253533E-3,2.350968456E-3
2.201081330E-1,3.054236295E-4,0.000000000E0,-7.635590737E-4,8.223782903E-4
2.225524040E-1,3.054236295E-4,-1.221694518E-3,4.581354442E-4,1.340040736E-3
2.249958930E-1,-9.162708884E-4,0.000000000E0,4.581354442E-4,1.024421996E-3
2.274402680E-1,-9.162708884E-4,0.000000000E0,-7.635590737E-4,1.192717402E-3
2.298853720E-1,-9.162708884E-4,0.000000000E0,4.581354442E-4,1.024421996E-3
2.323297470E-1,-9.162708884E-4,-1.221694518E-3,-7.635590737E-4,1.707369994E-3
2.347731850E-1,1.527118147E-3,-1.221694518E-3,-7.635590737E-4,2.099440352E-3
2.372175600E-1,1.527118147E-3,-1.221694518E-3,4.581354442E-4,2.008610320E-3
2.396627160E-1,3.054236295E-4,0.000000000E0,4.581354442E-4,5.506102784E-4
2.421069870E-1,3.054236295E-4,1.221694518E-3,4.581354442E-4,1.340040736E-3
2.445504760E-1,1.527118147E-3,0.000000000E0,1.679830020E-3,2.270224379E-3
2.469948510E-1,1.527118147E-3,-2.443389036E-3,-7.635590737E-4,2.980815706E-3
2.494400080E-1,3.054236295E-4,0.000000000E0,-7.635590737E-4,8.223782903E-4
2.518842790E-1,1.527118147E-3,0.000000000E0,-7.635590737E-4,1.707369994E-3
2.543277680E-1,3.054236295E-4,0.000000000E0,4.581354442E-4,5.506102784E-4
2.567721950E-1,3.054236295E-4,0.000000000E0,1.679830020E-3,1.707370051E-3
2.592172990E-1,3.054236295E-4,1.221694518E-3,-7.635590737E-4,1.472699408E-3
2.616615700E-1,3.054236295E-4,0.000000000E0,-7.635590737E-4,8.223782903E-4
2.641051120E-1,-9.162708884E-4,1.221694518E-3,-7.635590737E-4,1.707369994E-3
2.665494870E-1,-2.137965523E-3,0.000000000E0,-7.635590737E-4,2.270224446E-3
2.689945910E-1,-9.162708884E-4,0.000000000E0,4.581354442E-4,1.024421996E-3
2.714388620E-1,3.054236295E-4,0.000000000E0,-7.635590737E-4,8.223782903E-4
2.738824040E-1,3.054236295E-4,-1.221694518E-3,-7.635590737E-4,1.472699408E-3
2.763267790E-1,-9.162708884E-4,1.221694518E-3,4.581354442E-4,1.594358153E-3
2.787718830E-1,-9.162708884E-4,0.000000000E0,-7.635590737E-4,1.192717402E-3
2.812161540E-1,3.054236295E-4,-1.221694518E-3,-7.635590737E-4,1.472699408E-3
2.836596950E-1,3.054236295E-4,-1.221694518E-3,-7.635590737E-4,1.472699408E-3
2.861040700E-1,1.527118147E-3,-1.221694518E-3,4.581354442E-4,2.008610320E-3
2.885491740E-1,3.054236295E-4,-1.221694518E-3,4.581354442E-4,1.340040736E-3
2.909934450E-1,3.054236295E-4,0.000000000E0,4.581354442E-4,5.506102784E-4
2.934369870E-1,-9.162708884E-4,-1.221694518E-3,4.581354442E-4,1.594358153E-3
2.958813620E-1,3.054236295E-4,-1.221694518E-3,-7.635590737E-4,1.472699408E-3
2.983264660E-1,3.054236295E-4,-2.443389036E-3,-7.635590737E-4,2.578072154E-3
3.007707370E-1,-9.162708884E-4,-2.443389036E-3,1.679830020E-3,3.103470834E-3
3.032142790E-1,-9.162708884E-4,-1.221694518E-3,4.581354442E-4,1.594358153E-3
3.056586540E-1,3.054236295E-4,-1.221694518E-3,-1.985253533E-3,2.350968456E-3
3.081037580E-1,3.054236295E-4,0.000000000E0,-7.635590737E-4,8.223782903E-4
3.105480290E-1,3.054236295E-4,0.000000000E0,-1.985253533E-3,2.008610262E-3
3.129915700E-1,3.054236295E-4,0.000000000E0,4.581354442E-4,5.506102784E-4
3.154359450E-1,1.527118147E-3,-1.221694518E-3,-7.635590737E-4,2.099440352E-3
3.178810490E-1,3.054236295E-4,-1.221694518E-3,4.581354442E-4,1.340040736E-3
3.203253200E-1,-9.162708884E-4,-1.221694518E-3,-7.635590737E-4,1.707369994E-3
3.227688620E-1,-9.162708884E-4,-2.443389036E-3,-1.985253533E-3,3.278861679E-3
3.252132370E-1,1.527118147E-3,0.000000000E0,-3.206948051E-3,3.551986154E-3
3.276583410E-1,-9.162708884E-4,-1.221694518E-3,-7.635590737E-4,1.707369994E-3
3.301026120E-1,3.054236295E-4,-1.221694518E-3,1.679830020E-3,2.099440398E-3
3.325461540E-1,3.054236295E-4,-1.221694518E-3,-7.635590737E-4,1.472699408E-3
3.349905290E-1,1.527118147E-3,-1.221694518E-3,-7.635590737E-4,2.099440352E-3
3.374356330E-1,3.054236295E-4,-1.221694518E-3,4.581354442E-4,1.340040736E-3
3.398799040E-1,-9.162708884E-4,1.221694518E-3,-7.635590737E-4,1.707369994E-3
3.423234450E-1,3.054236295E-4,0.000000000E0,-7.635590737E-4,8.223782903E-4
3.447678200E-1,-9.162708884E-4,0.000000000E0,-7.635590737E-4,1.192717402E-3
3.472129760E-1,-9.162708884E-4,-1.221694518E-3,1.679830020E-3,2.270224379E-3
3.496572470E-1,1.527118147E-3,-1.221694518E-3,4.581354442E-4,2.008610320E-3
3.521007370E-1,-9.162708884E-4,0.000000000E0,4.581354442E-4,1.024421996E-3
3.545451120E-1,1.527118147E-3,0.000000000E0,4.581354442E-4,1.594358153E-3
3.569902680E-1,1.527118147E-3,0.000000000E0,-7.635590737E-4,1.707369994E-3
3.594345390E-1,1.527118147E-3,-1.221694518E-3,4.581354442E-4,2.008610320E-3
3.618780290E-1,1.527118147E-3,0.000000000E0,1.679830020E-3,2.270224379E-3
3.643224040E-1,1.527118147E-3,0.000000000E0,1.679830020E-3,2.270224379E-3
3.667675600E-1,1.527118147E-3,-1.221694518E-3,4.581354442E-4,2.008610320E-3
3.692118310E-1,1.527118147E-3,-2.443389036E-3,-1.985253533E-3,3.499067220E-3
3.716553720E-1,3.054236295E-4,-1.221694518E-3,2.901524538E-3,3.163015291E-3
3.740997470E-1,3.054236295E-4,0.000000000E0,-7.635590737E-4,8.223782903E-4
3.765448510E-1,3.054236295E-4,0.000000000E0,-7.635590737E-4,8.223782903E-4
3.789891220E-1,3.054236295E-4,-1.221694518E-3,-7.635590737E-4,1.472699408E-3
3.814326640E-1,-9.162708884E-4,0.000000000E0,4.581354442E-4,1.024421996E-3
3.838770390E-1,3.054236295E-4,0.000000000E0,-1.985253533E-3,2.008610262E-3
3.863221430E-1,-9.162708884E-4,1.221694518E-3,-7.635590737E-4,1.707369994E-3
3.887664140E-1,1.527118147E-3,-1.221694518E-3,4.581354442E-4,2.008610320E-3
3.912099560E-1,1.527118147E-3,-2.443389036E-3,1.679830020E-3,3.335276407E-3
3.936543310E-1,-9.162708884E-4,-1.221694518E-3,-7.635590737E-4,1.707369994E-3
3.960994350E-1,3.054236295E-4,0.000000000E0,-7.635590737E-4,8.223782903E-4
3.985437060E-1,1.527118147E-3,0.000000000E0,4.581354442E-4,1.594358153E-3
4.009872470E-1,1.527118147E-3,0.000000000E0,-7.635590737E-4,1.707369994E-3
4.034316220E-1,3.054236295E-4,-1.221694518E-3,-1.985253533E-3,2.350968456E-3
4.058767260E-1,1.527118147E-3,-1.221694518E-3,4.581354442E-4,2.008610320E-3
4.083209970E-1,-9.162708884E-4,-1.221694518E-3,-7.635590737E-4,1.707369994E-3
4.107645390E-1,3.054236295E-4,-1.221694518E-3,4.581354442E-4,1.340040736E-3
4.132089140E-1,3.054236295E-4,-2.443389036E-3,-7.635590737E-4,2.578072154E-3
4.156540180E-1,-9.162708884E-4,1.221694518E-3,4.581354442E-4,1.594358153E-3
4.180982890E-1,-9.162708884E-4,0.000000000E0,1.679830020E-3,1.913473605E-3
4.205418310E-1,3.054236295E-4,1.221694518E-3,-7.635590737E-4,1.472699408E-3
4.229862060E-1,1.527118147E-3,0.000000000E0,-3.206948051E-3,3.551986154E-3
4.254313100E-1,1.527118147E-3,-1.221694518E-3,4.581354442E-4,2.008610320E-3
4.278755810E-1,2.748812549E-3,-4.886778072E-3,-7.635590737E-4,5.658585760E-3
4.303191220E-1,-2.137965523E-3,-2.443389036E-3,4.581354442E-4,3.278861791E-3
4.327634970E-1,-9.162708884E-4,-1.221694518E-3,1.679830020E-3,2.270224379E-3
4.352086010E-1,1.527118147E-3,0.000000000E0,4.581354442E-4,1.594358153E-3
4.376528720E-1,3.054236295E-4,0.000000000E0,4.581354442E-4,5.506102784E-4
4.400964140E-1,3.054236295E-4,-1.221694518E-3,-7.635590737E-4,1.472699408E-3
4.425407890E-1,3.054236295E-4,-1.221694518E-3,4.581354442E-4,1.340040736E-3
4.449859450E-1,3.054236295E-4,-1.221694518E-3,4.581354442E-4,1.340040736E-3
4.474301640E-1,1.527118147E-3,-1.221694518E-3,1.679830020E-3,2.578072192E-3
4.498737060E-1,3.054236295E-4,0.000000000E0,4.581354442E-4,5.506102784E-4
4.523180810E-1,-9.162708884E-4,1.221694518E-3,-7.635590737E-4,1.707369994E-3
4.547632370E-1,3.054236295E-4,-1.221694518E-3,1.679830020E-3,2.099440398E-3
4.572075080E-1,3.054236295E-4,0.000000000E0,4.581354442E-4,5.506102784E-4
4.596509970E-1,1.527118147E-3,-1.221694518E-3,4.581354442E-4,2.008610320E-3
4.620953720E-1,-9.162708884E-4,0.000000000E0,-7.635590737E-4,1.192717402E-3
4.645405290E-1,3.054236295E-4,-2.443389036E-3,4.581354442E-4,2.504659989E-3
4.669847990E-1,1.527118147E-3,-1.221694518E-3,1.679830020E-3,2.578072192E-3
4.694282890E-1,1.527118147E-3,0.000000000E0,-1.985253533E-3,2.504659943E-3
4.718726640E-1,1.527118147E-3,-2.443389036E-3,-1.985253533E-3,3.499067220E-3
4.743178200E-1,3.054236295E-4,-1.221694518E-3,-7.635590737E-4,1.472699408E-3
4.767620910E-1,3.054236295E-4,0.000000000E0,-7.635590737E-4,8.223782903E-4
4.792056330E-1,1.527118147E-3,0.000000000E0,4.581354442E-4,1.594358153E-3
4.816500080E-1,3.054236295E-4,1.221694518E-3,4.581354442E-4,1.340040736E-3
4.840951120E-1,1.527118147E-3,0.000000000E0,-7.635590737E-4,1.707369994E-3
4.865393830E-1,3.054236295E-4,1.221694518E-3,4.581354442E-4,1.340040736E-3
4.889829240E-1,3.054236295E-4,2.443389036E-3,4.581354442E-4,2.504659989E-3
4.914272990E-1,1.527118147E-3,-1.221694518E-3,-7.635590737E-4,2.099440352E-3
4.938724040E-1,1.527118147E-3,-1.221694518E-3,1.679830020E-3,2.578072192E-3
4.963166740E-1,3.054236295E-4,-3.665083554E-3,1.679830020E-3,4.043259817E-3
4.987602160E-1,3.054236295E-4,-1.221694518E-3,4.581354442E-4,1.340040736E-3
5.012045910E-1,3.054236295E-4,-1.221694518E-3,4.581354442E-4,1.340040736E-3
5.036496950E-1,3.054236295E-4,-1.221694518E-3,-7.635590737E-4,1.472699408E-3
5.060939660E-1,1.527118147E-3,0.000000000E0,4.581354442E-4,1.594358153E-3
5.085375080E-1,3.054236295E-4,0.000000000E0,4.581354442E-4,5.506102784E-4
5.109818830E-1,3.054236295E-4,0.000000000E0,4.581354442E-4,5.506102784E-4
5.134269870E-1,3.054236295E-4,-1.221694518E-3,-7.635590737E-4,1.472699408E-3
5.158712580E-1,-9.162708884E-4,-1.221694518E-3,-7.635590737E-4,1.707369994E-3
5.183147990E-1,3.054236295E-4,-1.221694518E-3,4.581354442E-4,1.340040736E-3
5.207591740E-1,3.054236295E-4,-3.665083554E-3,1.679830020E-3,4.043259817E-3
5.232042790E-1,2.748812549E-3,-1.221694518E-3,4.581354442E-4,3.042761247E-3
5.256485490E-1,3.054236295E-4,-2.443389036E-3,4.581354442E-4,2.504659989E-3
5.280920910E-1,-9.162708884E-4,1.221694518E-3,4.581354442E-4,1.594358153E-3
5.305364660E-1,1.527118147E-3,-2.443389036E-3,4.581354442E-4,2.917555124E-3
5.329815700E-1,1.527118147E-3,-1.221694518E-3,4.581354442E-4,2.008610320E-3
5.354258410E-1,3.054236295E-4,-1.221694518E-3,1.679830020E-3,2.099440398E-3
5.378693830E-1,3.054236295E-4,-1.221694518E-3,4.581354442E-4,1.340040736E-3
5.403137580E-1,3.054236295E-4,-1.221694518E-3,-7.635590737E-4,1.472699408E-3
5.427588620E-1,1.527118147E-3,-1.221694518E-3,1.679830020E-3,2.578072192E-3
5.452031330E-1,1.527118147E-3,-1.221694518E-3,-7.635590737E-4,2.099440352E-3
5.476466740E-1,-9.162708884E-4,0.000000000E0,4.581354442E-4,1.024421996E-3
5.500910490E-1,3.054236295E-4,-2.443389036E-3,-7.635590737E-4,2.578072154E-3
5.525362060E-1,1.527118147E-3,-2.443389036E-3,1.679830020E-3,3.335276407E-3
5.549804760E-1,3.054236295E-4,-1.221694518E-3,-7.635590737E-4,1.472699408E-3
5.574239660E-1,1.527118147E-3,-1.221694518E-3,-7.635590737E-4,2.099440352E-3
5.598683410E-1,3.054236295E-4,-2.443389036E-3,-1.985253533E-3,3.163015202E-3
5.623134970E-1,3.054236295E-4,-1.221694518E-3,-7.635590737E-4,1.472699408E-3
5.647577680E-1,3.054236295E-4,-1.221694518E-3,4.581354442E-4,1.340040736E-3
5.672013100E-1,-9.162708884E-4,-1.221694518E-3,4.581354442E-4,1.594358153E-3
5.696455810E-1,1.527118147E-3,0.000000000E0,1.679830020E-3,2.270224379E-3
5.720907890E-1,3.054236295E-4,1.221694518E-3,1.679830020E-3,2.099440398E-3
5.745350600E-1,3.054236295E-4,-1.221694518E-3,1.679830020E-3,2.099440398E-3
5.769786010E-1,3.054236295E-4,-1.221694518E-3,2.901524538E-3,3.163015291E-3
5.794229760E-1,3.054236295E-4,-1.221694518E-3,4.581354442E-4,1.340040736E-3
5.818680810E-1,3.054236295E-4,1.221694518E-3,-7.635590737E-4,1.472699408E-3
5.843123510E-1,3.054236295E-4,0.000000000E0,-7.635590737E-4,8.223782903E-4
5.867558930E-1,-9.162708884E-4,-1.221694518E-3,4.581354442E-4,1.594358153E-3
5.892002680E-1,-9.162708884E-4,-2.443389036E-3,4.581354442E-4,2.649450963E-3
5.916453720E-1,1.527118147E-3,-1.221694518E-3,-1.985253533E-3,2.786729072E-3
5.940896430E-1,3.054236295E-4,-2.443389036E-3,-7.635590737E-4,2.578072154E-3
5.965331850E-1,3.054236295E-4,-1.221694518E-3,1.679830020E-3,2.099440398E-3
5.989775600E-1,3.054236295E-4,-1.221694518E-3,4.581354442E-4,1.340040736E-3
6.014226640E-1,1.527118147E-3,-1.221694518E-3,4.581354442E-4,2.008610320E-3
6.038669350E-1,3.054236295E-4,-1.221694518E-3,4.581354442E-4,1.340040736E-3
6.063104760E-1,1.527118147E-3,-2.443389036E-3,4.581354442E-4,2.917555124E-3
6.087548510E-1,3.054236295E-4,-1.221694518E-3,4.581354442E-4,1.340040736E-3
6.111999560E-1,1.527118147E-3,-1.221694518E-3,4.581354442E-4,2.008610320E-3
6.136442260E-1,1.527118147E-3,-2.443389036E-3,-7.635590737E-4,2.980815706E-3
6.160877680E-1,3.054236295E-4,-1.221694518E-3,-1.985253533E-3,2.350968456E-3
6.185321430E-1,3.054236295E-4,-2.443389036E-3,-7.635590737E-4,2.578072154E-3
6.209772470E-1,1.527118147E-3,-1.221694518E-3,4.581354442E-4,2.008610320E-3
6.234215180E-1,3.054236295E-4,0.000000000E0,4.581354442E-4,5.506102784E-4
6.258650600E-1,3.054236295E-4,-1.221694518E-3,-7.635590737E-4,1.472699408E-3
6.283094350E-1,3.054236295E-4,-1.221694518E-3,-7.635590737E-4,1.472699408E-3
6.307545390E-1,3.054236295E-4,0.000000000E0,-7.635590737E-4,8.223782903E-4
6.331988100E-1,-9.162708884E-4,0.000000000E0,-7.635590737E-4,1.192717402E-3
6.356423510E-1,3.054236295E-4,-1.221694518E-3,-1.985253533E-3,2.350968456E-3
6.380867260E-1,3.054236295E-4,-1.221694518E-3,-1.985253533E-3,2.350968456E-3
6.405318310E-1,3.054236295E-4,-1.221694518E-3,4.581354442E-4,1.340040736E-3
6.429761010E-1,3.054236295E-4,1.221694518E-3,4.581354442E-4,1.340040736E-3
6.454196430E-1,3.054236295E-4,-1.221694518E-3,-7.635590737E-4,1.472699408E-3
6.478640180E-1,3.054236295E-4,-2.443389036E-3,-1.985253533E-3,3.163015202E-3
6.503091740E-1,3.054236295E-4,1.221694518E-3,-1.985253533E-3,2.350968456E-3
6.527534450E-1,1.527118147E-3,-1.221694518E-3,-7.635590737E-4,2.099440352E-3
6.551969350E-1,1.527118147E-3,-1.221694518E-3,4.581354442E-4,2.008610320E-3
6.576413100E-1,1.527118147E-3,0.000000000E0,-7.635590737E-4,1.707369994E-3
6.600864660E-1,-9.162708884E-4,-1.221694518E-3,4.581354442E-4,1.594358153E-3
6.625307370E-1,-9.162708884E-4,0.000000000E0,-7.635590737E-4,1.192717402E-3
6.649742790E-1,3.054236295E-4,0.000000000E0,4.581354442E-4,5.506102784E-4
6.674186540E-1,1.527118147E-3,0.000000000E0,4.581354442E-4,1.594358153E-3
6.698637580E-1,3.054236295E-4,-1.221694518E-3,-7.635590737E-4,1.472699408E-3
6.723080290E-1,3.054236295E-4,0.000000000E0,-7.635590737E-4,8.223782903E-4
6.747515700E-1,3.054236295E-4,-2.443389036E-3,4.581354442E-4,2.504659989E-3
6.771959450E-1,1.527118147E-3,-2.443389036E-3,-7.635590737E-4,2.980815706E-3
6.796410490E-1,1.527118147E-3,-1.221694518E-3,-7.635590737E-4,2.099440352E-3
6.820853200E-1,3.054236295E-4,1.221694518E-3,-7.635590737E-4,1.472699408E-3
6.845288620E-1,-9.162708884E-4,-1.221694518E-3,-1.985253533E-3,2.504659943E-3
6.869732370E-1,3.054236295E-4,-1.221694518E-3,4.581354442E-4,1.340040736E-3
6.894183410E-1,3.054236295E-4,-1.221694518E-3,-7.635590737E-4,1.472699408E-3
6.918626120E-1,1.527118147E-3,0.000000000E0,4.581354442E-4,1.594358153E-3
6.943061540E-1,1.527118147E-3,-1.221694518E-3,4.581354442E-4,2.008610320E-3
6.967505290E-1,1.527118147E-3,-1.221694518E-3,1.679830020E-3,2.578072192E-3
6.991956330E-1,3.054236295E-4,0.000000000E0,-7.635590737E-4,8.223782903E-4
7.016399040E-1,-9.162708884E-4,0.000000000E0,-1.985253533E-3,2.186500385E-3
7.040834450E-1,3.054236295E-4,-1.221694518E-3,-7.635590737E-4,1.472699408E-3
7.065278200E-1,3.054236295E-4,0.000000000E0,4.581354442E-4,5.506102784E-4
7.089729240E-1,-9.162708884E-4,2.443389036E-3,-1.985253533E-3,3.278861679E-3
7.114171950E-1,3.054236295E-4,1.221694518E-3,-7.635590737E-4,1.472699408E-3
7.138607370E-1,-9.162708884E-4,-1.221694518E-3,4.581354442E-4,1.594358153E-3
7.163051120E-1,3.054236295E-4,-1.221694518E-3,-7.635590737E-4,1.472699408E-3
7.187502160E-1,-9.162708884E-4,-1.221694518E-3,4.581354442E-4,1.594358153E-3
7.211944870E-1,3.054236295E-4,-1.221694518E-3,4.581354442E-4,1.340040736E-3
7.236380290E-1,2.748812549E-3,-1.221694518E-3,1.679830020E-3,3.445335516E-3
7.260824040E-1,1.527118147E-3,-1.221694518E-3,4.581354442E-4,2.008610320E-3
7.285275080E-1,1.527118147E-3,0.000000000E0,-7.635590737E-4,1.707369994E-3
7.309717790E-1,3.054236295E-4,0.000000000E0,1.679830020E-3,1.707370051E-3
7.334153200E-1,1.527118147E-3,-1.221694518E-3,4.581354442E-4,2.008610320E-3
7.358596950E-1,-9.162708884E-4,-1.221694518E-3,-7.635590737E-4,1.707369994E-3
7.383048510E-1,1.527118147E-3,-1.221694518E-3,4.581354442E-4,2.008610320E-3
7.407491220E-1,1.527118147E-3,0.000000000E0,4.581354442E-4,1.594358153E-3
7.431926120E-1,3.054236295E-4,0.000000000E0,4.581354442E-4,5.506102784E-4
7.456369870E-1,-9.162708884E-4,0.000000000E0,4.581354442E-4,1.024421996E-3
7.480821430E-1,-9.162708884E-4,0.000000000E0,-7.635590737E-4,1.192717402E-3
7.505264140E-1,3.054236295E-4,-1.221694518E-3,-7.635590737E-4,1.472699408E-3
7.529699560E-1,3.054236295E-4,-1.221694518E-3,1.679830020E-3,2.099440398E-3
7.554142260E-1,-9.162708884E-4,0.000000000E0,1.679830020E-3,1.913473605E-3
7.578594350E-1,-9.162708884E-4,0.000000000E0,4.581354442E-4,1.024421996E-3
7.603037060E-1,3.054236295E-4,0.000000000E0,-1.985253533E-3,2.008610262E-3
7.627472470E-1,3.054236295E-4,-2.443389036E-3,4.581354442E-4,2.504659989E-3
7.651916220E-1,1.527118147E-3,-2.443389036E-3,1.679830020E-3,3.335276407E-3
7.676367260E-1,3.054236295E-4,0.000000000E0,4.581354442E-4,5.506102784E-4
7.700809970E-1,1.527118147E-3,-1.221694518E-3,-7.635590737E-4,2.099440352E-3
7.725245390E-1,3.054236295E-4,-1.221694518E-3,-7.635590737E-4,1.472699408E-3
7.749689140E-1,-9.162708884E-4,0.000000000E0,4.581354442E-4,1.024421996E-3
7.774140180E-1,-9.162708884E-4,0.000000000E0,1.679830020E-3,1.913473605E-3
7.798582890E-1,-2.137965523E-3,-1.221694518E-3,-7.635590737E-4,2.578072251E-3
7.823018310E-1,3.054236295E-4,0.000000000E0,4.581354442E-4,5.506102784E-4
7.847462060E-1,3.054236295E-4,-1.221694518E-3,-7.635590737E-4,1.472699408E-3
7.871913100E-1,3.054236295E-4,0.000000000E0,-7.635590737E-4,8.223782903E-4
7.896355810E-1,1.527118147E-3,0.000000000E0,4.581354442E-4,1.594358153E-3
7.920791220E-1,3.054236295E-4,0.000000000E0,-7.635590737E-4,8.223782903E-4
7.945234970E-1,1.527118147E-3,1.221694518E-3,-7.635590737E-4,2.099440352E-3
7.969686010E-1,1.527118147E-3,-2.443389036E-3,4.581354442E-4,2.917555124E-3
7.994128720E-1,3.054236295E-4,0.000000000E0,4.581354442E-4,5.506102784E-4
8.018564140E-1,-9.162708884E-4,-1.221694518E-3,-1.985253533E-3,2.504659943E-3
8.043007890E-1,1.527118147E-3,-2.443389036E-3,4.581354442E-4,2.917555124E-3
8.067458930E-1,3.054236295E-4,0.000000000E0,-7.635590737E-4,8.223782903E-4
8.091901640E-1,3.054236295E-4,0.000000000E0,-7.635590737E-4,8.223782903E-4
8.116337060E-1,-9.162708884E-4,-1.221694518E-3,1.679830020E-3,2.270224379E-3
8.140780810E-1,3.054236295E-4,-1.221694518E-3,-1.985253533E-3,2.350968456E-3
8.165231850E-1,3.054236295E-4,0.000000000E0,-7.635590737E-4,8.223782903E-4
8.189674560E-1,3.054236295E-4,-1.221694518E-3,4.581354442E-4,1.340040736E-3
8.214109970E-1,-9.162708884E-4,-1.221694518E-3,-7.635590737E-4,1.707369994E-3
8.238553720E-1,3.054236295E-4,-1.221694518E-3,-7.635590737E-4,1.472699408E-3
8.263005290E-1,1.527118147E-3,0.000000000E0,4.581354442E-4,1.594358153E-3
8.287447990E-1,3.054236295E-4,-1.221694518E-3,4.581354442E-4,1.340040736E-3
8.311882890E-1,3.054236295E-4,-2.443389036E-3,4.581354442E-4,2.504659989E-3
8.336326640E-1,3.054236295E-4,-1.221694518E-3,4.581354442E-4,1.340040736E-3
8.360778200E-1,-9.162708884E-4,0.000000000E0,-7.635590737E-4,1.192717402E-3
8.385220910E-1,3.054236295E-4,-1.221694518E-3,-7.635590737E-4,1.472699408E-3
8.409655810E-1,3.054236295E-4,-1.221694518E-3,4.581354442E-4,1.340040736E-3
8.434100080E-1,3.054236295E-4,-1.221694518E-3,4.581354442E-4,1.340040736E-3
8.458551120E-1,3.054236295E-4,0.000000000E0,1.679830020E-3,1.707370051E-3
8.482993830E-1,1.527118147E-3,0.000000000E0,4.581354442E-4,1.594358153E-3
8.507429240E-1,3.054236295E-4,-2.443389036E-3,1.679830020E-3,2.980815739E-3
8.531872990E-1,3.054236295E-4,-2.443389036E-3,1.679830020E-3,2.980815739E-3
8.556324040E-1,1.527118147E-3,-1.221694518E-3,4.581354442E-4,2.008610320E-3
8.580766740E-1,3.054236295E-4,-1.221694518E-3,1.679830020E-3,2.099440398E-3
8.605202160E-1,3.054236295E-4,1.221694518E-3,4.581354442E-4,1.340040736E-3
8.629645910E-1,1.527118147E-3,-1.221694518E-3,1.679830020E-3,2.578072192E-3
8.654096950E-1,-9.162708884E-4,-1.221694518E-3,-7.635590737E-4,1.707369994E-3
8.678539660E-1,1.527118147E-3,-1.221694518E-3,2.901524538E-3,3.499067301E-3
8.702975080E-1,3.054236295E-4,1.221694518E-3,4.581354442E-4,1.340040736E-3
8.727418830E-1,-9.162708884E-4,-1.221694518E-3,-1.985253533E-3,2.504659943E-3
8.751869870E-1,-9.162708884E-4,0.000000000E0,4.581354442E-4,1.024421996E-3
8.776312580E-1,3.054236295E-4,0.000000000E0,1.679830020E-3,1.707370051E-3
8.800747990E-1,-9.162708884E-4,-1.221694518E-3,1.679830020E-3,2.270224379E-3
8.825191740E-1,3.054236295E-4,-1.221694518E-3,-1.985253533E-3,2.350968456E-3
8.849642790E-1,3.054236295E-4,0.000000000E0,-7.635590737E-4,8.223782903E-4
8.874085490E-1,3.054236295E-4,0.000000000E0,4.581354442E-4,5.506102784E-4
8.898520910E-1,-9.162708884E-4,-1.221694518E-3,4.581354442E-4,1.594358153E-3
8.922964660E-1,3.054236295E-4,0.000000000E0,4.581354442E-4,5.506102784E-4
8.947415700E-1,-9.162708884E-4,0.000000000E0,-7.635590737E-4,1.192717402E-3
8.971858410E-1,3.054236295E-4,0.000000000E0,4.581354442E-4,5.506102784E-4
8.996293830E-1,1.527118147E-3,-1.221694518E-3,-7.635590737E-4,2.099440352E-3
9.020737580E-1,3.054236295E-4,0.000000000E0,4.581354442E-4,5.506102784E-4
9.045189140E-1,3.054236295E-4,-1.221694518E-3,-7.635590737E-4,1.472699408E-3
9.069631850E-1,3.054236295E-4,-1.221694518E-3,-7.635590737E-4,1.472699408E-3
9.094066740E-1,-9.162708884E-4,0.000000000E0,-7.635590737E-4,1.192717402E-3
9.118510490E-1,3.054236295E-4,-1.221694518E-3,-7.635590737E-4,1.472699408E-3
9.142962060E-1,3.054236295E-4,0.000000000E0,-7.635590737E-4,8.223782903E-4
9.167404760E-1,1.527118147E-3,-1.221694518E-3,-7.635590737E-4,2.099440352E-3
9.191839660E-1,-9.162708884E-4,-1.221694518E-3,4.581354442E-4,1.594358153E-3
9.216283410E-1,3.054236295E-4,0.000000000E0,1.679830020E-3,1.707370051E-3
9.240734970E-1,-2.137965523E-3,1.221694518E-3,-1.985253533E-3,3.163015280E-3
9.265177680E-1,-9.162708884E-4,-1.221694518E-3,-7.635590737E-4,1.707369994E-3
9.289613100E-1,3.054236295E-4,0.000000000E0,1.679830020E-3,1.707370051E-3
9.314056850E-1,-9.162708884E-4,0.000000000E0,-7.635590737E-4,1.192717402E-3
9.338507890E-1,3.054236295E-4,0.000000000E0,4.581354442E-4,5.506102784E-4
9.362950600E-1,3.054236295E-4,1.221694518E-3,-1.985253533E-3,2.350968456E-3
9.387386010E-1,-9.162708884E-4,0.000000000E0,4.581354442E-4,1.024421996E-3
9.411829760E-1,-2.137965523E-3,0.000000000E0,-7.635590737E-4,2.270224446E-3
9.436280810E-1,3.054236295E-4,-1.221694518E-3,-7.635590737E-4,1.472699408E-3
9.460723510E-1,1.527118147E-3,-2.443389036E-3,-7.635590737E-4,2.980815706E-3
9.485158930E-1,1.527118147E-3,-1.221694518E-3,-7.635590737E-4,2.099440352E-3
9.509602680E-1,3.054236295E-4,0.000000000E0,-7.635590737E-4,8.223782903E-4
9.534053720E-1,3.054236295E-4,-1.221694518E-3,-1.985253533E-3,2.350968456E-3
9.558496430E-1,3.054236295E-4,0.000000000E0,4.581354442E-4,5.506102784E-4
9.582931850E-1,3.054236295E-4,-1.221694518E-3,1.679830020E-3,2.099440398E-3
9.607375600E-1,3.054236295E-4,-3.665083554E-3,4.581354442E-4,3.706212235E-3
9.631826640E-1,3.054236295E-4,-1.221694518E-3,-7.635590737E-4,1.472699408E-3
9.656269350E-1,3.054236295E-4,-2.443389036E-3,4.581354442E-4,2.504659989E-3
9.680704760E-1,-9.162708884E-4,-2.443389036E-3,4.581354442E-4,2.649450963E-3
9.705148510E-1,3.054236295E-4,-1.221694518E-3,4.581354442E-4,1.340040736E-3
9.729599560E-1,3.054236295E-4,1.221694518E-3,4.581354442E-4,1.340040736E-3
9.754042260E-1,-9.162708884E-4,-1.221694518E-3,-7.635590737E-4,1.707369994E-3
9.778477680E-1,3.054236295E-4,-1.221694518E-3,-7.635590737E-4,1.472699408E-3
9.802921430E-1,3.054236295E-4,0.000000000E0,4.581354442E-4,5.506102784E-4
9.827372470E-1,3.054236295E-4,1.221694518E-3,-1.985253533E-3,2.350968456E-3
9.851816220E-1,1.527118147E-3,2.443389036E-3,-7.635590737E-4,2.980815706E-3
9.876250600E-1,3.054236295E-4,0.000000000E0,1.679830020E-3,1.707370051E-3
9.900694350E-1,3.054236295E-4,0.000000000E0,-7.635590737E-4,8.223782903E-4
9.925145910E-1,-9.162708884E-4,1.221694518E-3,-1.985253533E-3,2.504659943E-3
9.949588620E-1,-9.162708884E-4,0.000000000E0,-1.985253533E-3,2.186500385E-3
9.974023510E-1,-9.162708884E-4,1.221694518E-3,4.581354442E-4,1.594358153E-3
9.998467260E-1,3.054236295E-4,-1.221694518E-3,4.581354442E-4,1.340040736E-3
1.002291883E0,3.054236295E-4,-1.221694518E-3,-7.635590737E-4,1.472699408E-3
1.004736154E0,1.527118147E-3,-1.221694518E-3,-7.635590737E-4,2.099440352E-3
1.007179695E0,3.054236295E-4,0.000000000E0,-1.985253533E-3,2.008610262E-3
1.009624070E0,3.054236295E-4,-1.221694518E-3,2.901524538E-3,3.163015291E-3
1.012069174E0,3.054236295E-4,0.000000000E0,1.679830020E-3,1.707370051E-3
1.014513445E0,3.054236295E-4,-1.221694518E-3,-7.635590737E-4,1.472699408E-3
1.016956987E0,-9.162708884E-4,-1.221694518E-3,-7.635590737E-4,1.707369994E-3
1.019401362E0,3.054236295E-4,1.221694518E-3,-7.635590737E-4,1.472699408E-3
1.021846466E0,-9.162708884E-4,-1.221694518E-3,-7.635590737E-4,1.707369994E-3
1.024290737E0,3.054236295E-4,-1.221694518E-3,1.679830020E-3,2.099440398E-3
1.026734279E0,1.527118147E-3,-1.221694518E-3,1.679830020E-3,2.578072192E-3
1.029178654E0,3.054236295E-4,-1.221694518E-3,-7.635590737E-4,1.472699408E-3
1.031623758E0,3.054236295E-4,-2.443389036E-3,-7.635590737E-4,2.578072154E-3
1.034068029E0,3.054236295E-4,0.000000000E0,-7.635590737E-4,8.223782903E-4
1.036511570E0,3.054236295E-4,0.000000000E0,4.581354442E-4,5.506102784E-4
1.038955945E0,3.054236295E-4,0.000000000E0,1.679830020E-3,1.707370051E-3
1.041401049E0,1.527118147E-3,-1.221694518E-3,4.581354442E-4,2.008610320E-3
1.043845320E0,1.527118147E-3,0.000000000E0,1.679830020E-3,2.270224379E-3
1.046288862E0,3.054236295E-4,0.000000000E0,-7.635590737E-4,8.223782903E-4
1.048733237E0,-9.162708884E-4,0.000000000E0,-1.985253533E-3,2.186500385E-3
1.051178341E0,3.054236295E-4,-1.221694518E-3,-1.985253533E-3,2.350968456E-3
1.053622612E0,3.054236295E-4,0.000000000E0,-7.635590737E-4,8.223782903E-4
1.056066154E0,3.054236295E-4,0.000000000E0,-7.635590737E-4,8.223782903E-4
1.058510529E0,-9.162708884E-4,0.000000000E0,-7.635590737E-4,1.192717402E-3
1.060955633E0,3.054236295E-4,0.000000000E0,-1.985253533E-3,2.008610262E-3
1.063400008E0,3.054236295E-4,-1.221694518E-3,4.581354442E-4,1.340040736E-3
1.065843445E0,-9.162708884E-4,0.000000000E0,-1.985253533E-3,2.186500385E-3
1.068287820E0,-9.162708884E-4,-1.221694518E-3,-7.635590737E-4,1.707369994E-3
1.070732976E0,-9.162708884E-4,-1.221694518E-3,4.581354442E-4,1.594358153E-3
1.073177247E0,3.054236295E-4,0.000000000E0,-7.635590737E-4,8.223782903E-4
1.075620737E0,-9.162708884E-4,-1.221694518E-3,-1.985253533E-3,2.504659943E-3
1.078065112E0,1.527118147E-3,-2.443389036E-3,-7.635590737E-4,2.980815706E-3
1.080510268E0,-9.162708884E-4,2.443389036E-3,4.581354442E-4,2.649450963E-3
1.082954539E0,3.054236295E-4,0.000000000E0,4.581354442E-4,5.506102784E-4
1.085398029E0,3.054236295E-4,-1.221694518E-3,-7.635590737E-4,1.472699408E-3
1.087842404E0,3.054236295E-4,0.000000000E0,1.679830020E-3,1.707370051E-3
1.090287560E0,3.054236295E-4,0.000000000E0,-7.635590737E-4,8.223782903E-4
1.092731831E0,1.527118147E-3,0.000000000E0,4.581354442E-4,1.594358153E-3
1.095175372E0,3.054236295E-4,0.000000000E0,4.581354442E-4,5.506102784E-4
1.097619747E0,-9.162708884E-4,-1.221694518E-3,-7.635590737E-4,1.707369994E-3
1.100064851E0,-9.162708884E-4,0.000000000E0,-1.985253533E-3,2.186500385E-3
1.102509122E0,1.527118147E-3,-2.443389036E-3,-7.635590737E-4,2.980815706E-3
1.104952664E0,3.054236295E-4,-2.443389036E-3,-7.635590737E-4,2.578072154E-3
1.107397039E0,3.054236295E-4,-1.221694518E-3,-7.635590737E-4,1.472699408E-3
1.109842143E0,1.527118147E-3,-1.221694518E-3,4.581354442E-4,2.008610320E-3
1.112286414E0,1.527118147E-3,-1.221694518E-3,-7.635590737E-4,2.099440352E-3
1.114729956E0,1.527118147E-3,-2.443389036E-3,-1.985253533E-3,3.499067220E-3
1.117174331E0,3.054236295E-4,-1.221694518E-3,-7.635590737E-4,1.472699408E-3
1.119619435E0,-9.162708884E-4,0.000000000E0,-1.985253533E-3,2.186500385E-3
1.122063706E0,3.054236295E-4,0.000000000E0,-7.635590737E-4,8.223782903E-4
1.124507247E0,-9.162708884E-4,0.000000000E0,-1.985253533E-3,2.186500385E-3
1.126951622E0,3.054236295E-4,-1.221694518E-3,4.581354442E-4,1.340040736E-3
1.129396726E0,3.054236295E-4,-1.221694518E-3,4.581354442E-4,1.340040736E-3
1.131840997E0,3.054236295E-4,0.000000000E0,1.679830020E-3,1.707370051E-3
1.134284539E0,-9.162708884E-4,-2.443389036E-3,4.581354442E-4,2.649450963E-3
1.136728914E0,3.054236295E-4,0.000000000E0,4.581354442E-4,5.506102784E-4
1.139174018E0,1.527118147E-3,-2.443389036E-3,4.581354442E-4,2.917555124E-3
1.141618289E0,3.054236295E-4,-2.443389036E-3,4.581354442E-4,2.504659989E-3
1.144061831E0,3.054236295E-4,-1.221694518E-3,-1.985253533E-3,2.350968456E-3
1.146506206E0,3.054236295E-4,-1.221694518E-3,-7.635590737E-4,1.472699408E-3
1.148951362E0,-9.162708884E-4,2.443389036E-3,1.679830020E-3,3.103470834E-3
1.151395633E0,3.054236295E-4,1.221694518E-3,2.901524538E-3,3.163015291E-3
1.153839122E0,-9.162708884E-4,-1.221694518E-3,-7.635590737E-4,1.707369994E-3
1.156283497E0,3.054236295E-4,-1.221694518E-3,-1.985253533E-3,2.350968456E-3
1.158728654E0,3.054236295E-4,-1.221694518E-3,-7.635590737E-4,1.472699408E-3
1.161172924E0,3.054236295E-4,1.221694518E-3,1.679830020E-3,2.099440398E-3
1.163616466E0,3.054236295E-4,-1.221694518E-3,4.581354442E-4,1.340040736E-3
1.166060737E0,1.527118147E-3,1.221694518E-3,-7.635590737E-4,2.099440352E-3
1.168505945E0,3.054236295E-4,-1.221694518E-3,-1.985253533E-3,2.350968456E-3
1.170950216E0,3.054236295E-4,0.000000000E0,-7.635590737E-4,8.223782903E-4
1.173393706E0,3.054236295E-4,-1.221694518E-3,4.581354442E-4,1.340040736E-3
1.175838133E0,1.527118147E-3,-1.221694518E-3,4.581354442E-4,2.008610320E-3
1.178283237E0,3.054236295E-4,0.000000000E0,-7.635590737E-4,8.223782903E-4
1.180727508E0,1.527118147E-3,0.000000000E0,-7.635590737E-4,1.707369994E-3
1.183171049E0,3.054236295E-4,-1.221694518E-3,4.581354442E-4,1.340040736E-3
1.185615424E0,3.054236295E-4,-1.221694518E-3,4.581354442E-4,1.340040736E-3
1.188060529E0,1.527118147E-3,0.000000000E0,1.679830020E-3,2.270224379E-3
1.190504799E0,3.054236295E-4,0.000000000E0,1.679830020E-3,1.707370051E-3
1.192948341E0,3.054236295E-4,0.000000000E0,1.679830020E-3,1.707370051E-3
1.195392716E0,-9.162708884E-4,0.000000000E0,4.581354442E-4,1.024421996E-3
1.197837820E0,-9.162708884E-4,0.000000000E0,2.901524538E-3,3.042761408E-3
1.200282091E0,3.054236295E-4,1.221694518E-3,1.679830020E-3,2.099440398E-3
1.202725633E0,3.054236295E-4,0.000000000E0,-7.635590737E-4,8.223782903E-4
1.205170008E0,3.054236295E-4,-1.221694518E-3,-1.985253533E-3,2.350968456E-3
1.207615112E0,3.054236295E-4,0.000000000E0,-7.635590737E-4,8.223782903E-4
1.210059383E0,3.054236295E-4,-1.221694518E-3,4.581354442E-4,1.340040736E-3
1.212502924E0,3.054236295E-4,-1.221694518E-3,-7.635590737E-4,1.472699408E-3
1.214947299E0,3.054236295E-4,-1.221694518E-3,-1.985253533E-3,2.350968456E-3
1.217392404E0,3.054236295E-4,-1.221694518E-3,-1.985253533E-3,2.350968456E-3
1.219836674E0,3.054236295E-4,-1.221694518E-3,-7.635590737E-4,1.472699408E-3
1.222280216E0,-9.162708884E-4,0.000000000E0,-7.635590737E-4,1.192717402E-3
1.224724591E0,3.054236295E-4,1.221694518E-3,-7.635590737E-4,1.472699408E-3
1.227169747E0,3.054236295E-4,0.000000000E0,4.581354442E-4,5.506102784E-4
1.229613966E0,3.054236295E-4,1.221694518E-3,4.581354442E-4,1.340040736E-3
1.232057508E0,3.054236295E-4,0.000000000E0,4.581354442E-4,5.506102784E-4
1.234501883E0,3.054236295E-4,0.000000000E0,4.581354442E-4,5.506102784E-4
1.236947039E0,3.054236295E-4,-1.221694518E-3,-7.635590737E-4,1.472699408E-3
1.239391310E0,3.054236295E-4,-1.221694518E-3,-1.985253533E-3,2.350968456E-3
1.241834799E0,3.054236295E-4,-1.221694518E-3,4.581354442E-4,1.340040736E-3
1.244279174E0,3.054236295E-4,-1.221694518E-3,4.581354442E-4,1.340040736E-3
1.246724331E0,3.054236295E-4,-1.221694518E-3,-1.985253533E-3,2.350968456E-3
1.249168601E0,3.054236295E-4,-1.221694518E-3,4.581354442E-4,1.340040736E-3
1.251612091E0,3.054236295E-4,-1.221694518E-3,4.581354442E-4,1.340040736E-3
1.254056518E0,3.054236295E-4,-1.221694518E-3,-7.635590737E-4,1.472699408E-3
1.256501622E0,3.054236295E-4,-1.221694518E-3,4.581354442E-4,1.340040736E-3
1.258945893E0,3.054236295E-4,0.000000000E0,4.581354442E-4,5.506102784E-4
1.261389435E0,-9.162708884E-4,0.000000000E0,-7.635590737E-4,1.192717402E-3
1.263833810E0,3.054236295E-4,-2.443389036E-3,1.679830020E-3,2.980815739E-3
1.266278914E0,3.054236295E-4,0.000000000E0,4.581354442E-4,5.506102784E-4
1.268723185E0,3.054236295E-4,0.000000000E0,-7.635590737E-4,8.223782903E-4
1.271166726E0,3.054236295E-4,-1.221694518E-3,4.581354442E-4,1.340040736E-3
1.273611101E0,1.527118147E-3,-1.221694518E-3,4.581354442E-4,2.008610320E-3
1.276056206E0,3.054236295E-4,1.221694518E-3,-7.635590737E-4,1.472699408E-3
1.278500476E0,3.054236295E-4,0.000000000E0,4.581354442E-4,5.506102784E-4
1.280944018E0,1.527118147E-3,0.000000000E0,4.581354442E-4,1.594358153E-3
1.283388393E0,3.054236295E-4,0.000000000E0,-7.635590737E-4,8.223782903E-4
1.285833497E0,3.054236295E-4,1.221694518E-3,4.581354442E-4,1.340040736E-3
1.288277768E0,3.054236295E-4,0.000000000E0,4.581354442E-4,5.506102784E-4
1.290721310E0,3.054236295E-4,-1.221694518E-3,1.679830020E-3,2.099440398E-3
1.293165685E0,1.527118147E-3,0.000000000E0,-7.635590737E-4,1.707369994E-3
1.295610789E0,-9.162708884E-4,0.000000000E0,-1.985253533E-3,2.186500385E-3
1.298055060E0,3.054236295E-4,0.000000000E0,-7.635590737E-4,8.223782903E-4
1.300498601E0,3.054236295E-4,-1.221694518E-3,4.581354442E-4,1.340040736E-3
1.302942976E0,3.054236295E-4,-1.221694518E-3,-7.635590737E-4,1.472699408E-3
1.305388081E0,2.748812549E-3,-2.443389036E-3,-7.635590737E-4,3.756213901E-3
1.307832351E0,1.527118147E-3,0.000000000E0,-1.985253533E-3,2.504659943E-3
1.310275893E0,3.054236295E-4,1.221694518E-3,-7.635590737E-4,1.472699408E-3
1.312720268E0,-9.162708884E-4,1.221694518E-3,-7.635590737E-4,1.707369994E-3
1.315165424E0,-9.162708884E-4,0.000000000E0,-1.985253533E-3,2.186500385E-3
1.317609695E0,1.527118147E-3,-1.221694518E-3,-7.635590737E-4,2.099440352E-3
1.320053185E0,3.054236295E-4,-2.443389036E-3,-7.635590737E-4,2.578072154E-3
1.322497560E0,3.054236295E-4,-1.221694518E-3,-7.635590737E-4,1.472699408E-3
1.324942716E0,3.054236295E-4,0.000000000E0,1.679830020E-3,1.707370051E-3
1.327386987E0,1.527118147E-3,-1.221694518E-3,-7.635590737E-4,2.099440352E-3
1.329830476E0,-9.162708884E-4,-1.221694518E-3,-7.635590737E-4,1.707369994E-3
1.332274851E0,1.527118147E-3,-2.443389036E-3,-7.635590737E-4,2.980815706E-3
1.334720008E0,1.527118147E-3,0.000000000E0,4.581354442E-4,1.594358153E-3
1.337164279E0,-9.162708884E-4,0.000000000E0,-7.635590737E-4,1.192717402E-3
1.339607820E0,3.054236295E-4,0.000000000E0,-7.635590737E-4,8.223782903E-4
1.342052195E0,3.054236295E-4,0.000000000E0,-7.635590737E-4,8.223782903E-4
1.344497299E0,3.054236295E-4,-1.221694518E-3,-7.635590737E-4,1.472699408E-3
1.346941570E0,-9.162708884E-4,-1.221694518E-3,-1.985253533E-3,2.504659943E-3
1.349385112E0,-9.162708884E-4,2.443389036E-3,4.581354442E-4,2.649450963E-3
1.351829487E0,3.054236295E-4,1.221694518E-3,-7.635590737E-4,1.472699408E-3
1.354274591E0,3.054236295E-4,-1.221694518E-3,-7.635590737E-4,1.472699408E-3
1.356718862E0,3.054236295E-4,0.000000000E0,-7.635590737E-4,8.223782903E-4
1.359162404E0,3.054236295E-4,1.221694518E-3,4.581354442E-4,1.340040736E-3
1.361606779E0,3.054236295E-4,0.000000000E0,4.581354442E-4,5.506102784E-4
1.364051883E0,1.527118147E-3,-1.221694518E-3,4.581354442E-4,2.008610320E-3
1.366496154E0,3.054236295E-4,1.221694518E-3,4.581354442E-4,1.340040736E-3
1.368939695E0,-9.162708884E-4,-1.221694518E-3,-7.635590737E-4,1.707369994E-3
1.371384070E0,-9.162708884E-4,0.000000000E0,-7.635590737E-4,1.192717402E-3
1.373829174E0,1.527118147E-3,-1.221694518E-3,4.581354442E-4,2.008610320E-3
1.376273445E0,1.527118147E-3,-1.221694518E-3,1.679830020E-3,2.578072192E-3
1.378716987E0,3.054236295E-4,-1.221694518E-3,4.581354442E-4,1.340040736E-3
1.381161362E0,-9.162708884E-4,-2.443389036E-3,-7.635590737E-4,2.718956561E-3
1.383606466E0,3.054236295E-4,-1.221694518E-3,-7.635590737E-4,1.472699408E-3
1.386050737E0,-9.162708884E-4,-2.443389036E-3,4.581354442E-4,2.649450963E-3
1.388494279E0,3.054236295E-4,-2.443389036E-3,4.581354442E-4,2.504659989E-3
1.390938654E0,1.527118147E-3,-2.443389036E-3,-7.635590737E-4,2.980815706E-3
1.393383810E0,1.527118147E-3,-2.443389036E-3,-7.635590737E-4,2.980815706E-3
1.395828081E0,1.527118147E-3,-1.221694518E-3,-7.635590737E-4,2.099440352E-3
1.398271570E0,-9.162708884E-4,-4.886778072E-3,-7.635590737E-4,5.030226110E-3
1.400715945E0,-9.162708884E-4,-2.443389036E-3,4.581354442E-4,2.649450963E-3
1.403161101E0,-9.162708884E-4,-1.221694518E-3,4.581354442E-4,1.594358153E-3
1.405605372E0,-9.162708884E-4,-1.221694518E-3,-1.985253533E-3,2.504659943E-3
1.408048862E0,3.054236295E-4,1.221694518E-3,-7.635590737E-4,1.472699408E-3
1.410493237E0,3.054236295E-4,0.000000000E0,1.679830020E-3,1.707370051E-3
1.412938393E0,3.054236295E-4,-1.221694518E-3,4.581354442E-4,1.340040736E-3
1.415382664E0,-9.162708884E-4,-2.443389036E-3,-7.635590737E-4,2.718956561E-3
1.417826206E0,3.054236295E-4,0.000000000E0,-7.635590737E-4,8.223782903E-4
1.420270581E0,2.748812549E-3,-1.221694518E-3,4.581354442E-4,3.042761247E-3
1.422715685E0,1.527118147E-3,0.000000000E0,4.581354442E-4,1.594358153E-3
1.425159956E0,-9.162708884E-4,1.221694518E-3,-7.635590737E-4,1.707369994E-3
1.427603497E0,3.054236295E-4,0.000000000E0,4.581354442E-4,5.506102784E-4
1.430047872E0,3.054236295E-4,-1.221694518E-3,1.679830020E-3,2.099440398E-3
1.432492976E0,3.054236295E-4,0.000000000E0,4.581354442E-4,5.506102784E-4
1.434937247E0,-9.162708884E-4,0.000000000E0,-7.635590737E-4,1.192717402E-3
1.437380789E0,3.054236295E-4,-1.221694518E-3,-7.635590737E-4,1.472699408E-3
1.439825164E0,1.527118147E-3,-1.221694518E-3,4.581354442E-4,2.008610320E-3
1.442270268E0,3.054236295E-4,1.221694518E-3,-7.635590737E-4,1.472699408E-3
1.444714539E0,3.054236295E-4,-1.221694518E-3,4.581354442E-4,1.340040736E-3
1.447158081E0,3.054236295E-4,-2.443389036E-3,-7.635590737E-4,2.578072154E-3
1.449602456E0,3.054236295E-4,-2.443389036E-3,-1.985253533E-3,3.163015202E-3
1.452047560E0,3.054236295E-4,-1.221694518E-3,-1.985253533E-3,2.350968456E-3
1.454491831E0,3.054236295E-4,0.000000000E0,4.581354442E-4,5.506102784E-4
1.456935372E0,3.054236295E-4,0.000000000E0,4.581354442E-4,5.506102784E-4
1.459379747E0,1.527118147E-3,0.000000000E0,4.581354442E-4,1.594358153E-3
1.461824851E0,3.054236295E-4,0.000000000E0,4.581354442E-4,5.506102784E-4
1.464269122E0,-9.162708884E-4,0.000000000E0,4.581354442E-4,1.024421996E-3
1.466712664E0,3.054236295E-4,-1.221694518E-3,-1.985253533E-3,2.350968456E-3
1.469157039E0,1.527118147E-3,-2.443389036E-3,-1.985253533E-3,3.499067220E-3
1.471602143E0,1.527118147E-3,-1.221694518E-3,4.581354442E-4,2.008610320E-3
1.474046414E0,1.527118147E-3,0.000000000E0,2.901524538E-3,3.278861766E-3
1.476489956E0,1.527118147E-3,-1.221694518E-3,4.581354442E-4,2.008610320E-3
1.478934331E0,-9.162708884E-4,0.000000000E0,-7.635590737E-4,1.192717402E-3
1.481379487E0,-9.162708884E-4,1.221694518E-3,-7.635590737E-4,1.707369994E-3
1.483823758E0,3.054236295E-4,-1.221694518E-3,4.581354442E-4,1.340040736E-3
1.486267247E0,3.054236295E-4,0.000000000E0,4.581354442E-4,5.506102784E-4
1.488711622E0,3.054236295E-4,-1.221694518E-3,4.581354442E-4,1.340040736E-3
1.491156779E0,-9.162708884E-4,-2.443389036E-3,-7.635590737E-4,2.718956561E-3
1.493601049E0,1.527118147E-3,0.000000000E0,1.679830020E-3,2.270224379E-3
1.496044591E0,1.527118147E-3,-1.221694518E-3,4.581354442E-4,2.008610320E-3
1.498488862E0,-9.162708884E-4,-2.443389036E-3,-7.635590737E-4,2.718956561E-3
1.500934070E0,3.054236295E-4,-2.443389036E-3,4.581354442E-4,2.504659989E-3
1.503378341E0,1.527118147E-3,-2.443389036E-3,4.581354442E-4,2.917555124E-3
1.505821883E0,-9.162708884E-4,-1.221694518E-3,-7.635590737E-4,1.707369994E-3
1.508266258E0,1.527118147E-3,-2.443389036E-3,2.901524538E-3,4.089142265E-3
1.510711362E0,-9.162708884E-4,1.221694518E-3,-7.635590737E-4,1.707369994E-3
1.513155633E0,-9.162708884E-4,-1.221694518E-3,-7.635590737E-4,1.707369994E-3
1.515599174E0,-9.162708884E-4,2.443389036E-3,4.581354442E-4,2.649450963E-3
1.518043549E0,3.054236295E-4,0.000000000E0,-7.635590737E-4,8.223782903E-4
1.520488654E0,3.054236295E-4,0.000000000E0,-7.635590737E-4,8.223782903E-4
1.522932924E0,3.054236295E-4,-2.443389036E-3,-7.635590737E-4,2.578072154E-3
1.525376466E0,3.054236295E-4,0.000000000E0,-7.635590737E-4,8.223782903E-4
1.527820841E0,3.054236295E-4,-1.221694518E-3,4.581354442E-4,1.340040736E-3
1.530265945E0,-9.162708884E-4,0.000000000E0,4.581354442E-4,1.024421996E-3
1.532710216E0,3.054236295E-4,0.000000000E0,4.581354442E-4,5.506102784E-4
1.535153758E0,-9.162708884E-4,1.221694518E-3,-7.635590737E-4,1.707369994E-3
1.537598133E0,1.527118147E-3,0.000000000E0,4.581354442E-4,1.594358153E-3
1.540043237E0,3.054236295E-4,0.000000000E0,4.581354442E-4,5.506102784E-4
1.542487508E0,3.054236295E-4,-1.221694518E-3,2.901524538E-3,3.163015291E-3
1.544931049E0,3.054236295E-4,-1.221694518E-3,4.581354442E-4,1.340040736E-3
1.547375424E0,3.054236295E-4,0.000000000E0,-7.635590737E-4,8.223782903E-4
1.549820529E0,-9.162708884E-4,0.000000000E0,-7.635590737E-4,1.192717402E-3
1.552264904E0,3.054236295E-4,-1.221694518E-3,-1.985253533E-3,2.350968456E-3
1.554708341E0,3.054236295E-4,0.000000000E0,-1.985253533E-3,2.008610262E-3
1.557152716E0,1.527118147E-3,-1.221694518E-3,-7.635590737E-4,2.099440352E-3
1.559597872E0,3.054236295E-4,-1.221694518E-3,-1.985253533E-3,2.350968456E-3
1.562042143E0,3.054236295E-4,1.221694518E-3,4.581354442E-4,1.340040736E-3
1.564485633E0,3.054236295E-4,0.000000000E0,-7.635590737E-4,8.223782903E-4
1.566930008E0,1.527118147E-3,-1.221694518E-3,4.581354442E-4,2.008610320E-3
1.569375164E0,3.054236295E-4,0.000000000E0,-3.206948051E-3,3.221459203E-3
1.571819435E0,1.527118147E-3,-2.443389036E-3,2.901524538E-3,4.089142265E-3
1.574262924E0,3.054236295E-4,-1.221694518E-3,1.679830020E-3,2.099440398E-3
1.576707351E0,3.054236295E-4,0.000000000E0,4.581354442E-4,5.506102784E-4
1.579152456E0,3.054236295E-4,-1.221694518E-3,-7.635590737E-4,1.472699408E-3
1.581596726E0,3.054236295E-4,0.000000000E0,1.679830020E-3,1.707370051E-3
1.584040268E0,-9.162708884E-4,1.221694518E-3,1.679830020E-3,2.270224379E-3
1.586484643E0,-9.162708884E-4,2.443389036E-3,4.581354442E-4,2.649450963E-3
1.588929747E0,3.054236295E-4,0.000000000E0,4.581354442E-4,5.506102784E-4
1.591374018E0,3.054236295E-4,-1.221694518E-3,2.901524538E-3,3.163015291E-3
1.593817560E0,3.054236295E-4,-1.221694518E-3,1.679830020E-3,2.099440398E-3
1.596261935E0,3.054236295E-4,1.221694518E-3,-7.635590737E-4,1.472699408E-3
1.598707039E0,1.527118147E-3,-1.221694518E-3,-7.635590737E-4,2.099440352E-3
1.601151310E0,1.527118147E-3,-1.221694518E-3,4.581354442E-4,2.008610320E-3
1.603594851E0,3.054236295E-4,0.000000000E0,4.581354442E-4,5.506102784E-4
1.606039226E0,3.054236295E-4,-1.221694518E-3,-7.635590737E-4,1.472699408E-3
1.608484331E0,-9.162708884E-4,-2.443389036E-3,-7.635590737E-4,2.718956561E-3
1.610928601E0,-9.162708884E-4,1.221694518E-3,1.679830020E-3,2.270224379E-3
1.613372143E0,1.527118147E-3,-1.221694518E-3,-7.635590737E-4,2.099440352E-3
1.615816518E0,3.054236295E-4,-1.221694518E-3,1.679830020E-3,2.099440398E-3
1.618261622E0,1.527118147E-3,-1.221694518E-3,4.581354442E-4,2.008610320E-3
1.620705893E0,3.054236295E-4,-2.443389036E-3,-1.985253533E-3,3.163015202E-3
1.623149435E0,3.054236295E-4,-1.221694518E-3,-1.985253533E-3,2.350968456E-3
1.625593810E0,2.748812549E-3,-1.221694518E-3,4.581354442E-4,3.042761247E-3
1.628038914E0,3.054236295E-4,1.221694518E-3,1.679830020E-3,2.099440398E-3
1.630483185E0,3.054236295E-4,0.000000000E0,4.581354442E-4,5.506102784E-4
1.632926726E0,-9.162708884E-4,0.000000000E0,-1.985253533E-3,2.186500385E-3
1.635371101E0,3.054236295E-4,-1.221694518E-3,4.581354442E-4,1.340040736E-3
1.637816206E0,3.054236295E-4,-1.221694518E-3,4.581354442E-4,1.340040736E-3
1.640260581E0,-9.162708884E-4,0.000000000E0,4.581354442E-4,1.024421996E-3
1.642704018E0,3.054236295E-4,0.000000000E0,-1.985253533E-3,2.008610262E-3
1.645148393E0,-9.162708884E-4,0.000000000E0,-7.635590737E-4,1.192717402E-3
1.647593549E0,3.054236295E-4,-2.443389036E-3,1.679830020E-3,2.980815739E-3
1.650037820E0,3.054236295E-4,0.000000000E0,1.679830020E-3,1.707370051E-3
1.652481310E0,3.054236295E-4,-1.221694518E-3,1.679830020E-3,2.099440398E-3
1.654925685E0,3.054236295E-4,0.000000000E0,4.581354442E-4,5.506102784E-4
1.657370841E0,-9.162708884E-4,-1.221694518E-3,4.581354442E-4,1.594358153E-3
1.659815112E0,-9.162708884E-4,-1.221694518E-3,-7.635590737E-4,1.707369994E-3
1.662258654E0,3.054236295E-4,-1.221694518E-3,-7.635590737E-4,1.472699408E-3
1.664703029E0,-9.162708884E-4,-1.221694518E-3,-7.635590737E-4,1.707369994E-3
1.667148133E0,3.054236295E-4,0.000000000E0,-7.635590737E-4,8.223782903E-4
1.669592404E0,3.054236295E-4,0.000000000E0,-7.635590737E-4,8.223782903E-4
1.672035945E0,-9.162708884E-4,1.221694518E-3,-7.635590737E-4,1.707369994E-3
1.674480320E0,3.054236295E-4,-1.221694518E-3,-1.985253533E-3,2.350968456E-3
1.676925424E0,-9.162708884E-4,0.000000000E0,-7.635590737E-4,1.192717402E-3
1.679369695E0,3.054236295E-4,-1.221694518E-3,4.581354442E-4,1.340040736E-3
1.681813237E0,3.054236295E-4,0.000000000E0,4.581354442E-4,5.506102784E-4
1.684257612E0,3.054236295E-4,-1.221694518E-3,-1.985253533E-3,2.350968456E-3
1.686702716E0,3.054236295E-4,-1.221694518E-3,-1.985253533E-3,2.350968456E-3
1.689146987E0,-9.162708884E-4,0.000000000E0,-7.635590737E-4,1.192717402E-3
1.691590529E0,-9.162708884E-4,-2.443389036E-3,-1.985253533E-3,3.278861679E-3
1.694034904E0,3.054236295E-4,0.000000000E0,2.901524538E-3,2.917555182E-3
1.696480008E0,-9.162708884E-4,1.221694518E-3,4.581354442E-4,1.594358153E-3
1.698924279E0,-9.162708884E-4,0.000000000E0,-7.635590737E-4,1.192717402E-3
1.701367820E0,-9.162708884E-4,-2.443389036E-3,-7.635590737E-4,2.718956561E-3
1.703812195E0,3.054236295E-4,-2.443389036E-3,4.581354442E-4,2.504659989E-3
1.706257299E0,3.054236295E-4,-1.221694518E-3,4.581354442E-4,1.340040736E-3
1.708701674E0,-9.162708884E-4,0.000000000E0,-7.635590737E-4,1.192717402E-3
1.711145112E0,3.054236295E-4,0.000000000E0,-7.635590737E-4,8.223782903E-4
1.713589487E0,-9.162708884E-4,0.000000000E0,-7.635590737E-4,1.192717402E-3
1.716034643E0,3.054236295E-4,0.000000000E0,4.581354442E-4,5.506102784E-4
1.718478914E0,1.527118147E-3,-1.221694518E-3,-7.635590737E-4,2.099440352E-3
1.720922404E0,3.054236295E-4,-2.443389036E-3,4.581354442E-4,2.504659989E-3
1.723366779E0,-9.162708884E-4,0.000000000E0,-7.635590737E-4,1.192717402E-3
1.725811935E0,-9.162708884E-4,-1.221694518E-3,-7.635590737E-4,1.707369994E-3
1.728256206E0,3.054236295E-4,-1.221694518E-3,-7.635590737E-4,1.472699408E-3
1.730699695E0,3.054236295E-4,0.000000000E0,4.581354442E-4,5.506102784E-4
1.733144122E0,3.054236295E-4,-1.221694518E-3,-1.985253533E-3,2.350968456E-3
1.735589226E0,3.054236295E-4,-1.221694518E-3,4.581354442E-4,1.340040736E-3
1.738033497E0,3.054236295E-4,0.000000000E0,1.679830020E-3,1.707370051E-3
1.740477039E0,2.748812549E-3,-2.443389036E-3,2.901524538E-3,4.684545341E-3
1.742921414E0,3.054236295E-4,-1.221694518E-3,-7.635590737E-4,1.472699408E-3
1.745366518E0,3.054236295E-4,-1.221694518E-3,-7.635590737E-4,1.472699408E-3
1.747810789E0,3.054236295E-4,-1.221694518E-3,1.679830020E-3,2.099440398E-3
1.750254331E0,1.527118147E-3,-1.221694518E-3,-7.635590737E-4,2.099440352E-3
1.752698706E0,3.054236295E-4,-1.221694518E-3,-7.635590737E-4,1.472699408E-3
1.755143810E0,1.527118147E-3,-1.221694518E-3,-7.635590737E-4,2.099440352E-3
1.757588081E0,3.054236295E-4,-2.443389036E-3,4.581354442E-4,2.504659989E-3
1.760031622E0,3.054236295E-4,-1.221694518E-3,-7.635590737E-4,1.472699408E-3
1.762475997E0,3.054236295E-4,-1.221694518E-3,1.679830020E-3,2.099440398E-3
1.764921101E0,3.054236295E-4,-1.221694518E-3,4.581354442E-4,1.340040736E-3
1.767365372E0,1.527118147E-3,0.000000000E0,1.679830020E-3,2.270224379E-3
1.769808914E0,3.054236295E-4,1.221694518E-3,-7.635590737E-4,1.472699408E-3
1.772253289E0,3.054236295E-4,0.000000000E0,-7.635590737E-4,8.223782903E-4
1.774698393E0,-9.162708884E-4,0.000000000E0,-7.635590737E-4,1.192717402E-3
1.777142664E0,-9.162708884E-4,-1.221694518E-3,-1.985253533E-3,2.504659943E-3
1.779586206E0,1.527118147E-3,-1.221694518E-3,4.581354442E-4,2.008610320E-3
1.782030581E0,3.054236295E-4,-1.221694518E-3,-7.635590737E-4,1.472699408E-3
1.784475737E0,3.054236295E-4,0.000000000E0,1.679830020E-3,1.707370051E-3
1.786919956E0,3.054236295E-4,-2.443389036E-3,4.581354442E-4,2.504659989E-3
1.789363497E0,-9.162708884E-4,0.000000000E0,1.679830020E-3,1.913473605E-3
1.791807872E0,3.054236295E-4,0.000000000E0,-7.635590737E-4,8.223782903E-4
1.794253029E0,3.054236295E-4,1.221694518E-3,-7.635590737E-4,1.472699408E-3
1.796697299E0,2.748812549E-3,-1.221694518E-3,4.581354442E-4,3.042761247E-3
1.799140789E0,3.054236295E-4,-1.221694518E-3,1.679830020E-3,2.099440398E-3
1.801585164E0,3.054236295E-4,0.000000000E0,-7.635590737E-4,8.223782903E-4
1.804030320E0,3.054236295E-4,-2.443389036E-3,4.581354442E-4,2.504659989E-3
1.806474591E0,-9.162708884E-4,-1.221694518E-3,-1.985253533E-3,2.504659943E-3
1.808918133E0,3.054236295E-4,0.000000000E0,-3.206948051E-3,3.221459203E-3
1.811362508E0,3.054236295E-4,0.000000000E0,4.581354442E-4,5.506102784E-4
1.813807612E0,1.527118147E-3,0.000000000E0,1.679830020E-3,2.270224379E-3
1.816251883E0,1.527118147E-3,-2.443389036E-3,4.581354442E-4,2.917555124E-3
1.818695424E0,-9.162708884E-4,-1.221694518E-3,1.679830020E-3,2.270224379E-3
1.821139799E0,3.054236295E-4,-1.221694518E-3,1.679830020E-3,2.099440398E-3
1.823584904E0,3.054236295E-4,-2.443389036E-3,-7.635590737E-4,2.578072154E-3
1.826029174E0,3.054236295E-4,-1.221694518E-3,1.679830020E-3,2.099440398E-3
1.828472716E0,-9.162708884E-4,0.000000000E0,-7.635590737E-4,1.192717402E-3
1.830917091E0,2.748812549E-3,0.000000000E0,4.581354442E-4,2.786728999E-3
1.833362195E0,3.054236295E-4,0.000000000E0,-7.635590737E-4,8.223782903E-4
1.835806466E0,3.054236295E-4,-1.221694518E-3,-1.985253533E-3,2.350968456E-3
1.838250008E0,3.054236295E-4,0.000000000E0,1.679830020E-3,1.707370051E-3
1.840694383E0,3.054236295E-4,0.000000000E0,1.679830020E-3,1.707370051E-3
1.843139487E0,3.054236295E-4,-2.443389036E-3,1.679830020E-3,2.980815739E-3
1.845583758E0,3.054236295E-4,-2.443389036E-3,4.581354442E-4,2.504659989E-3
1.848027299E0,-9.162708884E-4,1.221694518E-3,1.679830020E-3,2.270224379E-3
1.850471674E0,3.054236295E-4,-1.221694518E-3,4.581354442E-4,1.340040736E-3
1.852916831E0,-9.162708884E-4,1.221694518E-3,-7.635590737E-4,1.707369994E-3
1.855361101E0,-9.162708884E-4,0.000000000E0,-7.635590737E-4,1.192717402E-3
1.857804591E0,3.054236295E-4,0.000000000E0,-7.635590737E-4,8.223782903E-4
1.860248966E0,3.054236295E-4,-1.221694518E-3,-1.985253533E-3,2.350968456E-3
1.862694122E0,-9.162708884E-4,-1.221694518E-3,-7.635590737E-4,1.707369994E-3
1.865138393E0,3.054236295E-4,0.000000000E0,1.679830020E-3,1.707370051E-3
1.867581883E0,3.054236295E-4,0.000000000E0,4.581354442E-4,5.506102784E-4
1.870026310E0,3.054236295E-4,-1.221694518E-3,4.581354442E-4,1.340040736E-3
1.872471414E0,-9.162708884E-4,-1.221694518E-3,4.581354442E-4,1.594358153E-3
1.874915685E0,3.054236295E-4,-2.443389036E-3,4.581354442E-4,2.504659989E-3
1.877359226E0,3.054236295E-4,-1.221694518E-3,1.679830020E-3,2.099440398E-3
1.879803601E0,-9.162708884E-4,0.000000000E0,4.581354442E-4,1.024421996E-3
1.882248706E0,3.054236295E-4,1.221694518E-3,1.679830020E-3,2.099440398E-3
1.884692976E0,3.054236295E-4,-1.221694518E-3,1.679830020E-3,2.099440398E-3
1.887136518E0,3.054236295E-4,-1.221694518E-3,4.581354442E-4,1.340040736E-3
1.889580893E0,3.054236295E-4,-2.443389036E-3,-1.985253533E-3,3.163015202E-3
1.892025997E0,3.054236295E-4,-1.221694518E-3,1.679830020E-3,2.099440398E-3
1.894470268E0,3.054236295E-4,1.221694518E-3,4.581354442E-4,1.340040736E-3
1.896913810E0,-9.162708884E-4,1.221694518E-3,4.581354442E-4,1.594358153E-3
1.899358185E0,1.527118147E-3,-1.221694518E-3,1.679830020E-3,2.578072192E-3
1.901803289E0,-9.162708884E-4,0.000000000E0,4.581354442E-4,1.024421996E-3
1.904247560E0,3.054236295E-4,0.000000000E0,1.679830020E-3,1.707370051E-3
1.906691101E0,3.054236295E-4,-1.221694518E-3,4.581354442E-4,1.340040736E-3
1.909135476E0,3.054236295E-4,-1.221694518E-3,-7.635590737E-4,1.472699408E-3
1.911580633E0,-9.162708884E-4,0.000000000E0,4.581354442E-4,1.024421996E-3
1.914024851E0,3.054236295E-4,0.000000000E0,1.679830020E-3,1.707370051E-3
1.916468393E0,3.054236295E-4,-1.221694518E-3,-1.985253533E-3,2.350968456E-3
1.918912768E0,3.054236295E-4,1.221694518E-3,-7.635590737E-4,1.472699408E-3
1.921357924E0,1.527118147E-3,-1.221694518E-3,2.901524538E-3,3.499067301E-3
1.923802195E0,3.054236295E-4,-1.221694518E-3,-7.635590737E-4,1.472699408E-3
1.926245685E0,3.054236295E-4,-2.443389036E-3,4.581354442E-4,2.504659989E-3
1.928690060E0,3.054236295E-4,-1.221694518E-3,-7.635590737E-4,1.472699408E-3
1.931135216E0,-9.162708884E-4,0.000000000E0,-1.985253533E-3,2.186500385E-3
1.933579487E0,-9.162708884E-4,0.000000000E0,-7.635590737E-4,1.192717402E-3
1.936023029E0,3.054236295E-4,-1.221694518E-3,1.679830020E-3,2.099440398E-3
1.938467404E0,-9.162708884E-4,0.000000000E0,-7.635590737E-4,1.192717402E-3
1.940912508E0,3.054236295E-4,-1.221694518E-3,-7.635590737E-4,1.472699408E-3
1.943356779E0,-9.162708884E-4,0.000000000E0,4.581354442E-4,1.024421996E-3
1.945800320E0,3.054236295E-4,0.000000000E0,-7.635590737E-4,8.223782903E-4
1.948244695E0,3.054236295E-4,0.000000000E0,-7.635590737E-4,8.223782903E-4
1.950689799E0,-9.162708884E-4,1.221694518E-3,2.901524538E-3,3.278861766E-3
1.953134070E0,3.054236295E-4,1.221694518E-3,4.581354442E-4,1.340040736E-3
1.955577612E0,1.527118147E-3,0.000000000E0,-7.635590737E-4,1.707369994E-3
1.958021987E0,3.054236295E-4,0.000000000E0,4.581354442E-4,5.506102784E-4
1.960467091E0,3.054236295E-4,-1.221694518E-3,1.679830020E-3,2.099440398E-3
1.962911362E0,3.054236295E-4,0.000000000E0,1.679830020E-3,1.707370051E-3
1.965354904E0,3.054236295E-4,0.000000000E0,4.581354442E-4,5.506102784E-4
1.967799279E0,3.054236295E-4,0.000000000E0,4.581354442E-4,5.506102784E-4
1.970244383E0,3.054236295E-4,0.000000000E0,4.581354442E-4,5.506102784E-4
1.972688654E0,3.054236295E-4,-2.443389036E-3,-7.635590737E-4,2.578072154E-3
1.975132195E0,3.054236295E-4,-1.221694518E-3,-1.985253533E-3,2.350968456E-3
1.977576570E0,3.054236295E-4,0.000000000E0,4.581354442E-4,5.506102784E-4
1.980021726E0,3.054236295E-4,-1.221694518E-3,4.581354442E-4,1.340040736E-3
1.982465945E0,-9.162708884E-4,-1.221694518E-3,4.581354442E-4,1.594358153E-3
1.984909487E0,3.054236295E-4,-1.221694518E-3,1.679830020E-3,2.099440398E-3
1.987353862E0,3.054236295E-4,-1.221694518E-3,4.581354442E-4,1.340040736E-3
1.989798966E0,-9.162708884E-4,-2.443389036E-3,-1.985253533E-3,3.278861679E-3
1.992243341E0,-9.162708884E-4,0.000000000E0,4.581354442E-4,1.024421996E-3
1.994686831E0,3.054236295E-4,0.000000000E0,-7.635590737E-4,8.223782903E-4
1.997131206E0,3.054236295E-4,0.000000000E0,-1.985253533E-3,2.008610262E-3
1.999576310E0,3.054236295E-4,-1.221694518E-3,4.581354442E-4,1.340040736E-3
2.002020581E0,-9.162708884E-4,-1.221694518E-3,4.581354442E-4,1.594358153E-3
2.004464122E0,3.054236295E-4,0.000000000E0,4.581354442E-4,5.506102784E-4
2.006908497E0,3.054236295E-4,0.000000000E0,4.581354442E-4,5.506102784E-4
2.009353601E0,3.054236295E-4,-2.443389036E-3,-1.985253533E-3,3.163015202E-3
2.011797872E0,1.527118147E-3,-1.221694518E-3,4.581354442E-4,2.008610320E-3
2.014241414E0,1.527118147E-3,0.000000000E0,1.679830020E-3,2.270224379E-3
2.016685789E0,3.054236295E-4,0.000000000E0,-7.635590737E-4,8.223782903E-4
2.019130893E0,-9.162708884E-4,1.221694518E-3,4.581354442E-4,1.594358153E-3
2.021575164E0,-9.162708884E-4,-1.221694518E-3,4.581354442E-4,1.594358153E-3
2.024018706E0,3.054236295E-4,-1.221694518E-3,-1.985253533E-3,2.350968456E-3
2.026463081E0,-9.162708884E-4,1.221694518E-3,-1.985253533E-3,2.504659943E-3
2.028908185E0,-9.162708884E-4,0.000000000E0,4.581354442E-4,1.024421996E-3
2.031352456E0,3.054236295E-4,1.221694518E-3,-7.635590737E-4,1.472699408E-3
2.033795997E0,1.527118147E-3,1.221694518E-3,1.679830020E-3,2.578072192E-3
2.036240372E0,3.054236295E-4,-1.221694518E-3,-1.985253533E-3,2.350968456E-3
2.038685476E0,1.527118147E-3,0.000000000E0,4.581354442E-4,1.594358153E-3
2.041129747E0,3.054236295E-4,-1.221694518E-3,1.679830020E-3,2.099440398E-3
2.043573289E0,1.527118147E-3,-1.221694518E-3,1.679830020E-3,2.578072192E-3
2.046017664E0,3.054236295E-4,1.221694518E-3,4.581354442E-4,1.340040736E-3
2.048462820E0,3.054236295E-4,-1.221694518E-3,-7.635590737E-4,1.472699408E-3
2.050907091E0,-9.162708884E-4,-1.221694518E-3,-1.985253533E-3,2.504659943E-3
2.053350581E0,3.054236295E-4,-1.221694518E-3,4.581354442E-4,1.340040736E-3
2.055795008E0,3.054236295E-4,0.000000000E0,-7.635590737E-4,8.223782903E-4
2.058240112E0,3.054236295E-4,0.000000000E0,4.581354442E-4,5.506102784E-4
2.060684383E0,3.054236295E-4,0.000000000E0,4.581354442E-4,5.506102784E-4
2.063127924E0,3.054236295E-4,0.000000000E0,4.581354442E-4,5.506102784E-4
2.065572299E0,1.527118147E-3,-1.221694518E-3,-7.635590737E-4,2.099440352E-3
2.068017404E0,3.054236295E-4,-1.221694518E-3,-1.985253533E-3,2.350968456E-3
2.070461674E0,-9.162708884E-4,0.000000000E0,-1.985253533E-3,2.186500385E-3
2.072905216E0,3.054236295E-4,1.221694518E-3,4.581354442E-4,1.340040736E-3
2.075349591E0,3.054236295E-4,0.000000000E0,4.581354442E-4,5.506102784E-4
2.077794695E0,3.054236295E-4,-1.221694518E-3,4.581354442E-4,1.340040736E-3
2.080238966E0,3.054236295E-4,-1.221694518E-3,-7.635590737E-4,1.472699408E-3
2.082682508E0,3.054236295E-4,-1.221694518E-3,1.679830020E-3,2.099440398E-3
2.085126883E0,3.054236295E-4,-1.221694518E-3,4.581354442E-4,1.340040736E-3
2.087571987E0,3.054236295E-4,-2.443389036E-3,-7.635590737E-4,2.578072154E-3
2.090016258E0,3.054236295E-4,0.000000000E0,4.581354442E-4,5.506102784E-4
2.092459799E0,-9.162708884E-4,0.000000000E0,-1.985253533E-3,2.186500385E-3
2.094904174E0,3.054236295E-4,0.000000000E0,-7.635590737E-4,8.223782903E-4
2.097349279E0,-9.162708884E-4,-2.443389036E-3,-7.635590737E-4,2.718956561E-3
2.099793549E0,3.054236295E-4,0.000000000E0,4.581354442E-4,5.506102784E-4
2.102237091E0,3.054236295E-4,1.221694518E-3,1.679830020E-3,2.099440398E-3
2.104681466E0,-9.162708884E-4,0.000000000E0,4.581354442E-4,1.024421996E-3
2.107126622E0,-9.162708884E-4,0.000000000E0,-7.635590737E-4,1.192717402E-3
2.109570893E0,3.054236295E-4,-1.221694518E-3,4.581354442E-4,1.340040736E-3
2.112014383E0,1.527118147E-3,-2.443389036E-3,4.581354442E-4,2.917555124E-3
2.114458758E0,3.054236295E-4,1.221694518E-3,4.581354442E-4,1.340040736E-3
2.116903914E0,3.054236295E-4,-1.221694518E-3,-1.985253533E-3,2.350968456E-3
2.119348185E0,1.527118147E-3,-2.443389036E-3,-7.635590737E-4,2.980815706E-3
2.121791726E0,3.054236295E-4,-1.221694518E-3,-7.635590737E-4,1.472699408E-3
2.124236101E0,3.054236295E-4,-1.221694518E-3,4.581354442E-4,1.340040736E-3
2.126681206E0,3.054236295E-4,-1.221694518E-3,4.581354442E-4,1.340040736E-3
2.129125476E0,3.054236295E-4,0.000000000E0,4.581354442E-4,5.506102784E-4
2.131569018E0,-9.162708884E-4,-1.221694518E-3,1.679830020E-3,2.270224379E-3
2.134013393E0,3.054236295E-4,-1.221694518E-3,4.581354442E-4,1.340040736E-3
2.136458497E0,-9.162708884E-4,0.000000000E0,-7.635590737E-4,1.192717402E-3
2.138902768E0,3.054236295E-4,-1.221694518E-3,-1.985253533E-3,2.350968456E-3
2.141346310E0,1.527118147E-3,0.000000000E0,1.679830020E-3,2.270224379E-3
2.143790685E0,3.054236295E-4,0.000000000E0,4.581354442E-4,5.506102784E-4
2.146235789E0,-9.162708884E-4,0.000000000E0,-7.635590737E-4,1.192717402E-3
2.148680060E0,3.054236295E-4,0.000000000E0,-1.985253533E-3,2.008610262E-3
2.151123601E0,3.054236295E-4,-1.221694518E-3,4.581354442E-4,1.340040736E-3
2.153567976E0,3.054236295E-4,-2.443389036E-3,2.901524538E-3,3.805558858E-3
2.156013081E0,3.054236295E-4,1.221694518E-3,-7.635590737E-4,1.472699408E-3
2.158457351E0,1.527118147E-3,1.221694518E-3,4.581354442E-4,2.008610320E-3
2.160900893E0,3.054236295E-4,0.000000000E0,1.679830020E-3,1.707370051E-3
2.163345268E0,-9.162708884E-4,0.000000000E0,-7.635590737E-4,1.192717402E-3
2.165790424E0,-9.162708884E-4,1.221694518E-3,-1.985253533E-3,2.504659943E-3
2.168234695E0,1.527118147E-3,-1.221694518E-3,-1.985253533E-3,2.786729072E-3
2.170678185E0,1.527118147E-3,-1.221694518E-3,4.581354442E-4,2.008610320E-3
2.173122560E0,3.054236295E-4,-1.221694518E-3,4.581354442E-4,1.340040736E-3
2.175567716E0,3.054236295E-4,0.000000000E0,-1.985253533E-3,2.008610262E-3
2.178011987E0,3.054236295E-4,0.000000000E0,-1.985253533E-3,2.008610262E-3
2.180455529E0,-9.162708884E-4,2.443389036E-3,1.679830020E-3,3.103470834E-3
2.182899904E0,-9.162708884E-4,1.221694518E-3,4.581354442E-4,1.594358153E-3
2.185345008E0,-9.162708884E-4,0.000000000E0,-3.206948051E-3,3.335276322E-3
2.187789279E0,1.527118147E-3,0.000000000E0,4.581354442E-4,1.594358153E-3
2.190232820E0,1.527118147E-3,0.000000000E0,1.679830020E-3,2.270224379E-3
2.192677195E0,1.527118147E-3,-1.221694518E-3,-7.635590737E-4,2.099440352E-3
2.195122299E0,-9.162708884E-4,0.000000000E0,-7.635590737E-4,1.192717402E-3
2.197566570E0,1.527118147E-3,-1.221694518E-3,-7.635590737E-4,2.099440352E-3
2.200010112E0,1.527118147E-3,0.000000000E0,-7.635590737E-4,1.707369994E-3
2.202454487E0,3.054236295E-4,-1.221694518E-3,4.581354442E-4,1.340040736E-3
2.204899591E0,-9.162708884E-4,-1.221694518E-3,-1.985253533E-3,2.504659943E-3
2.207343862E0,3.054236295E-4,-1.221694518E-3,-3.206948051E-3,3.445335527E-3
2.209787404E0,3.054236295E-4,0.000000000E0,-7.635590737E-4,8.223782903E-4
2.212231779E0,1.527118147E-3,0.000000000E0,-7.635590737E-4,1.707369994E-3
2.214676883E0,3.054236295E-4,0.000000000E0,4.581354442E-4,5.506102784E-4
2.217121154E0,3.054236295E-4,-1.221694518E-3,-7.635590737E-4,1.472699408E-3
2.219564695E0,3.054236295E-4,-1.221694518E-3,-3.206948051E-3,3.445335527E-3
2.222009070E0,1.527118147E-3,-1.221694518E-3,-7.635590737E-4,2.099440352E-3
2.224454226E0,-9.162708884E-4,0.000000000E0,4.581354442E-4,1.024421996E-3
2.226898497E0,-9.162708884E-4,0.000000000E0,1.679830020E-3,1.913473605E-3
2.229341987E0,-9.162708884E-4,1.221694518E-3,4.581354442E-4,1.594358153E-3
2.231786362E0,3.054236295E-4,-1.221694518E-3,4.581354442E-4,1.340040736E-3
2.234231518E0,-9.162708884E-4,-2.443389036E-3,-7.635590737E-4,2.718956561E-3
2.236675789E0,3.054236295E-4,-1.221694518E-3,-1.985253533E-3,2.350968456E-3
2.239119331E0,3.054236295E-4,0.000000000E0,1.679830020E-3,1.707370051E-3
2.241563706E0,3.054236295E-4,0.000000000E0,4.581354442E-4,5.506102784E-4
2.244008810E0,-9.162708884E-4,0.000000000E0,-7.635590737E-4,1.192717402E-3
2.246453081E0,3.054236295E-4,-2.443389036E-3,4.581354442E-4,2.504659989E-3
2.248896622E0,3.054236295E-4,-2.443389036E-3,-1.985253533E-3,3.163015202E-3
2.251340997E0,1.527118147E-3,-1.221694518E-3,-7.635590737E-4,2.099440352E-3
2.253786101E0,1.527118147E-3,-1.221694518E-3,-3.206948051E-3,3.756213936E-3
2.256230372E0,1.527118147E-3,-1.221694518E-3,4.581354442E-4,2.008610320E-3
2.258673914E0,1.527118147E-3,0.000000000E0,-7.635590737E-4,1.707369994E-3
2.261118289E0,-9.162708884E-4,1.221694518E-3,-1.985253533E-3,2.504659943E-3
2.263563393E0,3.054236295E-4,0.000000000E0,4.581354442E-4,5.506102784E-4
2.266007664E0,3.054236295E-4,0.000000000E0,4.581354442E-4,5.506102784E-4
2.268451206E0,3.054236295E-4,0.000000000E0,1.679830020E-3,1.707370051E-3
2.270895581E0,3.054236295E-4,-1.221694518E-3,4.581354442E-4,1.340040736E-3
2.273340685E0,3.054236295E-4,0.000000000E0,-7.635590737E-4,8.223782903E-4
2.275784956E0,3.054236295E-4,-1.221694518E-3,4.581354442E-4,1.340040736E-3
2.278228497E0,3.054236295E-4,-1.221694518E-3,2.901524538E-3,3.163015291E-3
2.280672872E0,3.054236295E-4,0.000000000E0,1.679830020E-3,1.707370051E-3
2.283117976E0,-9.162708884E-4,0.000000000E0,-1.985253533E-3,2.186500385E-3
2.285562351E0,1.527118147E-3,0.000000000E0,-7.635590737E-4,1.707369994E-3
2.288005789E0,-9.162708884E-4,-2.443389036E-3,-1.985253533E-3,3.278861679E-3
2.290450164E0,3.054236295E-4,-1.221694518E-3,-3.206948051E-3,3.445335527E-3
2.292895320E0,3.054236295E-4,-1.221694518E-3,1.679830020E-3,2.099440398E-3
2.295339591E0,-9.162708884E-4,0.000000000E0,-1.985253533E-3,2.186500385E-3
2.297783133E0,3.054236295E-4,0.000000000E0,-7.635590737E-4,8.223782903E-4
2.300227508E0,3.054236295E-4,0.000000000E0,1.679830020E-3,1.707370051E-3
2.302672612E0,1.527118147E-3,0.000000000E0,4.581354442E-4,1.594358153E-3
2.305116883E0,1.527118147E-3,-1.221694518E-3,4.581354442E-4,2.008610320E-3
2.307560424E0,3.054236295E-4,-2.443389036E-3,1.679830020E-3,2.980815739E-3
2.310004799E0,3.054236295E-4,0.000000000E0,4.581354442E-4,5.506102784E-4
2.312449904E0,-9.162708884E-4,-1.221694518E-3,4.581354442E-4,1.594358153E-3
2.314894174E0,3.054236295E-4,-1.221694518E-3,4.581354442E-4,1.340040736E-3
2.317337716E0,-9.162708884E-4,0.000000000E0,-7.635590737E-4,1.192717402E-3
2.319782091E0,3.054236295E-4,1.221694518E-3,-7.635590737E-4,1.472699408E-3
2.322227195E0,-9.162708884E-4,0.000000000E0,4.581354442E-4,1.024421996E-3
2.324671466E0,3.054236295E-4,1.221694518E-3,4.581354442E-4,1.340040736E-3
2.327115008E0,1.527118147E-3,1.221694518E-3,-1.985253533E-3,2.786729072E-3
2.329559383E0,3.054236295E-4,-2.443389036E-3,-7.635590737E-4,2.578072154E-3
2.332004487E0,3.054236295E-4,-1.221694518E-3,-7.635590737E-4,1.472699408E-3
2.334448862E0,3.054236295E-4,0.000000000E0,4.581354442E-4,5.506102784E-4
2.336892299E0,3.054236295E-4,0.000000000E0,4.581354442E-4,5.506102784E-4
2.339336674E0,3.054236295E-4,1.221694518E-3,-7.635590737E-4,1.472699408E-3
2.341781831E0,1.527118147E-3,1.221694518E-3,-7.635590737E-4,2.099440352E-3
2.344226101E0,3.054236295E-4,2.443389036E-3,-7.635590737E-4,2.578072154E-3
2.346669591E0,3.054236295E-4,1.221694518E-3,4.581354442E-4,1.340040736E-3
2.349114018E0,1.527118147E-3,-1.221694518E-3,-7.635590737E-4,2.099440352E-3
2.351559122E0,3.054236295E-4,0.000000000E0,-7.635590737E-4,8.223782903E-4
2.354003393E0,3.054236295E-4,0.000000000E0,-7.635590737E-4,8.223782903E-4
2.356446935E0,3.054236295E-4,-1.221694518E-3,2.901524538E-3,3.163015291E-3
2.358891310E0,3.054236295E-4,-1.221694518E-3,4.581354442E-4,1.340040736E-3
2.361336414E0,3.054236295E-4,0.000000000E0,-1.985253533E-3,2.008610262E-3
2.363780685E0,3.054236295E-4,0.000000000E0,-7.635590737E-4,8.223782903E-4
2.366224226E0,-9.162708884E-4,0.000000000E0,1.679830020E-3,1.913473605E-3
2.368668601E0,-9.162708884E-4,1.221694518E-3,1.679830020E-3,2.270224379E-3
2.371113706E0,1.527118147E-3,1.221694518E-3,-7.635590737E-4,2.099440352E-3
2.373557976E0,3.054236295E-4,-1.221694518E-3,-7.635590737E-4,1.472699408E-3
2.376001518E0,3.054236295E-4,1.221694518E-3,4.581354442E-4,1.340040736E-3
2.378445893E0,1.527118147E-3,-1.221694518E-3,1.679830020E-3,2.578072192E-3
2.380890997E0,3.054236295E-4,0.000000000E0,-7.635590737E-4,8.223782903E-4
2.383335268E0,-9.162708884E-4,0.000000000E0,-7.635590737E-4,1.192717402E-3
2.385778810E0,-9.162708884E-4,0.000000000E0,2.901524538E-3,3.042761408E-3
2.388223185E0,3.054236295E-4,0.000000000E0,4.581354442E-4,5.506102784E-4
2.390668289E0,3.054236295E-4,-1.221694518E-3,-1.985253533E-3,2.350968456E-3
2.393112560E0,3.054236295E-4,1.221694518E-3,-1.985253533E-3,2.350968456E-3
2.395556101E0,-9.162708884E-4,2.443389036E-3,-7.635590737E-4,2.718956561E-3
2.398000476E0,3.054236295E-4,-1.221694518E-3,-7.635590737E-4,1.472699408E-3
2.400445633E0,-9.162708884E-4,-1.221694518E-3,4.581354442E-4,1.594358153E-3
2.402889904E0,1.527118147E-3,-1.221694518E-3,4.581354442E-4,2.008610320E-3
2.405333393E0,2.748812549E-3,-2.443389036E-3,4.581354442E-4,3.706212149E-3
2.407777820E0,1.527118147E-3,-2.443389036E-3,4.581354442E-4,2.917555124E-3
2.410222924E0,3.054236295E-4,0.000000000E0,-7.635590737E-4,8.223782903E-4
2.412667195E0,1.527118147E-3,0.000000000E0,1.679830020E-3,2.270224379E-3
2.415110737E0,3.054236295E-4,-1.221694518E-3,4.581354442E-4,1.340040736E-3
2.417555112E0,3.054236295E-4,0.000000000E0,4.581354442E-4,5.506102784E-4
2.420000216E0,3.054236295E-4,-1.221694518E-3,4.581354442E-4,1.340040736E-3
2.422444487E0,3.054236295E-4,0.000000000E0,-7.635590737E-4,8.223782903E-4
2.424888029E0,1.527118147E-3,-2.443389036E-3,-7.635590737E-4,2.980815706E-3
2.427332404E0,-9.162708884E-4,-1.221694518E-3,-7.635590737E-4,1.707369994E-3
2.429777508E0,-9.162708884E-4,0.000000000E0,-7.635590737E-4,1.192717402E-3
2.432221779E0,3.054236295E-4,0.000000000E0,-7.635590737E-4,8.223782903E-4
2.434665320E0,-9.162708884E-4,0.000000000E0,1.679830020E-3,1.913473605E-3
2.437109695E0,-9.162708884E-4,1.221694518E-3,-7.635590737E-4,1.707369994E-3
2.439554799E0,-9.162708884E-4,1.221694518E-3,-7.635590737E-4,1.707369994E-3
2.441999070E0,1.527118147E-3,-1.221694518E-3,1.679830020E-3,2.578072192E-3
2.444442612E0,1.527118147E-3,-1.221694518E-3,4.581354442E-4,2.008610320E-3
2.446886987E0,3.054236295E-4,-1.221694518E-3,-7.635590737E-4,1.472699408E-3
2.449332143E0,1.527118147E-3,0.000000000E0,1.679830020E-3,2.270224379E-3
2.451776414E0,-9.162708884E-4,0.000000000E0,1.679830020E-3,1.913473605E-3
2.454219904E0,3.054236295E-4,-1.221694518E-3,-7.635590737E-4,1.472699408E-3
2.456664279E0,3.054236295E-4,0.000000000E0,-1.985253533E-3,2.008610262E-3
2.459109435E0,3.054236295E-4,1.221694518E-3,-7.635590737E-4,1.472699408E-3
2.461553706E0,3.054236295E-4,-1.221694518E-3,-7.635590737E-4,1.472699408E-3
2.463997247E0,3.054236295E-4,-1.221694518E-3,-1.985253533E-3,2.350968456E-3
2.466441622E0,1.527118147E-3,0.000000000E0,-7.635590737E-4,1.707369994E-3
2.468886726E0,3.054236295E-4,1.221694518E-3,2.901524538E-3,3.163015291E-3
2.471330997E0,3.054236295E-4,0.000000000E0,4.581354442E-4,5.506102784E-4
2.473774539E0,1.527118147E-3,0.000000000E0,-1.985253533E-3,2.504659943E-3
2.476218914E0,1.527118147E-3,-1.221694518E-3,4.581354442E-4,2.008610320E-3
2.478664018E0,3.054236295E-4,-1.221694518E-3,4.123218823E-3,4.311235850E-3
2.481108289E0,-2.137965523E-3,1.221694518E-3,4.581354442E-4,2.504660088E-3
2.483551831E0,-9.162708884E-4,0.000000000E0,-1.985253533E-3,2.186500385E-3
2.485996206E0,3.054236295E-4,0.000000000E0,-7.635590737E-4,8.223782903E-4
2.488441310E0,1.527118147E-3,0.000000000E0,1.679830020E-3,2.270224379E-3
2.490885581E0,3.054236295E-4,-2.443389036E-3,4.581354442E-4,2.504659989E-3
2.493329122E0,3.054236295E-4,-2.443389036E-3,-7.635590737E-4,2.578072154E-3
2.495773497E0,3.054236295E-4,-2.443389036E-3,-7.635590737E-4,2.578072154E-3
2.498218601E0,3.054236295E-4,-1.221694518E-3,1.679830020E-3,2.099440398E-3
2.500662872E0,-9.162708884E-4,1.221694518E-3,-1.985253533E-3,2.504659943E-3
2.503106414E0,3.054236295E-4,0.000000000E0,-1.985253533E-3,2.008610262E-3
2.505550789E0,3.054236295E-4,0.000000000E0,-7.635590737E-4,8.223782903E-4
2.507995945E0,1.527118147E-3,-1.221694518E-3,-1.985253533E-3,2.786729072E-3
2.510440216E0,1.527118147E-3,-1.221694518E-3,-7.635590737E-4,2.099440352E-3
2.512883706E0,1.527118147E-3,0.000000000E0,-7.635590737E-4,1.707369994E-3
2.515328081E0,-9.162708884E-4,0.000000000E0,4.581354442E-4,1.024421996E-3
2.517773237E0,3.054236295E-4,-1.221694518E-3,4.581354442E-4,1.340040736E-3
2.520217508E0,1.527118147E-3,-1.221694518E-3,1.679830020E-3,2.578072192E-3
2.522661049E0,-9.162708884E-4,0.000000000E0,-7.635590737E-4,1.192717402E-3
2.525105424E0,3.054236295E-4,0.000000000E0,4.581354442E-4,5.506102784E-4
2.527550529E0,-9.162708884E-4,0.000000000E0,-7.635590737E-4,1.192717402E-3
2.529994799E0,1.527118147E-3,0.000000000E0,-7.635590737E-4,1.707369994E-3
2.532438341E0,1.527118147E-3,-1.221694518E-3,-1.985253533E-3,2.786729072E-3
2.534882716E0,-9.162708884E-4,0.000000000E0,-1.985253533E-3,2.186500385E-3
2.537327820E0,3.054236295E-4,-1.221694518E-3,-7.635590737E-4,1.472699408E-3
2.539772091E0,-9.162708884E-4,0.000000000E0,-1.985253533E-3,2.186500385E-3
2.542215633E0,1.527118147E-3,-2.443389036E-3,1.679830020E-3,3.335276407E-3
2.544660008E0,3.054236295E-4,0.000000000E0,4.581354442E-4,5.506102784E-4
2.547105112E0,3.054236295E-4,0.000000000E0,-7.635590737E-4,8.223782903E-4
2.549549383E0,1.527118147E-3,-1.221694518E-3,-1.985253533E-3,2.786729072E-3
2.551992924E0,1.527118147E-3,-1.221694518E-3,4.581354442E-4,2.008610320E-3
2.554437299E0,3.054236295E-4,0.000000000E0,4.581354442E-4,5.506102784E-4
2.556882456E0,3.054236295E-4,1.221694518E-3,-7.635590737E-4,1.472699408E-3
2.559326726E0,3.054236295E-4,-1.221694518E-3,-7.635590737E-4,1.472699408E-3
2.561770216E0,-9.162708884E-4,0.000000000E0,-1.985253533E-3,2.186500385E-3
2.564214591E0,3.054236295E-4,-1.221694518E-3,-7.635590737E-4,1.472699408E-3
2.566659747E0,1.527118147E-3,-1.221694518E-3,-7.635590737E-4,2.099440352E-3
2.569104018E0,3.054236295E-4,0.000000000E0,-1.985253533E-3,2.008610262E-3
2.571547560E0,3.054236295E-4,1.221694518E-3,-7.635590737E-4,1.472699408E-3
2.573991935E0,-9.162708884E-4,0.000000000E0,4.581354442E-4,1.024421996E-3
2.576437039E0,3.054236295E-4,-1.221694518E-3,-7.635590737E-4,1.472699408E-3
2.578881310E0,3.054236295E-4,-1.221694518E-3,-7.635590737E-4,1.472699408E-3
2.581324851E0,3.054236295E-4,-1.221694518E-3,4.581354442E-4,1.340040736E-3
2.583769226E0,3.054236295E-4,0.000000000E0,1.679830020E-3,1.707370051E-3
2.586214331E0,1.527118147E-3,-2.443389036E-3,1.679830020E-3,3.335276407E-3
2.588658601E0,3.054236295E-4,-1.221694518E-3,-7.635590737E-4,1.472699408E-3
2.591102143E0,1.527118147E-3,-1.221694518E-3,1.679830020E-3,2.578072192E-3
2.593546518E0,3.054236295E-4,0.000000000E0,2.901524538E-3,2.917555182E-3
2.595991622E0,3.054236295E-4,-1.221694518E-3,1.679830020E-3,2.099440398E-3
2.598435893E0,-9.162708884E-4,0.000000000E0,4.581354442E-4,1.024421996E-3
2.600879435E0,3.054236295E-4,-1.221694518E-3,4.581354442E-4,1.340040736E-3
2.603323810E0,-9.162708884E-4,1.221694518E-3,4.581354442E-4,1.594358153E-3
2.605768914E0,3.054236295E-4,0.000000000E0,4.581354442E-4,5.506102784E-4
2.608213185E0,3.054236295E-4,1.221694518E-3,-7.635590737E-4,1.472699408E-3
2.610656726E0,1.527118147E-3,-1.221694518E-3,-7.635590737E-4,2.099440352E-3
2.613101101E0,-9.162708884E-4,-1.221694518E-3,-7.635590737E-4,1.707369994E-3
2.615546258E0,-9.162708884E-4,0.000000000E0,4.581354442E-4,1.024421996E-3
2.617990529E0,3.054236295E-4,0.000000000E0,4.581354442E-4,5.506102784E-4
2.620434018E0,-9.162708884E-4,1.221694518E-3,-7.635590737E-4,1.707369994E-3
2.622878393E0,-9.162708884E-4,0.000000000E0,-7.635590737E-4,1.192717402E-3
2.625323549E0,-9.162708884E-4,2.443389036E-3,4.581354442E-4,2.649450963E-3
2.627767820E0,3.054236295E-4,-1.221694518E-3,1.679830020E-3,2.099440398E-3
2.630211362E0,3.054236295E-4,0.000000000E0,-7.635590737E-4,8.223782903E-4
2.632655737E0,1.527118147E-3,-1.221694518E-3,-7.635590737E-4,2.099440352E-3
2.635100841E0,3.054236295E-4,-1.221694518E-3,4.581354442E-4,1.340040736E-3
2.637545112E0,3.054236295E-4,0.000000000E0,1.679830020E-3,1.707370051E-3
2.639988654E0,3.054236295E-4,0.000000000E0,4.581354442E-4,5.506102784E-4
2.642433029E0,3.054236295E-4,-1.221694518E-3,4.581354442E-4,1.340040736E-3
2.644878133E0,3.054236295E-4,0.000000000E0,4.581354442E-4,5.506102784E-4
2.647322404E0,3.054236295E-4,-1.221694518E-3,-1.985253533E-3,2.350968456E-3
2.649765945E0,3.054236295E-4,0.000000000E0,-3.206948051E-3,3.221459203E-3
2.652210320E0,3.054236295E-4,0.000000000E0,1.679830020E-3,1.707370051E-3
2.654655424E0,1.527118147E-3,0.000000000E0,4.581354442E-4,1.594358153E-3
2.657099695E0,3.054236295E-4,1.221694518E-3,-7.635590737E-4,1.472699408E-3
2.659543237E0,3.054236295E-4,-1.221694518E-3,4.581354442E-4,1.340040736E-3
2.661987612E0,-9.162708884E-4,1.221694518E-3,1.679830020E-3,2.270224379E-3
2.664432716E0,3.054236295E-4,0.000000000E0,4.581354442E-4,5.506102784E-4
2.666876987E0,-9.162708884E-4,0.000000000E0,-7.635590737E-4,1.192717402E-3
2.669320529E0,3.054236295E-4,0.000000000E0,-7.635590737E-4,8.223782903E-4
2.671764904E0,3.054236295E-4,-1.221694518E-3,4.581354442E-4,1.340040736E-3
2.674210060E0,3.054236295E-4,-1.221694518E-3,1.679830020E-3,2.099440398E-3
2.676654331E0,1.527118147E-3,-1.221694518E-3,4.581354442E-4,2.008610320E-3
2.679097820E0,-9.162708884E-4,-1.221694518E-3,-7.635590737E-4,1.707369994E-3
2.681542195E0,3.054236295E-4,-1.221694518E-3,1.679830020E-3,2.099440398E-3
2.683987351E0,3.054236295E-4,0.000000000E0,4.581354442E-4,5.506102784E-4
2.686431622E0,-9.162708884E-4,1.221694518E-3,4.581354442E-4,1.594358153E-3
2.688875164E0,3.054236295E-4,0.000000000E0,-1.985253533E-3,2.008610262E-3
2.691319539E0,1.527118147E-3,0.000000000E0,-7.635590737E-4,1.707369994E-3
2.693764643E0,3.054236295E-4,-1.221694518E-3,4.581354442E-4,1.340040736E-3
2.696208914E0,-2.137965523E-3,0.000000000E0,-7.635590737E-4,2.270224446E-3
2.698652456E0,-9.162708884E-4,1.221694518E-3,4.581354442E-4,1.594358153E-3
2.701096831E0,-9.162708884E-4,1.221694518E-3,-7.635590737E-4,1.707369994E-3
2.703541935E0,3.054236295E-4,-1.221694518E-3,-7.635590737E-4,1.472699408E-3
2.705986206E0,-9.162708884E-4,-1.221694518E-3,-7.635590737E-4,1.707369994E-3
2.708429747E0,-9.162708884E-4,-1.221694518E-3,-1.985253533E-3,2.504659943E-3
2.710874122E0,1.527118147E-3,0.000000000E0,4.581354442E-4,1.594358153E-3
2.713319226E0,-9.162708884E-4,-1.221694518E-3,-7.635590737E-4,1.707369994E-3
2.715763497E0,-9.162708884E-4,0.000000000E0,1.679830020E-3,1.913473605E-3
2.718207039E0,-9.162708884E-4,0.000000000E0,4.581354442E-4,1.024421996E-3
2.720651414E0,3.054236295E-4,0.000000000E0,4.581354442E-4,5.506102784E-4
2.723096570E0,3.054236295E-4,1.221694518E-3,-7.635590737E-4,1.472699408E-3
2.725540841E0,3.054236295E-4,-1.221694518E-3,1.679830020E-3,2.099440398E-3
2.727984331E0,1.527118147E-3,-2.443389036E-3,2.901524538E-3,4.089142265E-3
2.730428706E0,3.054236295E-4,-1.221694518E-3,4.581354442E-4,1.340040736E-3
2.732873862E0,-9.162708884E-4,-1.221694518E-3,-7.635590737E-4,1.707369994E-3
2.735318133E0,-9.162708884E-4,-1.221694518E-3,4.581354442E-4,1.594358153E-3
2.737761622E0,3.054236295E-4,-1.221694518E-3,-7.635590737E-4,1.472699408E-3
2.740206049E0,3.054236295E-4,0.000000000E0,1.679830020E-3,1.707370051E-3
2.742651154E0,-9.162708884E-4,1.221694518E-3,4.581354442E-4,1.594358153E-3
2.745095424E0,3.054236295E-4,-1.221694518E-3,-1.985253533E-3,2.350968456E-3
2.747538966E0,3.054236295E-4,-1.221694518E-3,-1.985253533E-3,2.350968456E-3
2.749983341E0,3.054236295E-4,-1.221694518E-3,-7.635590737E-4,1.472699408E-3
2.752428445E0,3.054236295E-4,0.000000000E0,4.581354442E-4,5.506102784E-4
2.754872716E0,3.054236295E-4,-1.221694518E-3,4.581354442E-4,1.340040736E-3
2.757316258E0,1.527118147E-3,-1.221694518E-3,-7.635590737E-4,2.099440352E-3
2.759760633E0,3.054236295E-4,0.000000000E0,-7.635590737E-4,8.223782903E-4
2.762205737E0,3.054236295E-4,1.221694518E-3,4.581354442E-4,1.340040736E-3
2.764650008E0,-9.162708884E-4,1.221694518E-3,4.581354442E-4,1.594358153E-3
2.767093549E0,-9.162708884E-4,0.000000000E0,-1.985253533E-3,2.186500385E-3
2.769537924E0,-9.162708884E-4,-1.221694518E-3,4.581354442E-4,1.594358153E-3
2.771983029E0,3.054236295E-4,0.000000000E0,4.581354442E-4,5.506102784E-4
2.774427299E0,1.527118147E-3,-1.221694518E-3,-7.635590737E-4,2.099440352E-3
2.776870841E0,3.054236295E-4,-1.221694518E-3,-7.635590737E-4,1.472699408E-3
2.779315216E0,-9.162708884E-4,0.000000000E0,-7.635590737E-4,1.192717402E-3
2.781760320E0,-9.162708884E-4,0.000000000E0,1.679830020E-3,1.913473605E-3
2.784204695E0,1.527118147E-3,-1.221694518E-3,4.581354442E-4,2.008610320E-3
2.786648133E0,3.054236295E-4,-1.221694518E-3,-3.206948051E-3,3.445335527E-3
2.789092560E0,1.527118147E-3,0.000000000E0,4.581354442E-4,1.594358153E-3
2.791537664E0,3.054236295E-4,-1.221694518E-3,1.679830020E-3,2.099440398E-3
2.793981935E0,1.527118147E-3,0.000000000E0,4.581354442E-4,1.594358153E-3
2.796425476E0,3.054236295E-4,0.000000000E0,-7.635590737E-4,8.223782903E-4
2.798869851E0,3.054236295E-4,0.000000000E0,1.679830020E-3,1.707370051E-3
2.801314956E0,3.054236295E-4,0.000000000E0,1.679830020E-3,1.707370051E-3
2.803759226E0,3.054236295E-4,0.000000000E0,4.581354442E-4,5.506102784E-4
2.806202768E0,3.054236295E-4,-1.221694518E-3,-7.635590737E-4,1.472699408E-3
2.808647143E0,-9.162708884E-4,0.000000000E0,-7.635590737E-4,1.192717402E-3
2.811092247E0,3.054236295E-4,0.000000000E0,-7.635590737E-4,8.223782903E-4
2.813536518E0,1.527118147E-3,0.000000000E0,4.581354442E-4,1.594358153E-3
2.815980060E0,3.054236295E-4,0.000000000E0,-7.635590737E-4,8.223782903E-4
2.818424435E0,1.527118147E-3,-3.665083554E-3,4.581354442E-4,3.996850682E-3
2.820869539E0,1.527118147E-3,0.000000000E0,4.581354442E-4,1.594358153E-3
2.823313810E0,3.054236295E-4,1.221694518E-3,4.581354442E-4,1.340040736E-3
2.825757351E0,3.054236295E-4,0.000000000E0,-7.635590737E-4,8.223782903E-4
2.828201726E0,-9.162708884E-4,1.221694518E-3,-7.635590737E-4,1.707369994E-3
2.830646831E0,3.054236295E-4,-1.221694518E-3,4.581354442E-4,1.340040736E-3
2.833091206E0,3.054236295E-4,-1.221694518E-3,-7.635590737E-4,1.472699408E-3
2.835534643E0,3.054236295E-4,0.000000000E0,-7.635590737E-4,8.223782903E-4
2.837979018E0,-9.162708884E-4,0.000000000E0,-1.985253533E-3,2.186500385E-3
2.840424174E0,1.527118147E-3,2.443389036E-3,-7.635590737E-4,2.980815706E-3
2.842868445E0,3.054236295E-4,-1.221694518E-3,-1.985253533E-3,2.350968456E-3
2.845311935E0,1.527118147E-3,1.221694518E-3,-7.635590737E-4,2.099440352E-3
2.847756310E0,-9.162708884E-4,-1.221694518E-3,-7.635590737E-4,1.707369994E-3
2.850201466E0,3.054236295E-4,0.000000000E0,4.581354442E-4,5.506102784E-4
2.852645737E0,3.054236295E-4,-1.221694518E-3,4.581354442E-4,1.340040736E-3
2.855089279E0,3.054236295E-4,0.000000000E0,4.581354442E-4,5.506102784E-4
2.857533654E0,3.054236295E-4,-1.221694518E-3,-7.635590737E-4,1.472699408E-3
2.859978758E0,3.054236295E-4,0.000000000E0,1.679830020E-3,1.707370051E-3
2.862423029E0,-9.162708884E-4,0.000000000E0,-7.635590737E-4,1.192717402E-3
2.864866570E0,-9.162708884E-4,-3.665083554E-3,4.581354442E-4,3.805558813E-3
2.867310945E0,-9.162708884E-4,0.000000000E0,-1.985253533E-3,2.186500385E-3
2.869756049E0,3.054236295E-4,-1.221694518E-3,4.581354442E-4,1.340040736E-3
2.872200320E0,3.054236295E-4,0.000000000E0,1.679830020E-3,1.707370051E-3
2.874643862E0,2.748812549E-3,0.000000000E0,4.581354442E-4,2.786728999E-3
2.877088237E0,3.054236295E-4,-1.221694518E-3,-4.428642802E-3,4.604204400E-3
2.879533341E0,-9.162708884E-4,0.000000000E0,-1.985253533E-3,2.186500385E-3
2.881977612E0,-9.162708884E-4,2.443389036E-3,4.581354442E-4,2.649450963E-3
2.884421154E0,-9.162708884E-4,2.443389036E-3,-7.635590737E-4,2.718956561E-3
2.886865529E0,3.054236295E-4,1.221694518E-3,4.581354442E-4,1.340040736E-3
2.889310633E0,3.054236295E-4,-1.221694518E-3,4.581354442E-4,1.340040736E-3
2.891754904E0,3.054236295E-4,0.000000000E0,-7.635590737E-4,8.223782903E-4
2.894198445E0,3.054236295E-4,1.221694518E-3,-7.635590737E-4,1.472699408E-3
2.896642820E0,3.054236295E-4,0.000000000E0,4.581354442E-4,5.506102784E-4
2.899087976E0,-9.162708884E-4,0.000000000E0,-7.635590737E-4,1.192717402E-3
2.901532247E0,-9.162708884E-4,0.000000000E0,-7.635590737E-4,1.192717402E-3
2.903975737E0,3.054236295E-4,-1.221694518E-3,4.581354442E-4,1.340040736E-3
2.906420112E0,1.527118147E-3,-1.221694518E-3,4.581354442E-4,2.008610320E-3
2.908865268E0,1.527118147E-3,-2.443389036E-3,4.581354442E-4,2.917555124E-3
2.911309539E0,3.054236295E-4,0.000000000E0,-7.635590737E-4,8.223782903E-4
2.913753029E0,3.054236295E-4,0.000000000E0,1.679830020E-3,1.707370051E-3
2.916197456E0,3.054236295E-4,2.443389036E-3,4.581354442E-4,2.504659989E-3
2.918642560E0,3.054236295E-4,-1.221694518E-3,4.581354442E-4,1.340040736E-3
2.921086831E0,3.054236295E-4,0.000000000E0,4.581354442E-4,5.506102784E-4
2.923530372E0,1.527118147E-3,-1.221694518E-3,-7.635590737E-4,2.099440352E-3
2.925974747E0,1.527118147E-3,1.221694518E-3,-1.985253533E-3,2.786729072E-3
2.928419851E0,3.054236295E-4,-1.221694518E-3,-3.206948051E-3,3.445335527E-3
2.930864122E0,3.054236295E-4,1.221694518E-3,4.581354442E-4,1.340040736E-3
2.933307664E0,1.527118147E-3,-1.221694518E-3,4.581354442E-4,2.008610320E-3
2.935752039E0,3.054236295E-4,-1.221694518E-3,-7.635590737E-4,1.472699408E-3
2.938197143E0,-9.162708884E-4,-1.221694518E-3,-7.635590737E-4,1.707369994E-3
2.940641414E0,3.054236295E-4,-1.221694518E-3,-7.635590737E-4,1.472699408E-3
2.943084956E0,3.054236295E-4,-1.221694518E-3,-7.635590737E-4,1.472699408E-3
2.945529331E0,3.054236295E-4,-1.221694518E-3,4.581354442E-4,1.340040736E-3
2.947974435E0,3.054236295E-4,0.000000000E0,-7.635590737E-4,8.223782903E-4
2.950418706E0,1.527118147E-3,-1.221694518E-3,-7.635590737E-4,2.099440352E-3
2.952862247E0,3.054236295E-4,0.000000000E0,4.581354442E-4,5.506102784E-4
2.955306622E0,3.970507067E-3,0.000000000E0,4.581354442E-4,3.996850567E-3
2.957751779E0,3.054236295E-4,-1.221694518E-3,-7.635590737E-4,1.472699408E-3
2.960196049E0,3.054236295E-4,0.000000000E0,-1.985253533E-3,2.008610262E-3
2.962639539E0,3.054236295E-4,1.221694518E-3,-7.635590737E-4,1.472699408E-3
2.965083914E0,3.054236295E-4,0.000000000E0,4.581354442E-4,5.506102784E-4
2.967529070E0,1.527118147E-3,0.000000000E0,4.581354442E-4,1.594358153E-3
2.969973341E0,1.527118147E-3,0.000000000E0,-7.635590737E-4,1.707369994E-3
2.972416883E0,1.527118147E-3,-1.221694518E-3,-1.985253533E-3,2.786729072E-3
2.974861258E0,-2.137965523E-3,-4.886778072E-3,4.581354442E-4,5.353632840E-3
2.977306362E0,-2.137965523E-3,0.000000000E0,-7.635590737E-4,2.270224446E-3
2.979750633E0,-9.162708884E-4,0.000000000E0,4.581354442E-4,1.024421996E-3
2.982194174E0,3.054236295E-4,0.000000000E0,4.581354442E-4,5.506102784E-4
2.984638549E0,-9.162708884E-4,-1.221694518E-3,4.581354442E-4,1.594358153E-3
2.987083654E0,1.527118147E-3,0.000000000E0,1.679830020E-3,2.270224379E-3
2.989527924E0,1.527118147E-3,-1.221694518E-3,-7.635590737E-4,2.099440352E-3
2.991971466E0,-9.162708884E-4,-2.443389036E-3,4.581354442E-4,2.649450963E-3
2.994415841E0,1.527118147E-3,0.000000000E0,4.581354442E-4,1.594358153E-3
2.996860945E0,2.748812549E-3,-1.221694518E-3,1.679830020E-3,3.445335516E-3
2.999305216E0,3.054236295E-4,0.000000000E0,1.679830020E-3,1.707370051E-3
3.001748758E0,1.527118147E-3,-2.443389036E-3,4.581354442E-4,2.917555124E-3
3.004193133E0,3.054236295E-4,-1.221694518E-3,-7.635590737E-4,1.472699408E-3
3.006638237E0,-9.162708884E-4,-2.443389036E-3,4.581354442E-4,2.649450963E-3
3.009082508E0,-2.137965523E-3,-1.221694518E-3,4.581354442E-4,2.504660088E-3
3.011526049E0,3.054236295E-4,-1.221694518E-3,4.581354442E-4,1.340040736E-3
3.013970424E0,3.054236295E-4,-1.221694518E-3,-7.635590737E-4,1.472699408E-3
3.016415581E0,3.054236295E-4,-1.221694518E-3,1.679830020E-3,2.099440398E-3
3.018859851E0,-9.162708884E-4,1.221694518E-3,4.581354442E-4,1.594358153E-3
3.021303341E0,3.054236295E-4,-2.443389036E-3,-7.635590737E-4,2.578072154E-3
3.023747716E0,3.054236295E-4,-1.221694518E-3,-7.635590737E-4,1.472699408E-3
3.026192872E0,1.527118147E-3,0.000000000E0,4.581354442E-4,1.594358153E-3
3.028637143E0,1.527118147E-3,-2.443389036E-3,-7.635590737E-4,2.980815706E-3
3.031080685E0,3.054236295E-4,0.000000000E0,-7.635590737E-4,8.223782903E-4
3.033525060E0,-9.162708884E-4,1.221694518E-3,4.581354442E-4,1.594358153E-3
3.035970164E0,-9.162708884E-4,-1.221694518E-3,-7.635590737E-4,1.707369994E-3
3.038414435E0,1.527118147E-3,0.000000000E0,4.581354442E-4,1.594358153E-3
3.040857976E0,3.054236295E-4,0.000000000E0,4.581354442E-4,5.506102784E-4
3.043302351E0,3.054236295E-4,-1.221694518E-3,-7.635590737E-4,1.472699408E-3
3.045747456E0,3.054236295E-4,0.000000000E0,-1.985253533E-3,2.008610262E-3
3.048191726E0,3.054236295E-4,-1.221694518E-3,-7.635590737E-4,1.472699408E-3
3.050635268E0,1.527118147E-3,-2.443389036E-3,1.679830020E-3,3.335276407E-3
3.053079643E0,1.527118147E-3,-2.443389036E-3,1.679830020E-3,3.335276407E-3
3.055524747E0,3.054236295E-4,-2.443389036E-3,-7.635590737E-4,2.578072154E-3
3.057969018E0,3.054236295E-4,-1.221694518E-3,1.679830020E-3,2.099440398E-3
3.060412560E0,3.054236295E-4,-2.443389036E-3,1.679830020E-3,2.980815739E-3
3.062856935E0,3.054236295E-4,0.000000000E0,-7.635590737E-4,8.223782903E-4
3.065302039E0,-9.162708884E-4,1.221694518E-3,4.581354442E-4,1.594358153E-3
3.067746310E0,-9.162708884E-4,0.000000000E0,4.581354442E-4,1.024421996E-3
3.070189851E0,3.054236295E-4,3.665083554E-3,-7.635590737E-4,3.756213986E-3
3.072634226E0,3.054236295E-4,1.221694518E-3,4.581354442E-4,1.340040736E-3
3.075079383E0,1.527118147E-3,-2.443389036E-3,4.581354442E-4,2.917555124E-3
3.077523601E0,3.054236295E-4,-2.443389036E-3,-7.635590737E-4,2.578072154E-3
3.079967143E0,-9.162708884E-4,-2.443389036E-3,4.581354442E-4,2.649450963E-3
3.082411518E0,-9.162708884E-4,-1.221694518E-3,4.581354442E-4,1.594358153E-3
3.084856674E0,-9.162708884E-4,-1.221694518E-3,4.581354442E-4,1.594358153E-3
3.087300945E0,1.527118147E-3,0.000000000E0,4.581354442E-4,1.594358153E-3
3.089744435E0,1.527118147E-3,-1.221694518E-3,4.581354442E-4,2.008610320E-3
3.092188810E0,-9.162708884E-4,-4.886778072E-3,-7.635590737E-4,5.030226110E-3
3.094633966E0,1.527118147E-3,-1.221694518E-3,-7.635590737E-4,2.099440352E-3
3.097078237E0,-9.162708884E-4,-1.221694518E-3,1.679830020E-3,2.270224379E-3
3.099521779E0,3.054236295E-4,-1.221694518E-3,4.581354442E-4,1.340040736E-3
3.101966154E0,1.527118147E-3,0.000000000E0,4.581354442E-4,1.594358153E-3
3.104411258E0,3.054236295E-4,0.000000000E0,4.581354442E-4,5.506102784E-4
3.106855529E0,3.054236295E-4,-1.221694518E-3,1.679830020E-3,2.099440398E-3
3.109299070E0,-9.162708884E-4,-1.221694518E-3,4.581354442E-4,1.594358153E-3
3.111743445E0,-2.137965523E-3,0.000000000E0,4.581354442E-4,2.186500551E-3
3.114188549E0,1.527118147E-3,-2.443389036E-3,4.581354442E-4,2.917555124E-3
3.116632820E0,1.527118147E-3,-1.221694518E-3,4.581354442E-4,2.008610320E-3
3.119076362E0,1.527118147E-3,-1.221694518E-3,1.679830020E-3,2.578072192E-3
3.121520737E0,-9.162708884E-4,-3.665083554E-3,4.581354442E-4,3.805558813E-3
3.123965841E0,-9.162708884E-4,0.000000000E0,1.679830020E-3,1.913473605E-3
3.126410112E0,3.054236295E-4,-2.443389036E-3,1.679830020E-3,2.980815739E-3
3.128853654E0,3.054236295E-4,-2.443389036E-3,-7.635590737E-4,2.578072154E-3
3.131298029E0,3.054236295E-4,1.221694518E-3,4.581354442E-4,1.340040736E-3
3.133743133E0,3.054236295E-4,1.221694518E-3,4.581354442E-4,1.340040736E-3
3.136187404E0,-9.162708884E-4,0.000000000E0,4.581354442E-4,1.024421996E-3
3.138630945E0,-9.162708884E-4,-1.221694518E-3,4.581354442E-4,1.594358153E-3
3.141075320E0,-9.162708884E-4,-1.221694518E-3,1.679830020E-3,2.270224379E-3
3.143520476E0,3.054236295E-4,1.221694518E-3,4.581354442E-4,1.340040736E-3
3.145964695E0,-9.162708884E-4,1.221694518E-3,-1.985253533E-3,2.504659943E-3
3.148408237E0,3.054236295E-4,1.221694518E-3,4.581354442E-4,1.340040736E-3
3.150852612E0,-9.162708884E-4,0.000000000E0,1.679830020E-3,1.913473605E-3
3.153297768E0,-9.162708884E-4,0.000000000E0,-7.635590737E-4,1.192717402E-3
3.155742039E0,3.054236295E-4,-1.221694518E-3,1.679830020E-3,2.099440398E-3
3.158185581E0,3.054236295E-4,-2.443389036E-3,-7.635590737E-4,2.578072154E-3
3.160629851E0,3.054236295E-4,-2.443389036E-3,-7.635590737E-4,2.578072154E-3
3.163075060E0,-9.162708884E-4,0.000000000E0,4.581354442E-4,1.024421996E-3
3.165519331E0,3.054236295E-4,-1.221694518E-3,4.581354442E-4,1.340040736E-3
3.167962872E0,3.054236295E-4,-1.221694518E-3,4.581354442E-4,1.340040736E-3
3.170407247E0,3.054236295E-4,-2.443389036E-3,4.581354442E-4,2.504659989E-3
3.172852351E0,2.748812549E-3,-1.221694518E-3,2.901524538E-3,4.179396197E-3
3.175296622E0,1.527118147E-3,-1.221694518E-3,4.581354442E-4,2.008610320E-3
3.177740164E0,-2.137965523E-3,0.000000000E0,4.581354442E-4,2.186500551E-3
3.180184539E0,3.054236295E-4,1.221694518E-3,1.679830020E-3,2.099440398E-3
3.182629643E0,3.054236295E-4,0.000000000E0,1.679830020E-3,1.707370051E-3
3.185073914E0,2.748812549E-3,-2.443389036E-3,1.679830020E-3,4.043259738E-3
3.187517456E0,1.527118147E-3,0.000000000E0,-7.635590737E-4,1.707369994E-3
3.189961831E0,-9.162708884E-4,1.221694518E-3,4.581354442E-4,1.594358153E-3
3.192406935E0,3.054236295E-4,0.000000000E0,-7.635590737E-4,8.223782903E-4
3.194851206E0,-9.162708884E-4,-2.443389036E-3,-3.206948051E-3,4.134515464E-3
3.197294747E0,-2.137965523E-3,-2.443389036E-3,-7.635590737E-4,3.335276453E-3
3.199739122E0,-9.162708884E-4,0.000000000E0,1.679830020E-3,1.913473605E-3
3.202184226E0,-3.359660041E-3,-1.221694518E-3,-7.635590737E-4,3.655526712E-3
3.204628601E0,-2.137965523E-3,0.000000000E0,-7.635590737E-4,2.270224446E-3
3.207072039E0,1.527118147E-3,-1.221694518E-3,-7.635590737E-4,2.099440352E-3
3.209516414E0,-9.162708884E-4,-2.443389036E-3,4.581354442E-4,2.649450963E-3
3.211961570E0,3.054236295E-4,-1.221694518E-3,1.679830020E-3,2.099440398E-3
3.214405841E0,-9.162708884E-4,-2.443389036E-3,-1.985253533E-3,3.278861679E-3
3.216849383E0,1.527118147E-3,0.000000000E0,-7.635590737E-4,1.707369994E-3
3.219293654E0,2.748812549E-3,-3.665083554E-3,4.581354442E-4,4.604204162E-3
3.221738862E0,3.054236295E-4,-3.665083554E-3,1.679830020E-3,4.043259817E-3
3.224183133E0,3.054236295E-4,0.000000000E0,-7.635590737E-4,8.223782903E-4
3.226626674E0,3.054236295E-4,0.000000000E0,-1.985253533E-3,2.008610262E-3
3.229071049E0,3.054236295E-4,-1.221694518E-3,4.581354442E-4,1.340040736E-3
3.231516154E0,3.054236295E-4,-1.221694518E-3,4.581354442E-4,1.340040736E-3
3.233960424E0,3.054236295E-4,0.000000000E0,4.581354442E-4,5.506102784E-4
3.236403966E0,3.054236295E-4,1.221694518E-3,-7.635590737E-4,1.472699408E-3
3.238848341E0,3.054236295E-4,-1.221694518E-3,2.901524538E-3,3.163015291E-3
3.241293445E0,-9.162708884E-4,-1.221694518E-3,-7.635590737E-4,1.707369994E-3
3.243737716E0,1.527118147E-3,-1.221694518E-3,4.581354442E-4,2.008610320E-3
3.246181258E0,1.527118147E-3,-1.221694518E-3,-7.635590737E-4,2.099440352E-3
3.248625633E0,-9.162708884E-4,0.000000000E0,4.581354442E-4,1.024421996E-3
3.251070737E0,3.054236295E-4,0.000000000E0,4.581354442E-4,5.506102784E-4
3.253515008E0,3.054236295E-4,-1.221694518E-3,-1.985253533E-3,2.350968456E-3
3.255958549E0,1.527118147E-3,-1.221694518E-3,4.581354442E-4,2.008610320E-3
3.258402924E0,3.054236295E-4,-1.221694518E-3,-7.635590737E-4,1.472699408E-3
3.260848029E0,-9.162708884E-4,0.000000000E0,2.901524538E-3,3.042761408E-3
3.263292404E0,-9.162708884E-4,0.000000000E0,4.581354442E-4,1.024421996E-3
3.265735841E0,-9.162708884E-4,-1.221694518E-3,4.581354442E-4,1.594358153E-3
3.268180216E0,-9.162708884E-4,-2.443389036E-3,4.581354442E-4,2.649450963E-3
3.270625372E0,1.527118147E-3,-3.665083554E-3,1.679830020E-3,4.311236039E-3
3.273069643E0,3.054236295E-4,-1.221694518E-3,1.679830020E-3,2.099440398E-3
3.275513133E0,3.054236295E-4,-1.221694518E-3,-7.635590737E-4,1.472699408E-3
3.277957560E0,-9.162708884E-4,-2.443389036E-3,4.581354442E-4,2.649450963E-3
3.280402664E0,2.748812549E-3,-1.221694518E-3,-7.635590737E-4,3.103470699E-3
3.282846935E0,1.527118147E-3,-2.443389036E-3,4.581354442E-4,2.917555124E-3
3.285290476E0,3.054236295E-4,-2.443389036E-3,-7.635590737E-4,2.578072154E-3
3.287734851E0,-9.162708884E-4,0.000000000E0,4.581354442E-4,1.024421996E-3
3.290179956E0,3.054236295E-4,-1.221694518E-3,1.679830020E-3,2.099440398E-3
3.292624226E0,3.054236295E-4,-1.221694518E-3,4.581354442E-4,1.340040736E-3
3.295067768E0,-9.162708884E-4,-2.443389036E-3,-1.985253533E-3,3.278861679E-3
3.297512143E0,-9.162708884E-4,-1.221694518E-3,-3.206948051E-3,3.551986154E-3
3.299957247E0,1.527118147E-3,1.221694518E-3,4.581354442E-4,2.008610320E-3
3.302401518E0,2.748812549E-3,1.221694518E-3,4.581354442E-4,3.042761247E-3
3.304845060E0,-2.137965523E-3,-1.221694518E-3,4.581354442E-4,2.504660088E-3
3.307289435E0,-9.162708884E-4,1.221694518E-3,4.581354442E-4,1.594358153E-3
3.309734539E0,3.054236295E-4,0.000000000E0,4.581354442E-4,5.506102784E-4
3.312178810E0,3.054236295E-4,-1.221694518E-3,1.679830020E-3,2.099440398E-3
3.314622351E0,3.054236295E-4,1.221694518E-3,1.679830020E-3,2.099440398E-3
3.317066726E0,3.054236295E-4,-1.221694518E-3,-7.635590737E-4,1.472699408E-3
3.319511831E0,-9.162708884E-4,-2.443389036E-3,-7.635590737E-4,2.718956561E-3
3.321956206E0,3.054236295E-4,1.221694518E-3,4.581354442E-4,1.340040736E-3
3.324399643E0,3.054236295E-4,1.221694518E-3,4.581354442E-4,1.340040736E-3
3.326844018E0,1.527118147E-3,0.000000000E0,4.581354442E-4,1.594358153E-3
3.329289174E0,-9.162708884E-4,1.221694518E-3,1.679830020E-3,2.270224379E-3
3.331733445E0,3.054236295E-4,1.221694518E-3,-7.635590737E-4,1.472699408E-3
3.334176935E0,-9.162708884E-4,0.000000000E0,1.679830020E-3,1.913473605E-3
3.336621362E0,-9.162708884E-4,1.221694518E-3,1.679830020E-3,2.270224379E-3
3.339066466E0,1.527118147E-3,0.000000000E0,1.679830020E-3,2.270224379E-3
3.341510737E0,-9.162708884E-4,-2.443389036E-3,-1.985253533E-3,3.278861679E-3
3.343954279E0,-9.162708884E-4,-1.221694518E-3,-7.635590737E-4,1.707369994E-3
3.346398654E0,1.527118147E-3,-2.443389036E-3,4.581354442E-4,2.917555124E-3
3.348843758E0,3.054236295E-4,1.221694518E-3,-7.635590737E-4,1.472699408E-3
3.351288029E0,3.054236295E-4,-1.221694518E-3,4.581354442E-4,1.340040736E-3
3.353731570E0,-9.162708884E-4,-1.221694518E-3,4.581354442E-4,1.594358153E-3
3.356175945E0,1.527118147E-3,0.000000000E0,1.679830020E-3,2.270224379E-3
3.358621049E0,3.054236295E-4,0.000000000E0,1.679830020E-3,1.707370051E-3
3.361065320E0,-9.162708884E-4,0.000000000E0,4.581354442E-4,1.024421996E-3
3.363508862E0,3.054236295E-4,-1.221694518E-3,-7.635590737E-4,1.472699408E-3
3.365953237E0,-9.162708884E-4,-1.221694518E-3,4.581354442E-4,1.594358153E-3
3.368398341E0,3.054236295E-4,0.000000000E0,1.679830020E-3,1.707370051E-3
3.370842612E0,-9.162708884E-4,2.443389036E-3,1.679830020E-3,3.103470834E-3
3.373286154E0,1.527118147E-3,0.000000000E0,-7.635590737E-4,1.707369994E-3
3.375730529E0,1.527118147E-3,-1.221694518E-3,4.581354442E-4,2.008610320E-3
3.378175633E0,-9.162708884E-4,-1.221694518E-3,4.581354442E-4,1.594358153E-3
3.380620008E0,3.054236295E-4,0.000000000E0,4.581354442E-4,5.506102784E-4
3.383063445E0,2.748812549E-3,3.665083554E-3,-1.985253533E-3,4.992999046E-3
3.385507820E0,3.054236295E-4,1.221694518E-3,-7.635590737E-4,1.472699408E-3
3.387952976E0,3.054236295E-4,-1.221694518E-3,-7.635590737E-4,1.472699408E-3
3.390397247E0,1.527118147E-3,-1.221694518E-3,4.581354442E-4,2.008610320E-3
3.392840737E0,1.527118147E-3,0.000000000E0,4.581354442E-4,1.594358153E-3
3.395285112E0,3.054236295E-4,0.000000000E0,-1.985253533E-3,2.008610262E-3
3.397730268E0,1.527118147E-3,-1.221694518E-3,4.581354442E-4,2.008610320E-3
3.400174539E0,3.054236295E-4,0.000000000E0,1.679830020E-3,1.707370051E-3
3.402618081E0,-2.137965523E-3,0.000000000E0,4.581354442E-4,2.186500551E-3
3.405062456E0,-9.162708884E-4,0.000000000E0,2.901524538E-3,3.042761408E-3
3.407507560E0,3.054236295E-4,3.665083554E-3,4.581354442E-4,3.706212235E-3
3.409951831E0,3.054236295E-4,2.443389036E-3,-7.635590737E-4,2.578072154E-3
3.412395372E0,-9.162708884E-4,0.000000000E0,4.581354442E-4,1.024421996E-3
3.414839747E0,-9.162708884E-4,2.443389036E-3,1.679830020E-3,3.103470834E-3
3.417284851E0,3.054236295E-4,0.000000000E0,-7.635590737E-4,8.223782903E-4
3.419729122E0,-9.162708884E-4,-2.443389036E-3,1.679830020E-3,3.103470834E-3
3.422172664E0,3.054236295E-4,-1.221694518E-3,1.679830020E-3,2.099440398E-3
3.424617039E0,1.527118147E-3,-3.665083554E-3,4.581354442E-4,3.996850682E-3
3.427062143E0,2.748812549E-3,-1.221694518E-3,4.581354442E-4,3.042761247E-3
3.429506414E0,3.054236295E-4,-1.221694518E-3,-7.635590737E-4,1.472699408E-3
3.431949956E0,3.054236295E-4,0.000000000E0,-7.635590737E-4,8.223782903E-4
3.434394331E0,3.054236295E-4,0.000000000E0,-7.635590737E-4,8.223782903E-4
3.436839487E0,3.054236295E-4,1.221694518E-3,4.581354442E-4,1.340040736E-3
3.439283758E0,-9.162708884E-4,-1.221694518E-3,-7.635590737E-4,1.707369994E-3
3.441727247E0,-2.137965523E-3,1.221694518E-3,-1.985253533E-3,3.163015280E-3
3.444171622E0,3.054236295E-4,-1.221694518E-3,-7.635590737E-4,1.472699408E-3
3.446616779E0,1.527118147E-3,-1.221694518E-3,4.581354442E-4,2.008610320E-3
3.449061049E0,1.527118147E-3,0.000000000E0,1.679830020E-3,2.270224379E-3
3.451504591E0,1.527118147E-3,-2.443389036E-3,-7.635590737E-4,2.980815706E-3
3.453948966E0,1.527118147E-3,-2.443389036E-3,-7.635590737E-4,2.980815706E-3
3.456394070E0,1.527118147E-3,-1.221694518E-3,4.581354442E-4,2.008610320E-3
3.458838341E0,3.054236295E-4,0.000000000E0,4.581354442E-4,5.506102784E-4
3.461281883E0,-9.162708884E-4,1.221694518E-3,-1.985253533E-3,2.504659943E-3
3.463726258E0,-9.162708884E-4,-1.221694518E-3,-7.635590737E-4,1.707369994E-3
3.466171362E0,3.054236295E-4,-1.221694518E-3,1.679830020E-3,2.099440398E-3
3.468615633E0,3.054236295E-4,-2.443389036E-3,1.679830020E-3,2.980815739E-3
3.471059174E0,3.054236295E-4,-1.221694518E-3,4.581354442E-4,1.340040736E-3
3.473503549E0,-9.162708884E-4,-1.221694518E-3,1.679830020E-3,2.270224379E-3
3.475948654E0,1.527118147E-3,0.000000000E0,4.581354442E-4,1.594358153E-3
3.478392924E0,3.054236295E-4,0.000000000E0,4.581354442E-4,5.506102784E-4
3.480836466E0,3.054236295E-4,-1.221694518E-3,-7.635590737E-4,1.472699408E-3
3.483280841E0,-9.162708884E-4,-2.443389036E-3,-7.635590737E-4,2.718956561E-3
3.485725945E0,-9.162708884E-4,4.886778072E-3,-7.635590737E-4,5.030226110E-3
3.488170320E0,1.527118147E-3,-2.443389036E-3,1.679830020E-3,3.335276407E-3
3.490613758E0,2.748812549E-3,-1.221694518E-3,4.581354442E-4,3.042761247E-3
3.493058133E0,1.527118147E-3,-1.221694518E-3,-7.635590737E-4,2.099440352E-3
3.495503289E0,3.054236295E-4,-2.443389036E-3,1.679830020E-3,2.980815739E-3
3.497947560E0,1.527118147E-3,-1.221694518E-3,4.581354442E-4,2.008610320E-3
3.500391101E0,1.527118147E-3,-1.221694518E-3,4.581354442E-4,2.008610320E-3
3.502835476E0,3.054236295E-4,-1.221694518E-3,1.679830020E-3,2.099440398E-3
3.505280581E0,3.054236295E-4,-1.221694518E-3,4.581354442E-4,1.340040736E-3
3.507724851E0,-9.162708884E-4,-1.221694518E-3,1.679830020E-3,2.270224379E-3
3.510168393E0,1.527118147E-3,-1.221694518E-3,1.679830020E-3,2.578072192E-3
3.512612768E0,1.527118147E-3,1.221694518E-3,-7.635590737E-4,2.099440352E-3
3.515057872E0,3.054236295E-4,1.221694518E-3,4.581354442E-4,1.340040736E-3
3.517502143E0,1.527118147E-3,1.221694518E-3,-7.635590737E-4,2.099440352E-3
3.519945685E0,3.054236295E-4,-2.443389036E-3,1.679830020E-3,2.980815739E-3
3.522390060E0,3.054236295E-4,-1.221694518E-3,4.581354442E-4,1.340040736E-3
3.524835164E0,2.748812549E-3,-1.221694518E-3,-7.635590737E-4,3.103470699E-3
3.527279435E0,2.748812549E-3,-2.443389036E-3,1.679830020E-3,4.043259738E-3
3.529722976E0,3.054236295E-4,0.000000000E0,1.679830020E-3,1.707370051E-3
3.532167351E0,3.054236295E-4,0.000000000E0,4.581354442E-4,5.506102784E-4
3.534612456E0,1.527118147E-3,1.221694518E-3,4.581354442E-4,2.008610320E-3
3.537056831E0,3.054236295E-4,0.000000000E0,1.679830020E-3,1.707370051E-3
3.539500268E0,3.054236295E-4,-1.221694518E-3,-7.635590737E-4,1.472699408E-3
3.541944643E0,1.527118147E-3,-1.221694518E-3,4.581354442E-4,2.008610320E-3
3.544389799E0,-9.162708884E-4,0.000000000E0,-7.635590737E-4,1.192717402E-3
3.546834070E0,3.054236295E-4,-1.221694518E-3,1.679830020E-3,2.099440398E-3
3.549277612E0,1.527118147E-3,-1.221694518E-3,4.581354442E-4,2.008610320E-3
3.551721987E0,1.527118147E-3,-1.221694518E-3,4.581354442E-4,2.008610320E-3
3.554167091E0,3.054236295E-4,-2.443389036E-3,-7.635590737E-4,2.578072154E-3
3.556611362E0,3.054236295E-4,-2.443389036E-3,1.679830020E-3,2.980815739E-3
3.559054904E0,3.054236295E-4,-1.221694518E-3,4.581354442E-4,1.340040736E-3
3.561499279E0,3.054236295E-4,-1.221694518E-3,4.581354442E-4,1.340040736E-3
3.563944383E0,-9.162708884E-4,1.221694518E-3,-7.635590737E-4,1.707369994E-3
3.566388654E0,3.054236295E-4,-1.221694518E-3,4.581354442E-4,1.340040736E-3
3.568832195E0,3.054236295E-4,-1.221694518E-3,4.581354442E-4,1.340040736E-3
3.571276570E0,-9.162708884E-4,1.221694518E-3,-7.635590737E-4,1.707369994E-3
3.573721674E0,3.054236295E-4,-1.221694518E-3,4.581354442E-4,1.340040736E-3
3.576166049E0,3.054236295E-4,-1.221694518E-3,-7.635590737E-4,1.472699408E-3
3.578609487E0,-9.162708884E-4,-1.221694518E-3,4.581354442E-4,1.594358153E-3
3.581053862E0,1.527118147E-3,-1.221694518E-3,4.581354442E-4,2.008610320E-3
3.583499018E0,1.527118147E-3,-1.221694518E-3,-7.635590737E-4,2.099440352E-3
3.585943289E0,3.054236295E-4,0.000000000E0,-7.635590737E-4,8.223782903E-4
3.588386779E0,-2.137965523E-3,2.443389036E-3,4.581354442E-4,3.278861791E-3
3.590831206E0,2.748812549E-3,0.000000000E0,1.679830020E-3,3.221459192E-3
3.593276310E0,2.748812549E-3,-2.443389036E-3,1.679830020E-3,4.043259738E-3
3.595720581E0,1.527118147E-3,0.000000000E0,1.679830020E-3,2.270224379E-3
3.598164122E0,3.054236295E-4,-1.221694518E-3,-1.985253533E-3,2.350968456E-3
3.600608497E0,3.054236295E-4,0.000000000E0,-1.985253533E-3,2.008610262E-3
3.603053601E0,3.054236295E-4,0.000000000E0,-3.206948051E-3,3.221459203E-3
3.605497872E0,-3.359660041E-3,0.000000000E0,-7.635590737E-4,3.445335694E-3
3.607941414E0,3.054236295E-4,-2.443389036E-3,-7.635590737E-4,2.578072154E-3
3.610385789E0,-2.137965523E-3,-4.886778072E-3,-7.635590737E-4,5.388368859E-3
3.612830893E0,-9.162708884E-4,1.221694518E-3,-7.635590737E-4,1.707369994E-3
3.615275164E0,1.527118147E-3,0.000000000E0,1.679830020E-3,2.270224379E-3
3.617718706E0,3.054236295E-4,0.000000000E0,-7.635590737E-4,8.223782903E-4
3.620163081E0,3.054236295E-4,1.221694518E-3,-7.635590737E-4,1.472699408E-3
3.622608237E0,3.054236295E-4,-2.443389036E-3,4.581354442E-4,2.504659989E-3
3.625052508E0,3.054236295E-4,0.000000000E0,4.581354442E-4,5.506102784E-4
3.627495997E0,1.527118147E-3,0.000000000E0,-7.635590737E-4,1.707369994E-3
3.629940372E0,2.748812549E-3,-2.443389036E-3,4.581354442E-4,3.706212149E-3
3.632385529E0,1.527118147E-3,-1.221694518E-3,4.581354442E-4,2.008610320E-3
3.634829799E0,-9.162708884E-4,-3.665083554E-3,4.581354442E-4,3.805558813E-3
3.637273341E0,1.527118147E-3,-1.221694518E-3,4.581354442E-4,2.008610320E-3
3.639717716E0,2.748812549E-3,2.443389036E-3,4.581354442E-4,3.706212149E-3
3.642162820E0,1.527118147E-3,1.221694518E-3,4.581354442E-4,2.008610320E-3
3.644607091E0,1.527118147E-3,0.000000000E0,4.581354442E-4,1.594358153E-3
3.647050633E0,3.054236295E-4,0.000000000E0,4.581354442E-4,5.506102784E-4
3.649495008E0,-9.162708884E-4,0.000000000E0,2.901524538E-3,3.042761408E-3
3.651940112E0,3.054236295E-4,0.000000000E0,4.581354442E-4,5.506102784E-4
3.654384383E0,-9.162708884E-4,-2.443389036E-3,-1.985253533E-3,3.278861679E-3
3.656827924E0,1.527118147E-3,-1.221694518E-3,-7.635590737E-4,2.099440352E-3
3.659272299E0,1.527118147E-3,-2.443389036E-3,4.581354442E-4,2.917555124E-3
3.661717456E0,3.054236295E-4,-2.443389036E-3,-7.635590737E-4,2.578072154E-3
3.664161726E0,-9.162708884E-4,1.221694518E-3,-7.635590737E-4,1.707369994E-3
3.666605216E0,-9.162708884E-4,1.221694518E-3,4.581354442E-4,1.594358153E-3
3.669049591E0,-9.162708884E-4,0.000000000E0,1.679830020E-3,1.913473605E-3
3.671494747E0,3.054236295E-4,-1.221694518E-3,4.581354442E-4,1.340040736E-3
3.673939018E0,-9.162708884E-4,-2.443389036E-3,-7.635590737E-4,2.718956561E-3
3.676382560E0,-9.162708884E-4,-2.443389036E-3,-7.635590737E-4,2.718956561E-3
3.678826935E0,-9.162708884E-4,-1.221694518E-3,4.581354442E-4,1.594358153E-3
3.681272039E0,3.054236295E-4,-1.221694518E-3,1.679830020E-3,2.099440398E-3
3.683716310E0,3.054236295E-4,0.000000000E0,4.581354442E-4,5.506102784E-4
3.686159851E0,-9.162708884E-4,0.000000000E0,4.581354442E-4,1.024421996E-3
3.688604226E0,-2.137965523E-3,0.000000000E0,-7.635590737E-4,2.270224446E-3
3.691049331E0,-2.137965523E-3,3.665083554E-3,1.679830020E-3,4.563503361E-3
3.693493601E0,3.054236295E-4,-1.221694518E-3,4.581354442E-4,1.340040736E-3
3.695937143E0,3.054236295E-4,-2.443389036E-3,-7.635590737E-4,2.578072154E-3
3.698381518E0,1.527118147E-3,-2.443389036E-3,4.581354442E-4,2.917555124E-3
3.700826674E0,3.054236295E-4,1.221694518E-3,4.581354442E-4,1.340040736E-3
3.703270945E0,3.054236295E-4,0.000000000E0,-1.985253533E-3,2.008610262E-3
3.705714435E0,3.054236295E-4,0.000000000E0,-7.635590737E-4,8.223782903E-4
3.708158862E0,-9.162708884E-4,0.000000000E0,4.581354442E-4,1.024421996E-3
3.710603966E0,-3.359660041E-3,-3.665083554E-3,-7.635590737E-4,5.030226188E-3
3.713048237E0,-2.137965523E-3,-1.221694518E-3,-7.635590737E-4,2.578072251E-3
3.715491779E0,1.527118147E-3,-1.221694518E-3,1.679830020E-3,2.578072192E-3
3.717936154E0,-9.162708884E-4,0.000000000E0,4.581354442E-4,1.024421996E-3
3.720381258E0,3.054236295E-4,0.000000000E0,4.581354442E-4,5.506102784E-4
3.722825529E0,3.054236295E-4,-1.221694518E-3,1.679830020E-3,2.099440398E-3
3.725269070E0,-9.162708884E-4,0.000000000E0,4.581354442E-4,1.024421996E-3
3.727713445E0,-9.162708884E-4,1.221694518E-3,-1.985253533E-3,2.504659943E-3
3.730158601E0,2.748812549E-3,1.221694518E-3,-7.635590737E-4,3.103470699E-3
3.732602872E0,1.527118147E-3,-1.221694518E-3,-7.635590737E-4,2.099440352E-3
3.735046362E0,3.054236295E-4,1.221694518E-3,4.581354442E-4,1.340040736E-3
3.737490737E0,1.527118147E-3,-1.221694518E-3,4.581354442E-4,2.008610320E-3
3.739935893E0,1.527118147E-3,-2.443389036E-3,1.679830020E-3,3.335276407E-3
3.742380164E0,-9.162708884E-4,-2.443389036E-3,4.581354442E-4,2.649450963E-3
3.744823706E0,1.527118147E-3,-2.443389036E-3,2.901524538E-3,4.089142265E-3
3.747268081E0,3.054236295E-4,0.000000000E0,4.581354442E-4,5.506102784E-4
3.749713185E0,3.054236295E-4,-1.221694518E-3,4.581354442E-4,1.340040736E-3
3.752157456E0,-9.162708884E-4,-1.221694518E-3,1.679830020E-3,2.270224379E-3
3.754600997E0,3.054236295E-4,1.221694518E-3,-7.635590737E-4,1.472699408E-3
3.757045372E0,3.054236295E-4,-1.221694518E-3,4.581354442E-4,1.340040736E-3
3.759490476E0,3.054236295E-4,-1.221694518E-3,4.581354442E-4,1.340040736E-3
3.761934747E0,3.054236295E-4,-1.221694518E-3,1.679830020E-3,2.099440398E-3
3.764378289E0,3.054236295E-4,-2.443389036E-3,4.581354442E-4,2.504659989E-3
3.766822664E0,3.054236295E-4,-1.221694518E-3,4.581354442E-4,1.340040736E-3
3.769267820E0,1.527118147E-3,-1.221694518E-3,1.679830020E-3,2.578072192E-3
3.771712091E0,1.527118147E-3,-2.443389036E-3,1.679830020E-3,3.335276407E-3
3.774155633E0,3.054236295E-4,-1.221694518E-3,1.679830020E-3,2.099440398E-3
3.776600008E0,3.054236295E-4,0.000000000E0,4.581354442E-4,5.506102784E-4
3.779045112E0,3.054236295E-4,0.000000000E0,4.581354442E-4,5.506102784E-4
3.781489383E0,3.054236295E-4,-1.221694518E-3,-7.635590737E-4,1.472699408E-3
3.783932924E0,3.054236295E-4,0.000000000E0,4.581354442E-4,5.506102784E-4
3.786377299E0,-9.162708884E-4,1.221694518E-3,4.581354442E-4,1.594358153E-3
3.788822404E0,3.054236295E-4,0.000000000E0,4.581354442E-4,5.506102784E-4
3.791266674E0,3.054236295E-4,-2.443389036E-3,4.581354442E-4,2.504659989E-3
3.793710216E0,-3.359660041E-3,-2.443389036E-3,-7.635590737E-4,4.223800188E-3
3.796154591E0,1.527118147E-3,-1.221694518E-3,-7.635590737E-4,2.099440352E-3
3.798599747E0,3.054236295E-4,-1.221694518E-3,-7.635590737E-4,1.472699408E-3
3.801044018E0,3.054236295E-4,0.000000000E0,-7.635590737E-4,8.223782903E-4
3.803487560E0,3.054236295E-4,0.000000000E0,4.581354442E-4,5.506102784E-4
3.805931935E0,-9.162708884E-4,0.000000000E0,-7.635590737E-4,1.192717402E-3
3.808377039E0,1.527118147E-3,0.000000000E0,1.679830020E-3,2.270224379E-3
3.810821310E0,-2.137965523E-3,2.443389036E-3,-7.635590737E-4,3.335276453E-3
3.813264851E0,5.192201585E-3,1.221694518E-3,4.581354442E-4,5.353632680E-3
3.815709226E0,3.054236295E-4,-2.443389036E-3,-7.635590737E-4,2.578072154E-3
3.818154331E0,3.054236295E-4,-2.443389036E-3,-7.635590737E-4,2.578072154E-3
3.820598601E0,-9.162708884E-4,0.000000000E0,-7.635590737E-4,1.192717402E-3
3.823042143E0,-2.137965523E-3,-1.221694518E-3,1.679830020E-3,2.980815823E-3
3.825486518E0,2.748812549E-3,-1.221694518E-3,4.581354442E-4,3.042761247E-3
3.827931674E0,-9.162708884E-4,-1.221694518E-3,4.581354442E-4,1.594358153E-3
3.830375945E0,1.527118147E-3,-1.221694518E-3,4.581354442E-4,2.008610320E-3
3.832819487E0,3.054236295E-4,2.443389036E-3,1.679830020E-3,2.980815739E-3
3.835263862E0,3.054236295E-4,-1.221694518E-3,4.581354442E-4,1.340040736E-3
3.837708966E0,2.748812549E-3,-2.443389036E-3,4.581354442E-4,3.706212149E-3
3.840153237E0,-2.137965523E-3,-1.221694518E-3,-7.635590737E-4,2.578072251E-3
3.842596779E0,2.748812549E-3,1.221694518E-3,1.679830020E-3,3.445335516E-3
3.845041154E0,-2.137965523E-3,-1.221694518E-3,-1.985253533E-3,3.163015280E-3
3.847486258E0,1.527118147E-3,-2.443389036E-3,4.581354442E-4,2.917555124E-3
3.849930529E0,3.054236295E-4,0.000000000E0,1.679830020E-3,1.707370051E-3
3.852374070E0,-9.162708884E-4,0.000000000E0,4.581354442E-4,1.024421996E-3
3.854818445E0,2.748812549E-3,0.000000000E0,4.581354442E-4,2.786728999E-3
3.857263601E0,-4.581354558E-3,-3.665083554E-3,4.581354442E-4,5.884856424E-3
3.859707872E0,2.748812549E-3,-3.665083554E-3,4.581354442E-4,4.604204162E-3
3.862151414E0,2.748812549E-3,1.221694518E-3,4.581354442E-4,3.042761247E-3
3.864595789E0,-3.359660041E-3,0.000000000E0,4.581354442E-4,3.390752671E-3
3.867040893E0,1.527118147E-3,2.443389036E-3,-7.635590737E-4,2.980815706E-3
3.869485164E0,-3.359660041E-3,0.000000000E0,4.581354442E-4,3.390752671E-3
3.871928706E0,2.748812549E-3,0.000000000E0,-7.635590737E-4,2.852892022E-3
3.874373081E0,3.054236295E-4,1.221694518E-3,4.581354442E-4,1.340040736E-3
3.876818185E0,-5.803049076E-3,0.000000000E0,-7.635590737E-4,5.853067661E-3
3.879262456E0,3.970507067E-3,-1.221694518E-3,-7.635590737E-4,4.223799986E-3
3.881705997E0,3.054236295E-4,-1.221694518E-3,-7.635590737E-4,1.472699408E-3
3.884150372E0,-3.359660041E-3,1.221694518E-3,1.679830020E-3,3.949896452E-3
3.886595529E0,5.192201585E-3,1.221694518E-3,4.581354442E-4,5.353632680E-3
3.889039799E0,3.054236295E-4,1.221694518E-3,1.679830020E-3,2.099440398E-3
3.891483341E0,-9.162708884E-4,-1.221694518E-3,4.581354442E-4,1.594358153E-3
3.893927716E0,3.970507067E-3,1.221694518E-3,1.679830020E-3,4.480992385E-3
3.896372820E0,2.748812549E-3,-1.221694518E-3,1.679830020E-3,3.445335516E-3
3.898817091E0,1.527118147E-3,1.221694518E-3,4.581354442E-4,2.008610320E-3
3.901260633E0,1.527118147E-3,-1.221694518E-3,-7.635590737E-4,2.099440352E-3
3.903705008E0,-2.137965523E-3,0.000000000E0,-7.635590737E-4,2.270224446E-3
3.906150112E0,-2.137965523E-3,-2.443389036E-3,1.679830020E-3,3.655526700E-3
3.908594487E0,1.527118147E-3,-3.665083554E-3,4.581354442E-4,3.996850682E-3
3.911037924E0,-9.162708884E-4,0.000000000E0,-7.635590737E-4,1.192717402E-3
3.913482299E0,1.527118147E-3,0.000000000E0,4.581354442E-4,1.594358153E-3
3.915927456E0,1.527118147E-3,-1.221694518E-3,4.581354442E-4,2.008610320E-3
3.918371726E0,-2.137965523E-3,-2.443389036E-3,4.581354442E-4,3.278861791E-3
3.920815268E0,-2.137965523E-3,-1.221694518E-3,1.679830020E-3,2.980815823E-3
3.923259643E0,3.054236295E-4,-2.443389036E-3,1.679830020E-3,2.980815739E-3
3.925704747E0,-9.162708884E-4,-1.221694518E-3,-7.635590737E-4,1.707369994E-3
3.928149018E0,3.054236295E-4,-1.221694518E-3,4.581354442E-4,1.340040736E-3
3.930592560E0,3.054236295E-4,0.000000000E0,4.581354442E-4,5.506102784E-4
3.933036935E0,3.054236295E-4,0.000000000E0,1.679830020E-3,1.707370051E-3
3.935482091E0,-2.137965523E-3,-2.443389036E-3,4.581354442E-4,3.278861791E-3
3.937926362E0,-9.162708884E-4,0.000000000E0,1.679830020E-3,1.913473605E-3
3.940369904E0,-2.137965523E-3,0.000000000E0,-7.635590737E-4,2.270224446E-3
3.942814279E0,3.054236295E-4,0.000000000E0,4.581354442E-4,5.506102784E-4
3.945259383E0,1.527118147E-3,-2.443389036E-3,4.581354442E-4,2.917555124E-3
3.947703654E0,-9.162708884E-4,0.000000000E0,4.581354442E-4,1.024421996E-3
3.950147195E0,3.054236295E-4,0.000000000E0,4.581354442E-4,5.506102784E-4
3.952591570E0,1.527118147E-3,-1.221694518E-3,4.581354442E-4,2.008610320E-3
3.955036674E0,-9.162708884E-4,-1.221694518E-3,-7.635590737E-4,1.707369994E-3
3.957481049E0,3.054236295E-4,-2.443389036E-3,4.581354442E-4,2.504659989E-3
3.959924487E0,3.054236295E-4,0.000000000E0,4.581354442E-4,5.506102784E-4
3.962368914E0,-9.162708884E-4,0.000000000E0,1.679830020E-3,1.913473605E-3
3.964814018E0,-9.162708884E-4,1.221694518E-3,4.581354442E-4,1.594358153E-3
3.967258289E0,3.054236295E-4,0.000000000E0,-7.635590737E-4,8.223782903E-4
3.969701831E0,3.054236295E-4,0.000000000E0,1.679830020E-3,1.707370051E-3
3.972146206E0,3.054236295E-4,-1.221694518E-3,-7.635590737E-4,1.472699408E-3
3.974591310E0,1.527118147E-3,-1.221694518E-3,4.581354442E-4,2.008610320E-3
3.977035581E0,3.054236295E-4,0.000000000E0,-7.635590737E-4,8.223782903E-4
3.979479122E0,-9.162708884E-4,0.000000000E0,-3.206948051E-3,3.335276322E-3
3.981923497E0,-2.137965523E-3,-1.221694518E-3,1.679830020E-3,2.980815823E-3
3.984368654E0,-9.162708884E-4,0.000000000E0,4.581354442E-4,1.024421996E-3
3.986812924E0,-9.162708884E-4,0.000000000E0,4.581354442E-4,1.024421996E-3
3.989256466E0,-9.162708884E-4,1.221694518E-3,1.679830020E-3,2.270224379E-3
3.991700841E0,3.054236295E-4,1.221694518E-3,1.679830020E-3,2.099440398E-3
3.994145945E0,3.054236295E-4,-2.443389036E-3,-7.635590737E-4,2.578072154E-3
3.996590216E0,2.748812549E-3,-2.443389036E-3,4.581354442E-4,3.706212149E-3
3.999033758E0,2.748812549E-3,-2.443389036E-3,1.679830020E-3,4.043259738E-3
4.001478133E0,1.527118147E-3,-1.221694518E-3,-7.635590737E-4,2.099440352E-3
4.003923289E0,-9.162708884E-4,0.000000000E0,-7.635590737E-4,1.192717402E-3
4.006367560E0,-9.162708884E-4,0.000000000E0,-7.635590737E-4,1.192717402E-3
4.008811101E0,-9.162708884E-4,0.000000000E0,-7.635590737E-4,1.192717402E-3
4.011255476E0,-9.162708884E-4,0.000000000E0,-7.635590737E-4,1.192717402E-3
