"Time (s)","Acceleration x (m/s^2)","Acceleration y (m/s^2)","Acceleration z (m/s^2)"
2.615036700E-2,-3.888336942E-2,-1.887338907E-1,9.873384476E0
2.859484600E-2,-4.127619043E-2,-1.959123611E-1,9.885348320E0
3.103859600E-2,-4.845465720E-2,-1.935195327E-1,9.909276962E0
3.348323100E-2,-3.888336942E-2,-1.959123611E-1,9.916455269E0
3.592854400E-2,-4.127619043E-2,-1.815554202E-1,9.916455269E0
3.837307500E-2,-4.606183618E-2,-1.887338907E-1,9.892526627E0
4.081682500E-2,-4.606183618E-2,-2.006980032E-1,9.890133858E0
4.326135600E-2,-3.888336942E-2,-1.959123611E-1,9.873384476E0
4.570677300E-2,-5.832505226E-2,-1.911267042E-1,9.878170013E0
4.815125200E-2,-4.606183618E-2,-1.959123611E-1,9.870991707E0
5.059500200E-2,-2.931207791E-2,-2.078764737E-1,9.875777245E0
5.303953300E-2,-3.888336942E-2,-2.030908167E-1,9.868598938E0
5.548495000E-2,-2.691925503E-2,-1.983051747E-1,9.890133858E0
5.792942900E-2,-3.888336942E-2,-1.911267042E-1,9.887741089E0
6.037317900E-2,-5.084748194E-2,-2.126621157E-1,9.926026344E0
6.281781500E-2,-6.311069429E-2,-1.839482337E-1,9.875777245E0
6.526312700E-2,-5.563312769E-2,-2.054836452E-1,9.866206169E0
6.770765800E-2,-2.931207791E-2,-2.078764737E-1,9.885348320E0
7.015140800E-2,-3.649054468E-2,-2.126621157E-1,9.856635094E0
7.259594000E-2,-2.931207791E-2,-1.911267042E-1,9.856635094E0
7.504135600E-2,-4.606183618E-2,-2.054836452E-1,9.870991707E0
7.748583500E-2,-3.888336942E-2,-1.887338907E-1,9.870991707E0
7.992958500E-2,-2.931207791E-2,-2.030908167E-1,9.859027863E0
8.237411700E-2,-3.649054468E-2,-2.006980032E-1,9.873384476E0
8.481953300E-2,-5.084748194E-2,-2.006980032E-1,9.882955551E0
8.726401300E-2,-3.170489892E-2,-2.006980032E-1,9.909276962E0
8.970776300E-2,-3.409772366E-2,-1.911267042E-1,9.870991707E0
9.215239800E-2,-4.845465720E-2,-2.126621157E-1,9.897313118E0
9.459771000E-2,-3.409772366E-2,-1.935195327E-1,9.892526627E0
9.704224200E-2,-3.649054468E-2,-1.887338907E-1,9.890133858E0
9.948599200E-2,-3.888336942E-2,-1.887338907E-1,9.868598938E0
1.019305230E-1,-3.170489892E-2,-1.935195327E-1,9.892526627E0
1.043759400E-1,-4.606183618E-2,-1.983051747E-1,9.902098656E0
1.068204190E-1,-3.888336942E-2,-1.911267042E-1,9.904491425E0
1.092641690E-1,-3.888336942E-2,-2.126621157E-1,9.887741089E0
1.117087000E-1,-5.324030295E-2,-1.983051747E-1,9.894919395E0
1.141541170E-1,-4.366901144E-2,-1.887338907E-1,9.897313118E0
1.165985960E-1,-4.606183618E-2,-1.959123611E-1,9.866206169E0
1.190423460E-1,-3.170489892E-2,-1.959123611E-1,9.868598938E0
1.214869810E-1,-4.845465720E-2,-1.791625917E-1,9.844670296E0
1.239322940E-1,-4.845465720E-2,-1.839482337E-1,9.870991707E0
1.263767730E-1,-3.170489892E-2,-1.863410622E-1,9.851848602E0
1.288205750E-1,-3.649054468E-2,-1.791625917E-1,9.856635094E0
1.312651060E-1,-6.071787328E-2,-2.030908167E-1,9.875777245E0
1.337105230E-1,-4.845465720E-2,-1.935195327E-1,9.887741089E0
1.361550020E-1,-4.127619043E-2,-1.959123611E-1,9.873384476E0
1.385987520E-1,-2.931207791E-2,-2.078764737E-1,9.899705887E0
1.410432830E-1,-2.213360928E-2,-2.006980032E-1,9.868598938E0
1.434887000E-1,-2.931207791E-2,-1.863410622E-1,9.890133858E0
1.459331790E-1,-3.888336942E-2,-1.839482337E-1,9.885348320E0
1.483769290E-1,-3.409772366E-2,-2.078764737E-1,9.868598938E0
1.508215650E-1,-1.734796353E-2,-1.863410622E-1,9.863813400E0
1.532668770E-1,-3.888336942E-2,-1.791625917E-1,9.885348320E0
1.557113560E-1,-4.127619043E-2,-2.126621157E-1,9.909276962E0
1.581551580E-1,-5.563312769E-2,-1.935195327E-1,9.897313118E0
1.605996900E-1,-5.563312769E-2,-1.767697781E-1,9.892526627E0
1.630450540E-1,-5.563312769E-2,-1.791625917E-1,9.892526627E0
1.654895850E-1,-4.366901144E-2,-1.863410622E-1,9.890133858E0
1.679333350E-1,-3.409772366E-2,-2.006980032E-1,9.890133858E0
1.703778670E-1,-3.409772366E-2,-1.863410622E-1,9.880562782E0
1.728232830E-1,-3.409772366E-2,-1.911267042E-1,9.873384476E0
1.752677630E-1,-5.563312769E-2,-1.839482337E-1,9.885348320E0
1.777115130E-1,-6.789634377E-2,-1.767697781E-1,9.880562782E0
1.801561480E-1,-4.606183618E-2,-1.959123611E-1,9.861420631E0
1.826014600E-1,-3.888336942E-2,-1.863410622E-1,9.892526627E0
1.850459400E-1,-4.606183618E-2,-2.006980032E-1,9.890133858E0
1.874896900E-1,-6.789634377E-2,-1.935195327E-1,9.887741089E0
1.899343250E-1,-4.606183618E-2,-1.863410622E-1,9.863813400E0
1.923796380E-1,-5.563312769E-2,-1.935195327E-1,9.892526627E0
1.948241690E-1,-3.888336942E-2,-1.911267042E-1,9.866206169E0
1.972679190E-1,-3.888336942E-2,-2.006980032E-1,9.875777245E0
1.997124500E-1,-5.832505226E-2,-1.935195327E-1,9.863813400E0
2.021578670E-1,-3.170489892E-2,-1.911267042E-1,9.870991707E0
2.046023460E-1,-2.452643216E-2,-1.863410622E-1,9.887741089E0
2.070460960E-1,-4.606183618E-2,-2.054836452E-1,9.885348320E0
2.094907310E-1,-3.649054468E-2,-1.935195327E-1,9.880562782E0
2.119360440E-1,-4.127619043E-2,-2.006980032E-1,9.892526627E0
2.143805230E-1,-4.127619043E-2,-1.959123611E-1,9.882955551E0
2.168243250E-1,-4.127619043E-2,-1.839482337E-1,9.899705887E0
2.192688560E-1,-4.606183618E-2,-1.959123611E-1,9.904491425E0
2.217142210E-1,-5.832505226E-2,-2.054836452E-1,9.906884193E0
2.241587520E-1,-2.931207791E-2,-1.863410622E-1,9.904491425E0
2.266025020E-1,-2.931207791E-2,-2.102692872E-1,9.899705887E0
2.290470330E-1,-2.691925503E-2,-1.839482337E-1,9.894919395E0
2.314924500E-1,-2.452643216E-2,-2.054836452E-1,9.861420631E0
2.339369290E-1,-4.366901144E-2,-1.911267042E-1,9.873384476E0
2.363806790E-1,-3.170489892E-2,-2.126621157E-1,9.892526627E0
2.388252100E-1,-3.888336942E-2,-1.983051747E-1,9.890133858E0
2.412706270E-1,-3.170489892E-2,-1.767697781E-1,9.856635094E0
2.437151060E-1,-5.084748194E-2,-1.791625917E-1,9.894919395E0
2.461588560E-1,-4.366901144E-2,-1.839482337E-1,9.851848602E0
2.486034920E-1,-3.409772366E-2,-1.743769497E-1,9.873384476E0
2.510488040E-1,-1.734796353E-2,-1.983051747E-1,9.892526627E0
2.534933350E-1,-4.606183618E-2,-1.959123611E-1,9.906884193E0
2.559370850E-1,-5.832505226E-2,-1.911267042E-1,9.866206169E0
2.583816170E-1,-3.888336942E-2,-2.054836452E-1,9.899705887E0
2.608270330E-1,-4.127619043E-2,-1.743769497E-1,9.897313118E0
2.632715130E-1,-2.452643216E-2,-1.959123611E-1,9.902098656E0
2.657152630E-1,-4.845465720E-2,-2.078764737E-1,9.880562782E0
2.681597940E-1,-2.691925503E-2,-2.006980032E-1,9.902098656E0
2.706052100E-1,-4.127619043E-2,-1.839482337E-1,9.885348320E0
2.730496900E-1,-1.974078640E-2,-2.198405862E-1,9.887741089E0
2.754934400E-1,-5.563312769E-2,-1.839482337E-1,9.890133858E0
2.779380750E-1,-4.845465720E-2,-2.030908167E-1,9.849455833E0
2.803833880E-1,-3.409772366E-2,-1.911267042E-1,9.885348320E0
2.828279190E-1,-5.324030295E-2,-1.695913076E-1,9.873384476E0
2.852716690E-1,-4.845465720E-2,-1.935195327E-1,9.890133858E0
2.877162000E-1,-3.888336942E-2,-2.126621157E-1,9.899705887E0
2.901616170E-1,-4.845465720E-2,-1.911267042E-1,9.899705887E0
2.926060960E-1,-4.366901144E-2,-1.959123611E-1,9.890133858E0
2.950498460E-1,-3.409772366E-2,-2.006980032E-1,9.906884193E0
2.974944810E-1,-4.366901144E-2,-1.959123611E-1,9.878170013E0
2.999397940E-1,-3.649054468E-2,-2.006980032E-1,9.861420631E0
3.023842730E-1,-5.084748194E-2,-2.102692872E-1,9.897313118E0
3.048280230E-1,-1.256231871E-2,-1.791625917E-1,9.878170013E0
3.072726580E-1,-3.649054468E-2,-1.959123611E-1,9.875777245E0
3.097179710E-1,-2.452643216E-2,-2.030908167E-1,9.894919395E0
3.121625020E-1,-2.691925503E-2,-1.959123611E-1,9.870991707E0
3.146062520E-1,-6.311069429E-2,-1.839482337E-1,9.873384476E0
3.170507830E-1,-4.366901144E-2,-1.983051747E-1,9.885348320E0
3.194962000E-1,-5.563312769E-2,-2.030908167E-1,9.882955551E0
3.219406790E-1,-4.366901144E-2,-1.935195327E-1,9.859027863E0
3.243844290E-1,-5.324030295E-2,-2.078764737E-1,9.890133858E0
3.268289600E-1,-3.409772366E-2,-1.959123611E-1,9.892526627E0
3.292743770E-1,-3.170489892E-2,-2.006980032E-1,9.890133858E0
3.317188560E-1,-6.071787328E-2,-2.222333997E-1,9.880562782E0
3.341626580E-1,-5.563312769E-2,-1.839482337E-1,9.885348320E0
3.366071900E-1,-5.324030295E-2,-1.983051747E-1,9.902098656E0
3.390526060E-1,-4.366901144E-2,-2.006980032E-1,9.880562782E0
3.414970850E-1,-6.311069429E-2,-2.030908167E-1,9.885348320E0
3.439408350E-1,-5.563312769E-2,-2.006980032E-1,9.890133858E0
3.463853670E-1,-5.563312769E-2,-1.935195327E-1,9.892526627E0
3.488307830E-1,-2.691925503E-2,-1.887338907E-1,9.892526627E0
3.512752630E-1,-3.170489892E-2,-2.078764737E-1,9.875777245E0
3.537190130E-1,-5.324030295E-2,-1.983051747E-1,9.885348320E0
3.561635440E-1,-2.452643216E-2,-1.959123611E-1,9.859027863E0
3.586089600E-1,-4.366901144E-2,-2.006980032E-1,9.859027863E0
3.610534400E-1,-4.366901144E-2,-1.863410622E-1,9.885348320E0
3.634971900E-1,-3.409772366E-2,-1.983051747E-1,9.870991707E0
3.659418250E-1,-4.845465720E-2,-2.030908167E-1,9.897313118E0
3.683871380E-1,-4.127619043E-2,-1.887338907E-1,9.880562782E0
3.708316690E-1,-3.888336942E-2,-1.983051747E-1,9.887741089E0
3.732754190E-1,-4.366901144E-2,-1.959123611E-1,9.878170013E0
3.757199500E-1,-4.127619043E-2,-2.030908167E-1,9.875777245E0
3.781653670E-1,-2.691925503E-2,-1.959123611E-1,9.897313118E0
3.806098460E-1,-3.888336942E-2,-1.695913076E-1,9.861420631E0
3.830535960E-1,-3.409772366E-2,-1.839482337E-1,9.873384476E0
3.854981270E-1,-3.170489892E-2,-2.030908167E-1,9.890133858E0
3.879435440E-1,-5.084748194E-2,-2.006980032E-1,9.894919395E0
3.903880230E-1,-6.071787328E-2,-1.983051747E-1,9.882955551E0
3.928317730E-1,-4.845465720E-2,-1.983051747E-1,9.894919395E0
3.952764080E-1,-3.409772366E-2,-1.839482337E-1,9.897313118E0
3.977217210E-1,-2.452643216E-2,-2.054836452E-1,9.882955551E0
4.001662520E-1,-4.845465720E-2,-1.767697781E-1,9.899705887E0
4.026100020E-1,-4.845465720E-2,-1.911267042E-1,9.892526627E0
4.050545330E-1,-4.127619043E-2,-2.006980032E-1,9.894919395E0
4.074999500E-1,-2.931207791E-2,-1.863410622E-1,9.878170013E0
4.099444290E-1,-3.409772366E-2,-1.863410622E-1,9.873384476E0
4.123881790E-1,-5.084748194E-2,-1.887338907E-1,9.892526627E0
4.148327100E-1,-4.366901144E-2,-1.935195327E-1,9.887741089E0
4.172781270E-1,-3.888336942E-2,-2.150549293E-1,9.897313118E0
4.197226060E-1,-5.832505226E-2,-1.959123611E-1,9.894919395E0
4.221663560E-1,-3.649054468E-2,-1.863410622E-1,9.885348320E0
4.246109920E-1,-2.691925503E-2,-2.054836452E-1,9.882955551E0
4.270563040E-1,-4.127619043E-2,-2.030908167E-1,9.861420631E0
4.295008350E-1,-5.324030295E-2,-1.911267042E-1,9.875777245E0
4.319445850E-1,-4.366901144E-2,-2.126621157E-1,9.873384476E0
4.343891170E-1,-4.845465720E-2,-2.030908167E-1,9.892526627E0
4.368345330E-1,-4.606183618E-2,-1.719841212E-1,9.880562782E0
4.392790130E-1,-5.084748194E-2,-2.078764737E-1,9.890133858E0
4.417227630E-1,-4.845465720E-2,-1.959123611E-1,9.882955551E0
4.441673980E-1,-4.366901144E-2,-1.983051747E-1,9.892526627E0
4.466127100E-1,-3.888336942E-2,-1.863410622E-1,9.885348320E0
4.490571900E-1,-3.170489892E-2,-1.863410622E-1,9.887741089E0
4.515009920E-1,-5.832505226E-2,-1.959123611E-1,9.859027863E0
4.539455230E-1,-4.606183618E-2,-1.791625917E-1,9.861420631E0
4.563908880E-1,-5.324030295E-2,-1.935195327E-1,9.887741089E0
4.588354190E-1,-2.931207791E-2,-2.054836452E-1,9.885348320E0
4.612791690E-1,-3.409772366E-2,-1.935195327E-1,9.904491425E0
4.637237000E-1,-4.845465720E-2,-2.054836452E-1,9.887741089E0
4.661691170E-1,-4.366901144E-2,-2.006980032E-1,9.887741089E0
4.686135960E-1,-2.213360928E-2,-1.935195327E-1,9.882955551E0
4.710573460E-1,-3.649054468E-2,-1.743769497E-1,9.897313118E0
4.735019810E-1,-5.084748194E-2,-1.863410622E-1,9.885348320E0
4.759472940E-1,-5.084748194E-2,-1.839482337E-1,9.897313118E0
4.783917730E-1,-2.691925503E-2,-1.911267042E-1,9.914062500E0
4.808355750E-1,-3.170489892E-2,-2.006980032E-1,9.882955551E0
4.832801060E-1,-4.366901144E-2,-1.863410622E-1,9.906884193E0
4.857254710E-1,-3.888336942E-2,-2.006980032E-1,9.875777245E0
4.881700020E-1,-2.691925503E-2,-2.006980032E-1,9.880562782E0
4.906137520E-1,-3.888336942E-2,-1.839482337E-1,9.870991707E0
4.930582830E-1,-3.409772366E-2,-1.911267042E-1,9.873384476E0
4.955037000E-1,-3.649054468E-2,-2.006980032E-1,9.902098656E0
4.979481790E-1,-4.127619043E-2,-1.983051747E-1,9.868598938E0
5.003919290E-1,-4.606183618E-2,-1.863410622E-1,9.890133858E0
5.028365650E-1,-2.991028363E-3,-2.030908167E-1,9.861420631E0
5.052818770E-1,-4.845465720E-2,-2.054836452E-1,9.890133858E0
5.077264080E-1,-5.084748194E-2,-1.911267042E-1,9.906884193E0
5.101701580E-1,-5.324030295E-2,-2.054836452E-1,9.894919395E0
5.126146900E-1,-4.366901144E-2,-1.863410622E-1,9.897313118E0
5.150600540E-1,-3.888336942E-2,-1.935195327E-1,9.870991707E0
5.175045850E-1,-2.931207791E-2,-1.983051747E-1,9.897313118E0
5.199483350E-1,-5.324030295E-2,-1.959123611E-1,9.866206169E0
5.223928670E-1,-3.170489892E-2,-1.743769497E-1,9.870991707E0
5.248382830E-1,-3.649054468E-2,-1.767697781E-1,9.897313118E0
5.272827630E-1,-4.845465720E-2,-2.006980032E-1,9.873384476E0
5.297265130E-1,-5.084748194E-2,-2.054836452E-1,9.899705887E0
5.321711480E-1,-2.691925503E-2,-1.935195327E-1,9.851848602E0
5.346164600E-1,-5.563312769E-2,-1.791625917E-1,9.906884193E0
5.370609400E-1,-3.409772366E-2,-2.030908167E-1,9.878170013E0
5.395047420E-1,-4.366901144E-2,-2.030908167E-1,9.861420631E0
5.419492730E-1,-4.366901144E-2,-1.887338907E-1,9.892526627E0
5.443946900E-1,-3.409772366E-2,-1.767697781E-1,9.868598938E0
5.468391690E-1,-4.366901144E-2,-1.863410622E-1,9.897313118E0
5.492829190E-1,-3.409772366E-2,-1.959123611E-1,9.890133858E0
5.517274500E-1,-5.084748194E-2,-2.006980032E-1,9.902098656E0
5.541728670E-1,-3.888336942E-2,-2.006980032E-1,9.882955551E0
5.566173460E-1,-2.691925503E-2,-1.887338907E-1,9.875777245E0
5.590610960E-1,-4.127619043E-2,-1.815554202E-1,9.880562782E0
5.615057310E-1,-4.127619043E-2,-1.791625917E-1,9.880562782E0
5.639510440E-1,-4.366901144E-2,-1.935195327E-1,9.897313118E0
5.663955750E-1,-3.170489892E-2,-1.911267042E-1,9.851848602E0
5.688393250E-1,-3.409772366E-2,-1.911267042E-1,9.873384476E0
5.712838560E-1,-4.366901144E-2,-2.054836452E-1,9.880562782E0
5.737292730E-1,-4.127619043E-2,-2.054836452E-1,9.870991707E0
5.761737520E-1,-3.888336942E-2,-1.839482337E-1,9.863813400E0
5.786175020E-1,-5.324030295E-2,-1.959123611E-1,9.861420631E0
5.810620330E-1,-2.931207791E-2,-1.983051747E-1,9.890133858E0
5.835074500E-1,-2.691925503E-2,-1.911267042E-1,9.897313118E0
5.859519290E-1,-3.888336942E-2,-1.839482337E-1,9.873384476E0
5.883956790E-1,-4.366901144E-2,-1.911267042E-1,9.875777245E0
5.908403150E-1,-3.888336942E-2,-1.887338907E-1,9.882955551E0
5.932856270E-1,-4.845465720E-2,-1.791625917E-1,9.911669731E0
5.957301580E-1,-3.649054468E-2,-1.839482337E-1,9.892526627E0
5.981739080E-1,-4.606183618E-2,-2.030908167E-1,9.892526627E0
6.006184400E-1,-4.366901144E-2,-2.006980032E-1,9.880562782E0
6.030638560E-1,-4.606183618E-2,-1.791625917E-1,9.851848602E0
6.055083350E-1,-4.127619043E-2,-1.815554202E-1,9.868598938E0
6.079520850E-1,-4.366901144E-2,-1.935195327E-1,9.902098656E0
6.103966170E-1,-4.606183618E-2,-1.887338907E-1,9.894919395E0
6.128420330E-1,-5.324030295E-2,-1.887338907E-1,9.890133858E0
6.152865130E-1,-4.845465720E-2,-1.887338907E-1,9.868598938E0
6.177302630E-1,-5.563312769E-2,-1.887338907E-1,9.892526627E0
6.201748980E-1,-3.409772366E-2,-1.959123611E-1,9.880562782E0
6.226202100E-1,-6.550352275E-2,-1.887338907E-1,9.873384476E0
6.250647420E-1,-4.366901144E-2,-2.126621157E-1,9.878170013E0
6.275084920E-1,-4.127619043E-2,-1.887338907E-1,9.887741089E0
6.299530230E-1,-5.084748194E-2,-1.839482337E-1,9.887741089E0
6.323984400E-1,-3.888336942E-2,-1.935195327E-1,9.863813400E0
6.348429190E-1,-4.606183618E-2,-2.006980032E-1,9.894919395E0
6.372866690E-1,-4.366901144E-2,-1.839482337E-1,9.909276962E0
6.397313040E-1,-5.084748194E-2,-1.959123611E-1,9.868598938E0
6.421766170E-1,-5.324030295E-2,-1.887338907E-1,9.882955551E0
6.446210960E-1,-4.127619043E-2,-1.959123611E-1,9.875777245E0
6.470648980E-1,-2.691925503E-2,-2.054836452E-1,9.887741089E0
6.495094290E-1,-4.845465720E-2,-1.959123611E-1,9.887741089E0
6.519548460E-1,-4.366901144E-2,-1.815554202E-1,9.866206169E0
6.543993250E-1,-5.324030295E-2,-1.959123611E-1,9.880562782E0
6.568430750E-1,-2.931207791E-2,-2.030908167E-1,9.873384476E0
6.592876060E-1,-2.452643216E-2,-2.006980032E-1,9.861420631E0
6.617330230E-1,-3.170489892E-2,-1.887338907E-1,9.899705887E0
6.641775020E-1,-2.213360928E-2,-1.911267042E-1,9.899705887E0
6.666212520E-1,-3.649054468E-2,-2.006980032E-1,9.897313118E0
6.690658880E-1,-4.845465720E-2,-2.030908167E-1,9.885348320E0
6.715112000E-1,-3.409772366E-2,-2.054836452E-1,9.882955551E0
6.739557310E-1,-4.127619043E-2,-1.959123611E-1,9.890133858E0
6.763994810E-1,-4.845465720E-2,-1.839482337E-1,9.897313118E0
6.788440130E-1,-5.084748194E-2,-1.935195327E-1,9.885348320E0
6.812893770E-1,-4.845465720E-2,-2.054836452E-1,9.878170013E0
6.837339080E-1,-5.324030295E-2,-2.198405862E-1,9.894919395E0
6.861776580E-1,-5.563312769E-2,-2.030908167E-1,9.875777245E0
6.886221900E-1,-5.084748194E-2,-1.983051747E-1,9.892526627E0
6.910676060E-1,-4.127619043E-2,-1.767697781E-1,9.859027863E0
6.935120850E-1,-4.366901144E-2,-1.983051747E-1,9.880562782E0
6.959558350E-1,-4.845465720E-2,-2.006980032E-1,9.890133858E0
6.984004710E-1,-5.832505226E-2,-1.863410622E-1,9.885348320E0
7.008457830E-1,-4.845465720E-2,-1.863410622E-1,9.861420631E0
7.032903150E-1,-4.127619043E-2,-1.959123611E-1,9.885348320E0
7.057340650E-1,-4.127619043E-2,-1.911267042E-1,9.892526627E0
7.081785960E-1,-3.649054468E-2,-1.815554202E-1,9.882955551E0
7.106240130E-1,-4.845465720E-2,-1.839482337E-1,9.882955551E0
7.130684920E-1,-4.366901144E-2,-1.959123611E-1,9.885348320E0
7.155122420E-1,-3.649054468E-2,-1.911267042E-1,9.909276962E0
7.179567730E-1,-2.931207791E-2,-1.959123611E-1,9.880562782E0
7.204021900E-1,-5.832505226E-2,-2.102692872E-1,9.902098656E0
7.228466690E-1,-5.324030295E-2,-1.911267042E-1,9.890133858E0
7.252904190E-1,-5.324030295E-2,-1.983051747E-1,9.873384476E0
7.277350540E-1,-4.127619043E-2,-1.959123611E-1,9.899705887E0
7.301803670E-1,-3.888336942E-2,-1.887338907E-1,9.870991707E0
7.326248980E-1,-4.845465720E-2,-1.839482337E-1,9.885348320E0
7.350686480E-1,-6.071787328E-2,-2.054836452E-1,9.863813400E0
7.375131790E-1,-3.409772366E-2,-1.887338907E-1,9.885348320E0
7.399585960E-1,-3.649054468E-2,-1.911267042E-1,9.844670296E0
7.424030750E-1,-2.213360928E-2,-1.959123611E-1,9.892526627E0
7.448468250E-1,-3.170489892E-2,-1.959123611E-1,9.897313118E0
7.472914600E-1,-4.127619043E-2,-1.911267042E-1,9.878170013E0
7.497367730E-1,-5.084748194E-2,-1.791625917E-1,9.873384476E0
7.521813040E-1,-5.563312769E-2,-1.863410622E-1,9.914062500E0
7.546250540E-1,-1.734796353E-2,-1.863410622E-1,9.887741089E0
7.570695850E-1,-4.845465720E-2,-1.983051747E-1,9.882955551E0
7.595149500E-1,-5.324030295E-2,-2.030908167E-1,9.868598938E0
7.619594810E-1,-4.127619043E-2,-1.983051747E-1,9.921240807E0
7.644032310E-1,-4.845465720E-2,-1.767697781E-1,9.885348320E0
7.668477630E-1,-4.845465720E-2,-1.887338907E-1,9.856635094E0
7.692931790E-1,-6.789634377E-2,-1.887338907E-1,9.930811882E0
7.717376580E-1,-3.649054468E-2,-1.863410622E-1,9.882955551E0
7.741814080E-1,-4.127619043E-2,-1.983051747E-1,9.868598938E0
7.766260440E-1,-4.366901144E-2,-1.863410622E-1,9.868598938E0
7.790713560E-1,-5.084748194E-2,-1.887338907E-1,9.916455269E0
7.815158880E-1,-2.931207791E-2,-1.983051747E-1,9.861420631E0
7.839596380E-1,-4.845465720E-2,-1.791625917E-1,9.890133858E0
7.864041690E-1,-4.606183618E-2,-2.102692872E-1,9.875777245E0
7.888495850E-1,-4.366901144E-2,-2.078764737E-1,9.873384476E0
7.912940650E-1,-4.366901144E-2,-1.911267042E-1,9.875777245E0
7.937378150E-1,-4.606183618E-2,-1.935195327E-1,9.859027863E0
7.961823460E-1,-5.324030295E-2,-2.030908167E-1,9.933204651E0
7.986277630E-1,-2.691925503E-2,-2.078764737E-1,9.878170013E0
8.010722420E-1,-4.127619043E-2,-1.959123611E-1,9.868598938E0
8.035159920E-1,-4.127619043E-2,-1.983051747E-1,9.904491425E0
8.059606270E-1,-3.649054468E-2,-1.863410622E-1,9.904491425E0
8.084059400E-1,-4.127619043E-2,-1.983051747E-1,9.870991707E0
8.108504710E-1,-6.071787328E-2,-1.935195327E-1,9.856635094E0
8.132942210E-1,-4.606183618E-2,-1.887338907E-1,9.933204651E0
8.157387520E-1,-2.931207791E-2,-1.791625917E-1,9.880562782E0
8.181841690E-1,-5.563312769E-2,-1.959123611E-1,9.847063065E0
8.206286480E-1,-4.845465720E-2,-2.078764737E-1,9.878170013E0
8.230723980E-1,-4.845465720E-2,-2.006980032E-1,9.918848038E0
8.255169290E-1,-3.409772366E-2,-1.959123611E-1,9.904491425E0
8.279623460E-1,-5.084748194E-2,-1.839482337E-1,9.839884758E0
8.304068250E-1,-4.127619043E-2,-1.719841212E-1,9.868598938E0
8.328506270E-1,-4.127619043E-2,-1.911267042E-1,9.909276962E0
8.352951580E-1,-5.832505226E-2,-1.839482337E-1,9.851848602E0
8.377405230E-1,-2.691925503E-2,-2.006980032E-1,9.892526627E0
8.401850540E-1,-4.606183618E-2,-1.935195327E-1,9.875777245E0
8.426288040E-1,-2.691925503E-2,-2.006980032E-1,9.878170013E0
8.450733350E-1,-3.649054468E-2,-1.935195327E-1,9.882955551E0
8.475187520E-1,-4.366901144E-2,-1.863410622E-1,9.847063065E0
8.499632310E-1,-4.127619043E-2,-1.935195327E-1,9.892526627E0
8.524069810E-1,-5.084748194E-2,-2.006980032E-1,9.856635094E0
8.548516170E-1,-4.366901144E-2,-1.863410622E-1,9.875777245E0
8.572969290E-1,-5.324030295E-2,-1.911267042E-1,9.880562782E0
8.597414600E-1,-4.845465720E-2,-2.126621157E-1,9.878170013E0
8.621852100E-1,-4.127619043E-2,-1.911267042E-1,9.897313118E0
8.646297420E-1,-6.311069429E-2,-1.791625917E-1,9.859027863E0
8.670751580E-1,-3.888336942E-2,-1.911267042E-1,9.887741089E0
8.695196380E-1,-3.888336942E-2,-1.887338907E-1,9.882955551E0
8.719633880E-1,-3.649054468E-2,-2.006980032E-1,9.887741089E0
8.744079190E-1,-3.888336942E-2,-1.911267042E-1,9.899705887E0
8.768533350E-1,-3.888336942E-2,-1.959123611E-1,9.890133858E0
8.792978150E-1,-4.366901144E-2,-2.102692872E-1,9.926026344E0
8.817415650E-1,-4.366901144E-2,-1.959123611E-1,9.885348320E0
8.841862000E-1,-4.606183618E-2,-1.767697781E-1,9.899705887E0
8.866315130E-1,-5.563312769E-2,-1.887338907E-1,9.892526627E0
8.890760440E-1,-5.084748194E-2,-2.198405862E-1,9.885348320E0
8.915197940E-1,-5.324030295E-2,-1.935195327E-1,9.878170013E0
8.939643250E-1,-3.649054468E-2,-1.839482337E-1,9.868598938E0
8.964097420E-1,-3.888336942E-2,-1.935195327E-1,9.856635094E0
8.988542210E-1,-3.888336942E-2,-2.030908167E-1,9.866206169E0
9.012979710E-1,-3.170489892E-2,-2.222333997E-1,9.899705887E0
9.037425020E-1,-5.084748194E-2,-2.030908167E-1,9.866206169E0
9.061879190E-1,-5.832505226E-2,-2.006980032E-1,9.861420631E0
9.086323980E-1,-4.845465720E-2,-1.935195327E-1,9.870991707E0
9.110762000E-1,-5.084748194E-2,-2.054836452E-1,9.904491425E0
9.135207310E-1,-2.931207791E-2,-2.054836452E-1,9.873384476E0
9.159660960E-1,-2.691925503E-2,-1.983051747E-1,9.870991707E0
9.184106270E-1,-3.888336942E-2,-1.911267042E-1,9.882955551E0
9.208543770E-1,-4.845465720E-2,-1.839482337E-1,9.909276962E0
9.232989080E-1,-4.127619043E-2,-1.959123611E-1,9.868598938E0
9.257443250E-1,-4.366901144E-2,-1.839482337E-1,9.880562782E0
9.281888040E-1,-3.888336942E-2,-1.671984792E-1,9.882955551E0
9.306325540E-1,-5.563312769E-2,-1.839482337E-1,9.849455833E0
9.330771900E-1,-6.311069429E-2,-1.743769497E-1,9.899705887E0
9.355225020E-1,-6.071787328E-2,-1.839482337E-1,9.885348320E0
9.379670330E-1,-4.366901144E-2,-2.030908167E-1,9.882955551E0
9.404107830E-1,-5.563312769E-2,-1.983051747E-1,9.873384476E0
9.428553150E-1,-3.649054468E-2,-1.959123611E-1,9.885348320E0
9.453007310E-1,-3.409772366E-2,-2.102692872E-1,9.892526627E0
9.477452100E-1,-4.606183618E-2,-1.983051747E-1,9.866206169E0
9.501889600E-1,-4.127619043E-2,-2.174477577E-1,9.878170013E0
9.526334920E-1,-3.409772366E-2,-2.030908167E-1,9.897313118E0
9.550789080E-1,-2.452643216E-2,-1.911267042E-1,9.894919395E0
9.575233880E-1,-5.324030295E-2,-2.030908167E-1,9.847063065E0
9.599671900E-1,-2.691925503E-2,-1.935195327E-1,9.878170013E0
9.624117210E-1,-4.366901144E-2,-2.030908167E-1,9.866206169E0
9.648570850E-1,-5.832505226E-2,-1.911267042E-1,9.885348320E0
9.673016170E-1,-4.127619043E-2,-2.006980032E-1,9.880562782E0
9.697453670E-1,-2.931207791E-2,-1.863410622E-1,9.882955551E0
9.721898980E-1,-5.084748194E-2,-1.911267042E-1,9.902098656E0
9.746353150E-1,-3.170489892E-2,-2.030908167E-1,9.844670296E0
9.770797940E-1,-4.606183618E-2,-1.863410622E-1,9.890133858E0
9.795235440E-1,-4.845465720E-2,-1.863410622E-1,9.902098656E0
9.819681790E-1,-4.606183618E-2,-1.887338907E-1,9.918848038E0
9.844134920E-1,-4.845465720E-2,-2.030908167E-1,9.873384476E0
9.868580230E-1,-1.495514158E-2,-1.624128371E-1,9.863813400E0
9.893017730E-1,-4.606183618E-2,-2.006980032E-1,9.868598938E0
9.917463040E-1,-4.606183618E-2,-2.006980032E-1,9.870991707E0
9.941917210E-1,-3.649054468E-2,-1.839482337E-1,9.914062500E0
9.966362000E-1,-4.366901144E-2,-1.863410622E-1,9.880562782E0
9.990799500E-1,-4.366901144E-2,-2.174477577E-1,9.887741089E0
1.001524481E0,-4.127619043E-2,-2.126621157E-1,9.870991707E0
1.003969898E0,-5.084748194E-2,-1.887338907E-1,9.892526627E0
1.006414377E0,-6.550352275E-2,-1.839482337E-1,9.868598938E0
1.008858179E0,-5.832505226E-2,-2.174477577E-1,9.897313118E0
1.011302710E0,-4.845465720E-2,-1.863410622E-1,9.918848038E0
1.013748075E0,-5.324030295E-2,-2.006980032E-1,9.906884193E0
1.016192606E0,-5.084748194E-2,-1.983051747E-1,9.851848602E0
1.018636356E0,-6.789634377E-2,-2.030908167E-1,9.887741089E0
1.021080888E0,-3.888336942E-2,-1.815554202E-1,9.875777245E0
1.023526304E0,-5.832505226E-2,-1.887338907E-1,9.835099220E0
1.025970783E0,-4.366901144E-2,-2.150549293E-1,9.916455269E0
1.028414533E0,4.187439568E-3,-2.030908167E-1,9.866206169E0
1.030859169E0,-4.127619043E-2,-1.959123611E-1,9.914062500E0
1.033304481E0,-5.084748194E-2,-1.839482337E-1,9.837491989E0
1.035749013E0,-5.084748194E-2,-2.078764737E-1,9.868598938E0
1.038192763E0,-5.084748194E-2,-1.815554202E-1,9.882955551E0
1.040637294E0,-2.931207791E-2,-1.959123611E-1,9.916455269E0
1.043082710E0,-2.931207791E-2,-1.791625917E-1,9.859027863E0
1.045527190E0,-7.746763527E-2,-2.126621157E-1,9.930811882E0
1.047970940E0,-4.366901144E-2,-1.887338907E-1,9.880562782E0
1.050415471E0,-3.649054468E-2,-2.030908167E-1,9.835099220E0
1.052860888E0,-5.324030295E-2,-1.767697781E-1,9.914062500E0
1.055305367E0,-2.691925503E-2,-1.815554202E-1,9.851848602E0
1.057749117E0,-4.366901144E-2,-1.863410622E-1,9.937990189E0
1.060193752E0,-3.170489892E-2,-1.887338907E-1,9.914062500E0
1.062639065E0,-1.734796353E-2,-2.102692872E-1,9.906884193E0
1.065083596E0,-3.409772366E-2,-1.863410622E-1,9.844670296E0
1.067527346E0,-3.888336942E-2,-1.983051747E-1,9.866206169E0
1.069971877E0,-2.213360928E-2,-1.671984792E-1,9.823135376E0
1.072417294E0,-3.888336942E-2,-1.935195327E-1,9.892526627E0
1.074861773E0,-3.888336942E-2,-2.174477577E-1,9.933204651E0
1.077305523E0,-1.256231871E-2,-2.054836452E-1,9.844670296E0
1.079750158E0,-6.311069429E-2,-1.863410622E-1,9.897313118E0
1.082195471E0,-4.606183618E-2,-1.791625917E-1,9.851848602E0
1.084640002E0,-7.507480681E-2,-2.006980032E-1,9.847063065E0
1.087083752E0,-5.563312769E-2,-1.959123611E-1,9.892526627E0
1.089528283E0,-3.170489892E-2,-1.983051747E-1,9.882955551E0
1.091973700E0,-5.324030295E-2,-2.006980032E-1,9.887741089E0
1.094418179E0,-5.832505226E-2,-2.102692872E-1,9.911669731E0
1.096861929E0,-3.170489892E-2,-2.006980032E-1,9.847063065E0
1.099306460E0,-5.084748194E-2,-1.887338907E-1,9.870991707E0
1.101751877E0,-2.691925503E-2,-2.006980032E-1,9.875777245E0
1.104196356E0,-2.931207791E-2,-2.030908167E-1,9.875777245E0
1.106640106E0,-5.563312769E-2,-2.006980032E-1,9.952347755E0
1.109084742E0,-4.606183618E-2,-1.887338907E-1,9.897313118E0
1.111530054E0,-3.649054468E-2,-2.006980032E-1,9.890133858E0
1.113974585E0,-4.845465720E-2,-2.126621157E-1,9.878170013E0
1.116418335E0,-5.563312769E-2,-1.815554202E-1,9.859027863E0
1.118862867E0,-5.084748194E-2,-2.078764737E-1,9.880562782E0
1.121308283E0,-2.931207791E-2,-1.839482337E-1,9.882955551E0
1.123752763E0,-3.170489892E-2,-2.006980032E-1,9.875777245E0
1.126196513E0,-6.550352275E-2,-2.174477577E-1,9.899705887E0
1.128641148E0,-2.452643216E-2,-1.911267042E-1,9.856635094E0
1.131086460E0,-4.845465720E-2,-2.054836452E-1,9.875777245E0
1.133530992E0,-4.845465720E-2,-2.246262282E-1,9.885348320E0
1.135974742E0,-2.691925503E-2,-1.911267042E-1,9.866206169E0
1.138419273E0,-3.409772366E-2,-1.983051747E-1,9.897313118E0
1.140864690E0,-5.832505226E-2,-2.102692872E-1,9.892526627E0
1.143309169E0,-3.888336942E-2,-2.006980032E-1,9.839884758E0
1.145752919E0,-5.563312769E-2,-2.078764737E-1,9.914062500E0
1.148197450E0,-1.734796353E-2,-2.078764737E-1,9.902098656E0
1.150642867E0,-3.888336942E-2,-2.078764737E-1,9.851848602E0
1.153087346E0,-5.324030295E-2,-1.959123611E-1,9.902098656E0
1.155531096E0,-4.366901144E-2,-2.126621157E-1,9.866206169E0
1.157975731E0,-5.563312769E-2,-1.935195327E-1,9.887741089E0
1.160421044E0,-1.974078640E-2,-1.791625917E-1,9.866206169E0
1.162865575E0,-3.409772366E-2,-1.983051747E-1,9.887741089E0
1.165309325E0,-5.324030295E-2,-1.911267042E-1,9.878170013E0
1.167753856E0,-4.127619043E-2,-1.695913076E-1,9.873384476E0
1.170199273E0,-5.084748194E-2,-2.054836452E-1,9.875777245E0
1.172643752E0,-3.888336942E-2,-1.791625917E-1,9.882955551E0
1.175087502E0,-4.127619043E-2,-2.030908167E-1,9.897313118E0
1.177532138E0,-5.324030295E-2,-2.078764737E-1,9.894919395E0
1.179977450E0,-3.888336942E-2,-2.126621157E-1,9.890133858E0
1.182421981E0,-4.606183618E-2,-2.174477577E-1,9.885348320E0
1.184865731E0,-4.845465720E-2,-1.815554202E-1,9.851848602E0
1.187310263E0,-4.366901144E-2,-1.767697781E-1,9.909276962E0
1.189755679E0,-4.606183618E-2,-2.102692872E-1,9.878170013E0
1.192200158E0,-5.084748194E-2,-1.767697781E-1,9.890133858E0
1.194643908E0,-5.563312769E-2,-1.935195327E-1,9.873384476E0
1.197088440E0,-4.606183618E-2,-1.791625917E-1,9.875777245E0
1.199533856E0,-5.563312769E-2,-2.006980032E-1,9.863813400E0
1.201978335E0,-4.845465720E-2,-1.887338907E-1,9.885348320E0
1.204422085E0,-4.845465720E-2,-1.935195327E-1,9.894919395E0
1.206866721E0,-4.606183618E-2,-2.102692872E-1,9.887741089E0
1.209312033E0,-4.127619043E-2,-2.078764737E-1,9.894919395E0
1.211756565E0,-3.888336942E-2,-1.863410622E-1,9.875777245E0
1.214200315E0,-4.127619043E-2,-2.054836452E-1,9.870991707E0
1.216644846E0,-6.550352275E-2,-1.863410622E-1,9.868598938E0
1.219090263E0,-2.691925503E-2,-2.126621157E-1,9.885348320E0
1.221534742E0,-3.888336942E-2,-2.054836452E-1,9.904491425E0
1.223978492E0,-3.409772366E-2,-1.911267042E-1,9.854242325E0
1.226423127E0,-6.550352275E-2,-1.863410622E-1,9.885348320E0
1.228868440E0,-4.366901144E-2,-1.743769497E-1,9.882955551E0
1.231312971E0,-2.452643216E-2,-2.006980032E-1,9.882955551E0
1.233756721E0,-3.409772366E-2,-1.935195327E-1,9.882955551E0
1.236201252E0,-4.127619043E-2,-1.983051747E-1,9.911669731E0
1.238646669E0,-5.324030295E-2,-1.863410622E-1,9.885348320E0
1.241091148E0,-6.550352275E-2,-2.174477577E-1,9.890133858E0
1.243534898E0,-3.649054468E-2,-2.030908167E-1,9.887741089E0
1.245979429E0,-2.691925503E-2,-1.983051747E-1,9.861420631E0
1.248424846E0,-3.409772366E-2,-1.935195327E-1,9.890133858E0
1.250869325E0,-4.366901144E-2,-1.863410622E-1,9.878170013E0
1.253313127E0,-5.324030295E-2,-1.887338907E-1,9.902098656E0
1.255757658E0,-3.170489892E-2,-1.767697781E-1,9.878170013E0
1.258203023E0,-4.845465720E-2,-1.911267042E-1,9.873384476E0
1.260647554E0,-3.649054468E-2,-1.983051747E-1,9.842277527E0
1.263091304E0,-3.888336942E-2,-1.935195327E-1,9.887741089E0
1.265535835E0,-3.649054468E-2,-1.935195327E-1,9.873384476E0
1.267981252E0,-6.311069429E-2,-1.959123611E-1,9.899705887E0
1.270425731E0,-4.127619043E-2,-1.959123611E-1,9.875777245E0
1.272869481E0,-5.832505226E-2,-1.791625917E-1,9.923633575E0
1.275314117E0,-4.366901144E-2,-2.126621157E-1,9.909276962E0
1.277759429E0,-5.563312769E-2,-2.030908167E-1,9.911669731E0
1.280203960E0,-5.563312769E-2,-1.815554202E-1,9.868598938E0
1.282647710E0,-5.324030295E-2,-1.839482337E-1,9.887741089E0
1.285092242E0,-4.127619043E-2,-1.983051747E-1,9.882955551E0
1.287537658E0,-1.734796353E-2,-1.887338907E-1,9.894919395E0
1.289982138E0,-3.170489892E-2,-1.791625917E-1,9.914062500E0
1.292425888E0,-3.170489892E-2,-1.839482337E-1,9.892526627E0
1.294870523E0,-4.127619043E-2,-1.815554202E-1,9.892526627E0
1.297315835E0,-3.170489892E-2,-1.863410622E-1,9.847063065E0
1.299760367E0,-4.366901144E-2,-1.911267042E-1,9.878170013E0
1.302204117E0,-3.170489892E-2,-2.126621157E-1,9.868598938E0
1.304648648E0,-3.649054468E-2,-2.006980032E-1,9.878170013E0
1.307094065E0,-4.366901144E-2,-1.983051747E-1,9.880562782E0
1.309538544E0,-4.366901144E-2,-1.959123611E-1,9.873384476E0
1.311982294E0,-4.606183618E-2,-1.839482337E-1,9.880562782E0
1.314426825E0,-5.084748194E-2,-1.719841212E-1,9.866206169E0
1.316872242E0,-7.028916478E-2,-2.054836452E-1,9.868598938E0
1.319316721E0,-5.832505226E-2,-1.911267042E-1,9.887741089E0
1.321760471E0,-3.409772366E-2,-2.078764737E-1,9.904491425E0
1.324205106E0,-3.888336942E-2,-1.959123611E-1,9.866206169E0
1.326650419E0,-3.888336942E-2,-1.887338907E-1,9.885348320E0
1.329094950E0,-3.170489892E-2,-1.839482337E-1,9.892526627E0
1.331538700E0,-5.324030295E-2,-1.743769497E-1,9.880562782E0
1.333983231E0,-2.452643216E-2,-1.887338907E-1,9.892526627E0
1.336428648E0,-4.845465720E-2,-1.911267042E-1,9.878170013E0
1.338873127E0,-5.084748194E-2,-1.911267042E-1,9.878170013E0
1.341316877E0,-4.845465720E-2,-1.959123611E-1,9.880562782E0
1.343761513E0,-3.649054468E-2,-1.935195327E-1,9.882955551E0
1.346206825E0,-3.170489892E-2,-1.911267042E-1,9.870991707E0
1.348651356E0,-3.888336942E-2,-1.863410622E-1,9.880562782E0
1.351095106E0,-4.127619043E-2,-1.959123611E-1,9.906884193E0
1.353539638E0,-2.931207791E-2,-1.887338907E-1,9.906884193E0
1.355985054E0,-4.845465720E-2,-1.911267042E-1,9.892526627E0
1.358429533E0,-4.845465720E-2,-1.959123611E-1,9.885348320E0
1.360873283E0,-5.832505226E-2,-2.006980032E-1,9.875777245E0
1.363317815E0,-2.452643216E-2,-1.815554202E-1,9.863813400E0
1.365763231E0,-4.606183618E-2,-1.767697781E-1,9.878170013E0
1.368207710E0,-3.649054468E-2,-1.959123611E-1,9.880562782E0
1.370651460E0,-3.409772366E-2,-1.887338907E-1,9.882955551E0
1.373096096E0,-3.170489892E-2,-1.935195327E-1,9.899705887E0
1.375541408E0,-3.888336942E-2,-1.839482337E-1,9.887741089E0
1.377985940E0,-2.213360928E-2,-2.030908167E-1,9.885348320E0
1.380429690E0,-4.606183618E-2,-2.006980032E-1,9.885348320E0
1.382874221E0,-3.409772366E-2,-2.054836452E-1,9.868598938E0
1.385319638E0,-4.845465720E-2,-1.935195327E-1,9.890133858E0
1.387764117E0,-3.170489892E-2,-1.935195327E-1,9.880562782E0
1.390207867E0,-4.606183618E-2,-1.791625917E-1,9.880562782E0
1.392652502E0,-4.127619043E-2,-1.863410622E-1,9.885348320E0
1.395097815E0,-3.409772366E-2,-2.174477577E-1,9.866206169E0
1.397542346E0,-5.832505226E-2,-2.006980032E-1,9.861420631E0
1.399986096E0,-5.563312769E-2,-2.030908167E-1,9.887741089E0
1.402430627E0,-4.366901144E-2,-1.959123611E-1,9.885348320E0
1.404876044E0,-5.084748194E-2,-1.839482337E-1,9.911669731E0
1.407320523E0,-4.127619043E-2,-2.054836452E-1,9.870991707E0
1.409764273E0,-4.366901144E-2,-1.767697781E-1,9.854242325E0
1.412208804E0,-5.324030295E-2,-1.959123611E-1,9.880562782E0
1.414654221E0,-6.311069429E-2,-1.887338907E-1,9.882955551E0
1.417098700E0,-4.845465720E-2,-2.150549293E-1,9.890133858E0
1.419542502E0,-4.845465720E-2,-2.006980032E-1,9.873384476E0
1.421987033E0,-5.832505226E-2,-1.863410622E-1,9.880562782E0
1.424432398E0,-4.127619043E-2,-2.030908167E-1,9.866206169E0
1.426876929E0,-4.845465720E-2,-1.815554202E-1,9.854242325E0
1.429320679E0,-2.691925503E-2,-1.887338907E-1,9.866206169E0
1.431765210E0,-3.170489892E-2,-1.815554202E-1,9.892526627E0
1.434210627E0,-3.649054468E-2,-2.006980032E-1,9.863813400E0
1.436655106E0,-3.649054468E-2,-2.078764737E-1,9.887741089E0
1.439098856E0,-4.366901144E-2,-1.839482337E-1,9.882955551E0
1.441543492E0,-4.606183618E-2,-1.887338907E-1,9.887741089E0
1.443988804E0,-3.409772366E-2,-1.648056656E-1,9.892526627E0
1.446433335E0,-4.127619043E-2,-2.006980032E-1,9.897313118E0
1.448877085E0,-5.324030295E-2,-1.935195327E-1,9.885348320E0
1.451321617E0,-7.268198580E-2,-1.863410622E-1,9.875777245E0
1.453767033E0,-5.324030295E-2,-1.863410622E-1,9.890133858E0
1.456211513E0,-5.563312769E-2,-1.911267042E-1,9.902098656E0
1.458655263E0,-3.409772366E-2,-1.911267042E-1,9.890133858E0
1.461099898E0,-3.888336942E-2,-1.911267042E-1,9.870991707E0
1.463545210E0,-4.366901144E-2,-1.839482337E-1,9.882955551E0
1.465989742E0,-5.832505226E-2,-1.959123611E-1,9.875777245E0
1.468433492E0,-2.452643216E-2,-2.102692872E-1,9.870991707E0
1.470878023E0,-4.845465720E-2,-2.054836452E-1,9.897313118E0
1.473323440E0,-6.311069429E-2,-1.935195327E-1,9.873384476E0
1.475767919E0,-4.127619043E-2,-1.863410622E-1,9.880562782E0
1.478211669E0,-3.170489892E-2,-1.959123611E-1,9.887741089E0
1.480656200E0,-3.170489892E-2,-2.006980032E-1,9.868598938E0
1.483101617E0,-5.084748194E-2,-1.911267042E-1,9.866206169E0
1.485546096E0,-2.213360928E-2,-1.887338907E-1,9.899705887E0
1.487989846E0,-5.832505226E-2,-2.006980032E-1,9.890133858E0
1.490434481E0,-4.366901144E-2,-1.815554202E-1,9.892526627E0
1.492879794E0,-3.409772366E-2,-2.006980032E-1,9.880562782E0
1.495324325E0,-5.084748194E-2,-1.911267042E-1,9.873384476E0
1.497768075E0,-6.311069429E-2,-2.006980032E-1,9.887741089E0
1.500212606E0,-2.691925503E-2,-1.935195327E-1,9.890133858E0
1.502658023E0,-4.127619043E-2,-1.983051747E-1,9.894919395E0
1.505102502E0,-5.832505226E-2,-2.030908167E-1,9.892526627E0
1.507546252E0,-4.366901144E-2,-1.863410622E-1,9.861420631E0
1.509990888E0,-1.256231871E-2,-1.959123611E-1,9.875777245E0
1.512436200E0,-3.888336942E-2,-2.006980032E-1,9.892526627E0
1.514880731E0,-3.649054468E-2,-1.887338907E-1,9.885348320E0
1.517324481E0,-2.691925503E-2,-1.887338907E-1,9.902098656E0
1.519769013E0,-3.888336942E-2,-1.863410622E-1,9.911669731E0
1.522214429E0,-5.563312769E-2,-1.935195327E-1,9.902098656E0
1.524658908E0,-4.606183618E-2,-1.959123611E-1,9.892526627E0
1.527102658E0,-3.888336942E-2,-1.887338907E-1,9.882955551E0
1.529547294E0,-3.649054468E-2,-1.911267042E-1,9.885348320E0
1.531992606E0,-4.127619043E-2,-1.983051747E-1,9.870991707E0
1.534437138E0,-2.931207791E-2,-1.911267042E-1,9.863813400E0
1.536880888E0,-3.409772366E-2,-2.054836452E-1,9.880562782E0
1.539325419E0,-3.170489892E-2,-1.959123611E-1,9.880562782E0
1.541770835E0,-3.409772366E-2,-2.006980032E-1,9.875777245E0
1.544215315E0,-4.366901144E-2,-1.815554202E-1,9.873384476E0
1.546659065E0,-3.649054468E-2,-2.030908167E-1,9.875777245E0
1.549103700E0,-4.845465720E-2,-1.935195327E-1,9.859027863E0
1.551549013E0,-4.366901144E-2,-2.054836452E-1,9.880562782E0
1.553993492E0,-5.324030295E-2,-1.935195327E-1,9.892526627E0
1.556437294E0,-5.324030295E-2,-2.078764737E-1,9.878170013E0
1.558881825E0,-3.649054468E-2,-2.054836452E-1,9.892526627E0
1.561327242E0,-4.366901144E-2,-1.935195327E-1,9.897313118E0
1.563771721E0,-4.845465720E-2,-1.791625917E-1,9.902098656E0
1.566215471E0,-3.409772366E-2,-1.815554202E-1,9.873384476E0
1.568660002E0,-3.888336942E-2,-1.839482337E-1,9.880562782E0
1.571105419E0,-3.649054468E-2,-2.054836452E-1,9.890133858E0
1.573549898E0,-3.649054468E-2,-1.911267042E-1,9.885348320E0
1.575993648E0,-4.845465720E-2,-2.006980032E-1,9.882955551E0
1.578438283E0,-2.931207791E-2,-1.935195327E-1,9.866206169E0
1.580883596E0,-4.127619043E-2,-1.839482337E-1,9.897313118E0
1.583328127E0,-5.324030295E-2,-2.030908167E-1,9.892526627E0
1.585771877E0,-4.606183618E-2,-1.983051747E-1,9.887741089E0
1.588216408E0,-2.691925503E-2,-2.030908167E-1,9.887741089E0
1.590661825E0,-4.606183618E-2,-2.030908167E-1,9.870991707E0
1.593106304E0,-4.606183618E-2,-1.983051747E-1,9.854242325E0
1.595550054E0,-3.888336942E-2,-2.078764737E-1,9.885348320E0
1.597994690E0,-5.084748194E-2,-2.054836452E-1,9.878170013E0
1.600440002E0,-5.084748194E-2,-1.887338907E-1,9.880562782E0
1.602884533E0,-3.409772366E-2,-1.815554202E-1,9.887741089E0
1.605328283E0,-4.366901144E-2,-1.863410622E-1,9.868598938E0
1.607772815E0,-4.606183618E-2,-2.102692872E-1,9.880562782E0
1.610218231E0,-4.606183618E-2,-2.030908167E-1,9.875777245E0
1.612662710E0,-5.832505226E-2,-1.983051747E-1,9.868598938E0
1.615106460E0,-3.409772366E-2,-2.054836452E-1,9.863813400E0
1.617551096E0,-4.366901144E-2,-2.054836452E-1,9.904491425E0
1.619996408E0,-2.931207791E-2,-1.959123611E-1,9.894919395E0
1.622440940E0,-4.845465720E-2,-1.863410622E-1,9.902098656E0
1.624884690E0,-6.071787328E-2,-1.863410622E-1,9.885348320E0
1.627329221E0,-5.084748194E-2,-1.839482337E-1,9.890133858E0
1.629774638E0,-4.127619043E-2,-1.911267042E-1,9.894919395E0
1.632219117E0,-5.832505226E-2,-1.959123611E-1,9.875777245E0
1.634662867E0,-4.845465720E-2,-1.791625917E-1,9.899705887E0
1.637107398E0,-6.550352275E-2,-1.767697781E-1,9.892526627E0
1.639552815E0,-4.127619043E-2,-2.006980032E-1,9.894919395E0
1.641997294E0,-4.845465720E-2,-1.959123611E-1,9.880562782E0
1.644441044E0,-3.888336942E-2,-1.911267042E-1,9.909276962E0
1.646885679E0,-5.324030295E-2,-1.839482337E-1,9.887741089E0
1.649330992E0,-4.127619043E-2,-1.767697781E-1,9.892526627E0
1.651775523E0,-2.691925503E-2,-1.959123611E-1,9.887741089E0
1.654219273E0,-3.649054468E-2,-2.054836452E-1,9.875777245E0
1.656663804E0,-3.888336942E-2,-1.983051747E-1,9.892526627E0
1.659109221E0,-3.409772366E-2,-1.959123611E-1,9.885348320E0
1.661553700E0,-2.691925503E-2,-2.150549293E-1,9.878170013E0
1.663997450E0,-3.888336942E-2,-2.150549293E-1,9.885348320E0
1.666442085E0,-3.409772366E-2,-2.102692872E-1,9.897313118E0
1.668887398E0,-2.931207791E-2,-1.887338907E-1,9.902098656E0
1.671331929E0,-2.452643216E-2,-1.863410622E-1,9.870991707E0
1.673775679E0,-4.366901144E-2,-1.911267042E-1,9.885348320E0
1.676220210E0,-3.170489892E-2,-2.054836452E-1,9.902098656E0
1.678665627E0,-5.563312769E-2,-1.839482337E-1,9.873384476E0
1.681110106E0,-4.366901144E-2,-1.791625917E-1,9.890133858E0
1.683553856E0,-3.888336942E-2,-2.126621157E-1,9.880562782E0
1.685998492E0,-4.606183618E-2,-1.935195327E-1,9.878170013E0
1.688443804E0,-5.324030295E-2,-1.935195327E-1,9.897313118E0
1.690888283E0,-1.016949583E-2,-1.887338907E-1,9.868598938E0
1.693332085E0,-2.931207791E-2,-1.887338907E-1,9.880562782E0
1.695776617E0,-2.213360928E-2,-1.911267042E-1,9.890133858E0
1.698221981E0,-4.366901144E-2,-1.767697781E-1,9.882955551E0
1.700666513E0,-5.324030295E-2,-2.030908167E-1,9.861420631E0
1.703110263E0,-3.649054468E-2,-1.983051747E-1,9.892526627E0
1.705554794E0,-2.452643216E-2,-1.959123611E-1,9.878170013E0
1.708000210E0,-5.832505226E-2,-2.126621157E-1,9.887741089E0
1.710444690E0,-3.888336942E-2,-1.983051747E-1,9.870991707E0
1.712888492E0,-5.324030295E-2,-2.174477577E-1,9.914062500E0
1.715333023E0,-3.649054468E-2,-1.815554202E-1,9.875777245E0
1.717778388E0,-4.127619043E-2,-2.006980032E-1,9.897313118E0
1.720222919E0,-5.084748194E-2,-1.791625917E-1,9.887741089E0
1.722666669E0,-3.888336942E-2,-1.887338907E-1,9.880562782E0
1.725111200E0,-4.606183618E-2,-1.863410622E-1,9.880562782E0
1.727556617E0,-5.084748194E-2,-2.054836452E-1,9.902098656E0
1.730001096E0,-3.888336942E-2,-1.983051747E-1,9.906884193E0
1.732444846E0,-3.888336942E-2,-1.911267042E-1,9.875777245E0
1.734889481E0,-4.127619043E-2,-1.983051747E-1,9.875777245E0
1.737334794E0,-3.409772366E-2,-2.006980032E-1,9.885348320E0
1.739779325E0,-6.311069429E-2,-1.887338907E-1,9.887741089E0
1.742223075E0,-5.084748194E-2,-1.983051747E-1,9.887741089E0
1.744667606E0,-4.127619043E-2,-1.671984792E-1,9.897313118E0
1.747113023E0,-4.845465720E-2,-1.767697781E-1,9.885348320E0
1.749557502E0,-7.507480681E-2,-1.983051747E-1,9.892526627E0
1.752001252E0,-5.084748194E-2,-1.935195327E-1,9.885348320E0
1.754445888E0,-2.213360928E-2,-2.102692872E-1,9.921240807E0
1.756891200E0,-2.691925503E-2,-1.911267042E-1,9.873384476E0
1.759335731E0,-4.366901144E-2,-1.983051747E-1,9.909276962E0
1.761779481E0,-4.606183618E-2,-1.959123611E-1,9.882955551E0
1.764224013E0,-5.832505226E-2,-2.006980032E-1,9.892526627E0
1.766669429E0,-5.832505226E-2,-1.743769497E-1,9.866206169E0
1.769113908E0,-4.845465720E-2,-2.054836452E-1,9.916455269E0
1.771557658E0,-6.311069429E-2,-1.863410622E-1,9.878170013E0
1.774002294E0,-3.170489892E-2,-1.983051747E-1,9.878170013E0
1.776447606E0,-4.366901144E-2,-1.959123611E-1,9.849455833E0
1.778892085E0,-5.563312769E-2,-1.863410622E-1,9.890133858E0
1.781335888E0,-3.888336942E-2,-2.030908167E-1,9.894919395E0
1.783780419E0,-4.606183618E-2,-2.102692872E-1,9.878170013E0
1.786225835E0,-3.649054468E-2,-1.863410622E-1,9.894919395E0
1.788670315E0,-5.084748194E-2,-1.815554202E-1,9.892526627E0
1.791114065E0,-5.084748194E-2,-2.006980032E-1,9.882955551E0
1.793558596E0,-3.649054468E-2,-2.150549293E-1,9.851848602E0
1.796004013E0,-4.127619043E-2,-2.006980032E-1,9.875777245E0
1.798448492E0,-3.409772366E-2,-1.983051747E-1,9.878170013E0
1.800892294E0,-3.649054468E-2,-2.078764737E-1,9.882955551E0
1.803336825E0,-5.084748194E-2,-1.983051747E-1,9.880562782E0
1.805782190E0,-5.084748194E-2,-2.030908167E-1,9.878170013E0
1.808226721E0,-4.127619043E-2,-1.935195327E-1,9.878170013E0
1.810670471E0,-3.888336942E-2,-1.959123611E-1,9.914062500E0
1.813115002E0,-3.888336942E-2,-2.006980032E-1,9.899705887E0
1.815560419E0,-4.366901144E-2,-1.791625917E-1,9.899705887E0
1.818004898E0,-4.606183618E-2,-1.911267042E-1,9.882955551E0
1.820448648E0,-3.170489892E-2,-1.887338907E-1,9.882955551E0
1.822893283E0,-3.649054468E-2,-2.006980032E-1,9.859027863E0
1.825338596E0,-4.366901144E-2,-2.030908167E-1,9.882955551E0
1.827783127E0,-4.606183618E-2,-1.959123611E-1,9.890133858E0
1.830226877E0,-4.366901144E-2,-1.983051747E-1,9.899705887E0
1.832671408E0,-4.606183618E-2,-1.959123611E-1,9.909276962E0
1.835116825E0,-5.084748194E-2,-2.102692872E-1,9.902098656E0
1.837561304E0,-3.888336942E-2,-2.054836452E-1,9.916455269E0
1.840005054E0,-3.170489892E-2,-1.863410622E-1,9.854242325E0
1.842449690E0,-2.931207791E-2,-1.935195327E-1,9.899705887E0
1.844895002E0,-3.409772366E-2,-2.126621157E-1,9.892526627E0
1.847339533E0,-5.324030295E-2,-2.006980032E-1,9.887741089E0
1.849783283E0,-5.084748194E-2,-2.030908167E-1,9.878170013E0
1.852227815E0,-3.409772366E-2,-1.983051747E-1,9.897313118E0
1.854673231E0,-4.606183618E-2,-1.935195327E-1,9.882955551E0
1.857117710E0,-3.409772366E-2,-1.983051747E-1,9.894919395E0
1.859561460E0,-4.366901144E-2,-2.054836452E-1,9.880562782E0
1.862006096E0,-3.649054468E-2,-2.126621157E-1,9.904491425E0
1.864451408E0,-3.170489892E-2,-1.983051747E-1,9.882955551E0
1.866895888E0,-3.888336942E-2,-2.030908167E-1,9.892526627E0
1.869339690E0,-3.649054468E-2,-1.887338907E-1,9.882955551E0
1.871784221E0,-4.606183618E-2,-1.887338907E-1,9.892526627E0
1.874229638E0,-3.649054468E-2,-1.959123611E-1,9.863813400E0
1.876674117E0,-4.127619043E-2,-1.911267042E-1,9.875777245E0
1.879117867E0,-4.606183618E-2,-1.767697781E-1,9.870991707E0
1.881562398E0,-1.734796353E-2,-1.767697781E-1,9.873384476E0
1.884007815E0,-3.888336942E-2,-1.935195327E-1,9.856635094E0
1.886452294E0,-4.845465720E-2,-2.006980032E-1,9.868598938E0
1.888896096E0,-2.931207791E-2,-2.126621157E-1,9.880562782E0
1.891340627E0,-4.366901144E-2,-2.030908167E-1,9.875777245E0
1.893785992E0,-5.324030295E-2,-1.887338907E-1,9.890133858E0
1.896230523E0,-3.649054468E-2,-2.006980032E-1,9.882955551E0
1.898674273E0,-4.127619043E-2,-1.935195327E-1,9.887741089E0
1.901118804E0,-4.127619043E-2,-2.006980032E-1,9.882955551E0
1.903564221E0,-4.366901144E-2,-2.150549293E-1,9.882955551E0
1.906008700E0,-3.649054468E-2,-2.006980032E-1,9.890133858E0
1.908452450E0,-3.649054468E-2,-1.983051747E-1,9.894919395E0
1.910897085E0,-2.931207791E-2,-1.959123611E-1,9.892526627E0
1.913342398E0,-5.324030295E-2,-1.887338907E-1,9.894919395E0
1.915786929E0,-5.563312769E-2,-2.006980032E-1,9.892526627E0
1.918230679E0,-2.691925503E-2,-2.126621157E-1,9.887741089E0
1.920675210E0,-4.366901144E-2,-1.935195327E-1,9.887741089E0
1.923120627E0,-3.649054468E-2,-2.150549293E-1,9.882955551E0
1.925565106E0,-4.127619043E-2,-2.006980032E-1,9.892526627E0
1.928008856E0,-4.845465720E-2,-1.887338907E-1,9.897313118E0
1.930453492E0,-5.084748194E-2,-1.983051747E-1,9.894919395E0
1.932898804E0,-5.084748194E-2,-1.839482337E-1,9.882955551E0
1.935343335E0,-4.127619043E-2,-1.911267042E-1,9.854242325E0
1.937787085E0,-3.409772366E-2,-2.030908167E-1,9.882955551E0
1.940231617E0,-5.563312769E-2,-1.887338907E-1,9.856635094E0
1.942677033E0,-3.409772366E-2,-1.887338907E-1,9.870991707E0
1.945121513E0,-3.649054468E-2,-1.839482337E-1,9.882955551E0
1.947565263E0,-2.931207791E-2,-1.935195327E-1,9.887741089E0
1.950009794E0,-3.649054468E-2,-1.959123611E-1,9.880562782E0
1.952455210E0,-4.845465720E-2,-1.935195327E-1,9.882955551E0
1.954899742E0,-3.649054468E-2,-2.054836452E-1,9.897313118E0
1.957343492E0,-2.452643216E-2,-1.935195327E-1,9.914062500E0
1.959788023E0,-4.366901144E-2,-1.887338907E-1,9.875777245E0
1.962233440E0,-5.324030295E-2,-1.887338907E-1,9.890133858E0
1.964677919E0,-5.563312769E-2,-2.054836452E-1,9.904491425E0
1.967121669E0,-4.606183618E-2,-2.006980032E-1,9.885348320E0
1.969566200E0,-4.606183618E-2,-1.983051747E-1,9.894919395E0
1.972011617E0,-4.845465720E-2,-2.126621157E-1,9.887741089E0
1.974456096E0,-2.931207791E-2,-1.935195327E-1,9.892526627E0
1.976899898E0,-3.170489892E-2,-1.959123611E-1,9.897313118E0
1.979344429E0,-3.649054468E-2,-1.935195327E-1,9.880562782E0
1.981789846E0,-3.170489892E-2,-2.006980032E-1,9.894919395E0
1.984234325E0,-5.563312769E-2,-1.959123611E-1,9.899705887E0
1.986678075E0,-3.649054468E-2,-1.887338907E-1,9.875777245E0
1.989122606E0,-5.324030295E-2,-1.887338907E-1,9.890133858E0
1.991568023E0,-4.606183618E-2,-1.839482337E-1,9.906884193E0
1.994012502E0,-6.311069429E-2,-1.863410622E-1,9.873384476E0
1.996456252E0,-5.324030295E-2,-1.815554202E-1,9.875777245E0
1.998900888E0,-3.409772366E-2,-1.959123611E-1,9.882955551E0
2.001346200E0,-2.452643216E-2,-1.935195327E-1,9.882955551E0
2.003790731E0,-3.888336942E-2,-1.983051747E-1,9.880562782E0
2.006234481E0,-2.452643216E-2,-1.983051747E-1,9.866206169E0
2.008679013E0,-3.409772366E-2,-1.959123611E-1,9.880562782E0
2.011124429E0,-3.649054468E-2,-2.006980032E-1,9.890133858E0
2.013568908E0,-5.324030295E-2,-1.839482337E-1,9.897313118E0
2.016012658E0,-4.366901144E-2,-1.935195327E-1,9.897313118E0
2.018457294E0,-5.324030295E-2,-2.006980032E-1,9.909276962E0
2.020902606E0,-5.383851007E-3,-1.959123611E-1,9.906884193E0
2.023347138E0,-3.170489892E-2,-1.959123611E-1,9.890133858E0
2.025790888E0,-4.606183618E-2,-1.839482337E-1,9.875777245E0
2.028235419E0,-3.888336942E-2,-2.054836452E-1,9.894919395E0
2.030680835E0,-3.170489892E-2,-2.030908167E-1,9.897313118E0
2.033125315E0,-5.084748194E-2,-1.983051747E-1,9.890133858E0
2.035569065E0,-4.606183618E-2,-1.959123611E-1,9.890133858E0
2.038013700E0,-3.409772366E-2,-1.911267042E-1,9.906884193E0
2.040459013E0,-2.691925503E-2,-1.935195327E-1,9.882955551E0
2.042903544E0,-3.409772366E-2,-2.126621157E-1,9.887741089E0
2.045347294E0,-5.324030295E-2,-1.911267042E-1,9.897313118E0
2.047791825E0,-5.084748194E-2,-2.102692872E-1,9.906884193E0
2.050237242E0,-2.931207791E-2,-2.006980032E-1,9.878170013E0
2.052681721E0,-4.127619043E-2,-1.911267042E-1,9.861420631E0
2.055125471E0,-5.563312769E-2,-1.815554202E-1,9.904491425E0
2.057570106E0,-3.170489892E-2,-1.959123611E-1,9.880562782E0
2.060015419E0,-4.606183618E-2,-2.054836452E-1,9.882955551E0
2.062459950E0,-5.084748194E-2,-1.863410622E-1,9.870991707E0
2.064903700E0,-4.606183618E-2,-2.102692872E-1,9.875777245E0
2.067348231E0,-2.931207791E-2,-2.006980032E-1,9.899705887E0
2.069793648E0,-2.452643216E-2,-1.959123611E-1,9.894919395E0
2.072238127E0,-4.845465720E-2,-2.102692872E-1,9.880562782E0
2.074681877E0,-5.084748194E-2,-1.911267042E-1,9.885348320E0
2.077126513E0,-2.452643216E-2,-1.887338907E-1,9.887741089E0
2.079571825E0,-4.366901144E-2,-2.150549293E-1,9.885348320E0
2.082016304E0,-4.127619043E-2,-1.959123611E-1,9.892526627E0
2.084460106E0,-4.606183618E-2,-1.935195327E-1,9.897313118E0
2.086904638E0,-3.888336942E-2,-1.983051747E-1,9.885348320E0
2.089350054E0,-4.127619043E-2,-1.935195327E-1,9.878170013E0
2.091794533E0,-5.084748194E-2,-2.006980032E-1,9.892526627E0
2.094238283E0,-3.888336942E-2,-1.743769497E-1,9.868598938E0
2.096682815E0,-4.606183618E-2,-1.935195327E-1,9.892526627E0
2.099128231E0,-3.409772366E-2,-1.935195327E-1,9.866206169E0
2.101572710E0,-3.888336942E-2,-2.030908167E-1,9.878170013E0
2.104016460E0,-4.127619043E-2,-1.959123611E-1,9.885348320E0
2.106461096E0,-5.324030295E-2,-1.911267042E-1,9.868598938E0
2.108906460E0,-7.028916478E-2,-1.815554202E-1,9.878170013E0
2.111350940E0,-6.071787328E-2,-2.198405862E-1,9.882955551E0
2.113794690E0,-4.606183618E-2,-1.959123611E-1,9.885348320E0
2.116239221E0,-3.888336942E-2,-1.959123611E-1,9.854242325E0
2.118684638E0,-2.213360928E-2,-2.006980032E-1,9.882955551E0
2.121129117E0,-2.452643216E-2,-1.935195327E-1,9.890133858E0
2.123572867E0,-4.127619043E-2,-1.767697781E-1,9.873384476E0
2.126017502E0,-3.170489892E-2,-2.006980032E-1,9.870991707E0
2.128462815E0,-6.071787328E-2,-1.911267042E-1,9.880562782E0
2.130907346E0,-5.084748194E-2,-2.030908167E-1,9.878170013E0
2.133351096E0,-4.366901144E-2,-1.935195327E-1,9.890133858E0
2.135795627E0,-4.127619043E-2,-2.102692872E-1,9.870991707E0
2.138241044E0,-4.606183618E-2,-2.006980032E-1,9.882955551E0
2.140685523E0,-5.084748194E-2,-2.006980032E-1,9.892526627E0
2.143129273E0,-3.888336942E-2,-1.911267042E-1,9.909276962E0
2.145573908E0,-3.649054468E-2,-1.863410622E-1,9.902098656E0
2.148019221E0,-2.691925503E-2,-2.126621157E-1,9.880562782E0
2.150463752E0,-1.256231871E-2,-2.054836452E-1,9.894919395E0
2.152907502E0,-5.084748194E-2,-1.791625917E-1,9.894919395E0
2.155352033E0,-5.563312769E-2,-1.839482337E-1,9.894919395E0
2.157797450E0,-3.170489892E-2,-1.983051747E-1,9.878170013E0
2.160241929E0,-3.170489892E-2,-2.126621157E-1,9.861420631E0
2.162685679E0,-3.409772366E-2,-2.174477577E-1,9.880562782E0
2.165130315E0,-3.888336942E-2,-2.054836452E-1,9.885348320E0
2.167575627E0,-4.606183618E-2,-2.126621157E-1,9.890133858E0
2.170020158E0,-5.324030295E-2,-1.911267042E-1,9.856635094E0
2.172463908E0,-4.366901144E-2,-1.767697781E-1,9.899705887E0
2.174908440E0,-3.888336942E-2,-1.935195327E-1,9.863813400E0
2.177353856E0,-2.691925503E-2,-2.030908167E-1,9.873384476E0
2.179798335E0,-5.563312769E-2,-2.102692872E-1,9.880562782E0
2.182242085E0,-4.606183618E-2,-1.935195327E-1,9.880562782E0
2.184686721E0,-3.409772366E-2,-1.911267042E-1,9.885348320E0
2.187132033E0,-3.649054468E-2,-1.983051747E-1,9.887741089E0
2.189576565E0,-4.127619043E-2,-1.887338907E-1,9.878170013E0
2.192020315E0,-3.888336942E-2,-1.911267042E-1,9.904491425E0
2.194464846E0,-6.311069429E-2,-1.863410622E-1,9.897313118E0
2.196910263E0,-4.845465720E-2,-1.935195327E-1,9.904491425E0
2.199354742E0,-4.606183618E-2,-1.743769497E-1,9.885348320E0
2.201798492E0,-4.606183618E-2,-1.959123611E-1,9.880562782E0
2.204243127E0,-2.452643216E-2,-1.839482337E-1,9.904491425E0
2.206688440E0,-1.974078640E-2,-1.863410622E-1,9.863813400E0
2.209132919E0,-5.563312769E-2,-1.887338907E-1,9.899705887E0
2.211576721E0,-5.324030295E-2,-2.078764737E-1,9.897313118E0
2.214021252E0,-6.311069429E-2,-1.959123611E-1,9.899705887E0
2.216466669E0,-3.888336942E-2,-1.959123611E-1,9.885348320E0
2.218911148E0,-4.127619043E-2,-1.935195327E-1,9.878170013E0
2.221354898E0,-2.691925503E-2,-1.863410622E-1,9.892526627E0
2.223799429E0,-3.170489892E-2,-1.887338907E-1,9.861420631E0
2.226244846E0,-3.649054468E-2,-1.983051747E-1,9.859027863E0
2.228689377E0,-3.888336942E-2,-1.815554202E-1,9.868598938E0
2.231133127E0,-4.845465720E-2,-2.174477577E-1,9.878170013E0
2.233577658E0,-3.170489892E-2,-1.935195327E-1,9.870991707E0
2.236023075E0,-3.649054468E-2,-1.959123611E-1,9.861420631E0
2.238467554E0,-4.127619043E-2,-2.126621157E-1,9.890133858E0
2.240911304E0,-4.127619043E-2,-2.102692872E-1,9.882955551E0
2.243355835E0,-6.311069429E-2,-1.983051747E-1,9.875777245E0
2.245801252E0,-2.452643216E-2,-1.983051747E-1,9.897313118E0
2.248245731E0,-3.649054468E-2,-1.887338907E-1,9.909276962E0
2.250689481E0,-4.606183618E-2,-2.102692872E-1,9.897313118E0
2.253134117E0,-4.845465720E-2,-1.863410622E-1,9.899705887E0
2.255579429E0,-4.606183618E-2,-1.695913076E-1,9.880562782E0
2.258023960E0,-3.170489892E-2,-1.695913076E-1,9.873384476E0
2.260467710E0,-3.649054468E-2,-1.815554202E-1,9.873384476E0
2.262912242E0,-4.845465720E-2,-1.983051747E-1,9.887741089E0
2.265357658E0,-4.127619043E-2,-2.054836452E-1,9.866206169E0
2.267802138E0,-5.563312769E-2,-2.006980032E-1,9.878170013E0
2.270245888E0,-4.127619043E-2,-2.054836452E-1,9.897313118E0
2.272690523E0,-3.649054468E-2,-1.911267042E-1,9.882955551E0
2.275135835E0,-4.366901144E-2,-2.054836452E-1,9.870991707E0
2.277580367E0,-4.845465720E-2,-2.006980032E-1,9.859027863E0
2.280024117E0,-5.084748194E-2,-2.150549293E-1,9.890133858E0
2.282468648E0,-5.563312769E-2,-1.839482337E-1,9.878170013E0
2.284914065E0,-4.366901144E-2,-2.078764737E-1,9.868598938E0
2.287358544E0,-4.845465720E-2,-2.078764737E-1,9.897313118E0
2.289802294E0,-4.845465720E-2,-1.935195327E-1,9.894919395E0
2.292246929E0,-7.028916478E-2,-1.959123611E-1,9.894919395E0
2.294692242E0,-3.170489892E-2,-1.911267042E-1,9.866206169E0
2.297136773E0,-3.409772366E-2,-1.839482337E-1,9.890133858E0
2.299580523E0,-4.366901144E-2,-1.887338907E-1,9.873384476E0
2.302025054E0,-5.324030295E-2,-1.959123611E-1,9.904491425E0
2.304470471E0,-5.324030295E-2,-1.983051747E-1,9.887741089E0
2.306914950E0,-3.170489892E-2,-1.839482337E-1,9.885348320E0
2.309358700E0,-4.845465720E-2,-2.078764737E-1,9.873384476E0
2.311803335E0,-3.409772366E-2,-1.935195327E-1,9.904491425E0
2.314248648E0,-4.606183618E-2,-1.839482337E-1,9.892526627E0
2.316693179E0,-2.213360928E-2,-1.719841212E-1,9.899705887E0
2.319136929E0,-5.084748194E-2,-1.983051747E-1,9.892526627E0
2.321581460E0,-3.409772366E-2,-1.887338907E-1,9.899705887E0
2.324026877E0,-4.366901144E-2,-2.102692872E-1,9.854242325E0
2.326471356E0,-3.409772366E-2,-1.887338907E-1,9.902098656E0
2.328915106E0,-3.649054468E-2,-1.983051747E-1,9.899705887E0
2.331359742E0,-5.324030295E-2,-1.863410622E-1,9.897313118E0
2.333805054E0,-5.084748194E-2,-2.006980032E-1,9.880562782E0
2.336249585E0,-3.888336942E-2,-1.935195327E-1,9.897313118E0
2.338693335E0,-5.084748194E-2,-1.863410622E-1,9.887741089E0
2.341137867E0,-4.845465720E-2,-2.030908167E-1,9.880562782E0
2.343583283E0,-4.845465720E-2,-2.006980032E-1,9.868598938E0
2.346027763E0,-3.409772366E-2,-1.935195327E-1,9.890133858E0
2.348471513E0,-4.606183618E-2,-2.054836452E-1,9.873384476E0
2.350916148E0,-3.409772366E-2,-1.983051747E-1,9.868598938E0
2.353361460E0,-5.832505226E-2,-2.030908167E-1,9.890133858E0
2.355805992E0,-5.563312769E-2,-1.935195327E-1,9.875777245E0
2.358249742E0,-5.563312769E-2,-1.839482337E-1,9.880562782E0
2.360694273E0,-5.563312769E-2,-2.030908167E-1,9.882955551E0
2.363139690E0,-2.931207791E-2,-1.935195327E-1,9.897313118E0
2.365584169E0,-3.649054468E-2,-1.935195327E-1,9.863813400E0
2.368027919E0,-3.409772366E-2,-1.767697781E-1,9.870991707E0
2.370472554E0,-3.888336942E-2,-1.935195327E-1,9.885348320E0
2.372917867E0,-3.170489892E-2,-2.054836452E-1,9.887741089E0
2.375362346E0,-2.452643216E-2,-1.887338907E-1,9.882955551E0
2.377806148E0,-3.409772366E-2,-1.743769497E-1,9.878170013E0
2.380250679E0,-2.931207791E-2,-1.983051747E-1,9.894919395E0
2.382696096E0,-4.606183618E-2,-1.839482337E-1,9.902098656E0
2.385140575E0,-4.366901144E-2,-1.887338907E-1,9.873384476E0
2.387584325E0,-3.170489892E-2,-1.935195327E-1,9.880562782E0
2.390028856E0,-3.409772366E-2,-1.863410622E-1,9.885348320E0
2.392474273E0,-4.127619043E-2,-1.887338907E-1,9.863813400E0
2.394918752E0,-4.366901144E-2,-2.006980032E-1,9.875777245E0
2.397362554E0,-4.606183618E-2,-2.054836452E-1,9.880562782E0
2.399807085E0,-3.170489892E-2,-1.911267042E-1,9.885348320E0
2.402252502E0,-3.170489892E-2,-1.887338907E-1,9.880562782E0
2.404696981E0,-3.888336942E-2,-1.863410622E-1,9.897313118E0
2.407140731E0,-3.888336942E-2,-2.006980032E-1,9.885348320E0
2.409585263E0,-3.888336942E-2,-2.078764737E-1,9.885348320E0
2.412030679E0,-2.931207791E-2,-1.935195327E-1,9.882955551E0
2.414475158E0,-2.691925503E-2,-2.030908167E-1,9.890133858E0
2.416918960E0,-4.127619043E-2,-2.054836452E-1,9.902098656E0
2.419363492E0,-4.366901144E-2,-1.935195327E-1,9.897313118E0
2.421808856E0,-2.691925503E-2,-2.030908167E-1,9.880562782E0
2.424253388E0,-5.084748194E-2,-2.078764737E-1,9.861420631E0
2.426697138E0,-5.832505226E-2,-1.935195327E-1,9.870991707E0
2.429141669E0,-3.409772366E-2,-2.006980032E-1,9.870991707E0
2.431587085E0,-3.888336942E-2,-1.887338907E-1,9.882955551E0
2.434031565E0,-3.888336942E-2,-1.815554202E-1,9.880562782E0
2.436475315E0,-6.789634377E-2,-2.126621157E-1,9.887741089E0
2.438919950E0,-3.170489892E-2,-1.887338907E-1,9.866206169E0
2.441365263E0,-4.127619043E-2,-1.815554202E-1,9.890133858E0
2.443809794E0,-1.495514158E-2,-1.983051747E-1,9.890133858E0
2.446253544E0,-3.888336942E-2,-1.935195327E-1,9.859027863E0
2.448698075E0,-3.409772366E-2,-1.935195327E-1,9.868598938E0
2.451143492E0,-4.845465720E-2,-2.030908167E-1,9.882955551E0
2.453587971E0,-5.563312769E-2,-2.078764737E-1,9.885348320E0
2.456031721E0,-4.845465720E-2,-1.911267042E-1,9.887741089E0
2.458476356E0,-3.888336942E-2,-1.935195327E-1,9.875777245E0
2.460921669E0,-3.649054468E-2,-1.935195327E-1,9.866206169E0
2.463366200E0,-5.084748194E-2,-2.006980032E-1,9.885348320E0
2.465809950E0,-4.606183618E-2,-1.791625917E-1,9.873384476E0
2.468254481E0,-4.845465720E-2,-1.959123611E-1,9.875777245E0
2.470699898E0,-2.931207791E-2,-1.911267042E-1,9.878170013E0
2.473144377E0,-4.606183618E-2,-1.959123611E-1,9.868598938E0
2.475588127E0,-6.311069429E-2,-1.959123611E-1,9.873384476E0
2.478032763E0,-3.888336942E-2,-1.887338907E-1,9.882955551E0
2.480478075E0,-5.324030295E-2,-1.887338907E-1,9.887741089E0
2.482922606E0,-2.931207791E-2,-1.695913076E-1,9.880562782E0
2.485366356E0,-3.649054468E-2,-1.863410622E-1,9.878170013E0
2.487810888E0,-4.845465720E-2,-1.767697781E-1,9.880562782E0
2.490256304E0,-4.366901144E-2,-1.911267042E-1,9.885348320E0
2.492700783E0,-4.606183618E-2,-1.911267042E-1,9.897313118E0
2.495144533E0,-3.888336942E-2,-1.695913076E-1,9.885348320E0
2.497589169E0,-3.888336942E-2,-1.935195327E-1,9.911669731E0
2.500034481E0,-4.366901144E-2,-1.911267042E-1,9.890133858E0
2.502479013E0,-3.888336942E-2,-1.839482337E-1,9.880562782E0
2.504922763E0,-4.606183618E-2,-1.743769497E-1,9.890133858E0
2.507367294E0,-3.409772366E-2,-1.911267042E-1,9.880562782E0
2.509812710E0,-3.649054468E-2,-1.815554202E-1,9.882955551E0
2.512257190E0,-2.691925503E-2,-1.839482337E-1,9.873384476E0
2.514700940E0,-4.127619043E-2,-1.815554202E-1,9.887741089E0
2.517145575E0,-3.888336942E-2,-1.911267042E-1,9.868598938E0
2.519590888E0,-2.213360928E-2,-1.911267042E-1,9.885348320E0
2.522035419E0,-4.366901144E-2,-1.935195327E-1,9.875777245E0
2.524479169E0,-3.649054468E-2,-2.054836452E-1,9.890133858E0
2.526923700E0,-3.409772366E-2,-1.887338907E-1,9.882955551E0
2.529369117E0,-5.324030295E-2,-2.078764737E-1,9.904491425E0
2.531813596E0,-5.084748194E-2,-2.054836452E-1,9.890133858E0
2.534257346E0,-4.845465720E-2,-1.983051747E-1,9.868598938E0
2.536701981E0,-4.845465720E-2,-1.815554202E-1,9.890133858E0
2.539147294E0,-4.366901144E-2,-2.150549293E-1,9.870991707E0
2.541591825E0,-4.845465720E-2,-2.030908167E-1,9.897313118E0
2.544035575E0,-3.888336942E-2,-1.863410622E-1,9.885348320E0
2.546480106E0,-4.127619043E-2,-1.743769497E-1,9.866206169E0
2.548925523E0,-3.409772366E-2,-1.815554202E-1,9.859027863E0
2.551370002E0,-6.550352275E-2,-1.959123611E-1,9.870991707E0
2.553813752E0,-4.127619043E-2,-1.983051747E-1,9.878170013E0
2.556258388E0,-3.170489892E-2,-2.078764737E-1,9.866206169E0
2.558703700E0,-2.213360928E-2,-1.959123611E-1,9.892526627E0
2.561148231E0,-3.888336942E-2,-1.911267042E-1,9.887741089E0
2.563591981E0,-4.845465720E-2,-1.815554202E-1,9.873384476E0
2.566036513E0,-3.649054468E-2,-1.815554202E-1,9.866206169E0
2.568481929E0,-5.832505226E-2,-1.983051747E-1,9.887741089E0
2.570926408E0,-3.888336942E-2,-2.222333997E-1,9.890133858E0
2.573370158E0,-6.311069429E-2,-1.935195327E-1,9.870991707E0
2.575814794E0,-4.606183618E-2,-2.006980032E-1,9.892526627E0
2.578260106E0,-4.127619043E-2,-1.959123611E-1,9.890133858E0
2.580704638E0,-6.071787328E-2,-1.959123611E-1,9.866206169E0
2.583148388E0,-3.409772366E-2,-1.815554202E-1,9.906884193E0
2.585592919E0,-3.409772366E-2,-1.791625917E-1,9.882955551E0
2.588038335E0,-4.127619043E-2,-1.887338907E-1,9.890133858E0
2.590482815E0,-3.409772366E-2,-1.983051747E-1,9.892526627E0
2.592926565E0,-4.366901144E-2,-2.030908167E-1,9.878170013E0
2.595371200E0,-3.888336942E-2,-1.959123611E-1,9.878170013E0
2.597816513E0,-4.127619043E-2,-2.030908167E-1,9.861420631E0
2.600261044E0,-5.832505226E-2,-1.983051747E-1,9.882955551E0
2.602704794E0,-3.888336942E-2,-1.935195327E-1,9.887741089E0
2.605149325E0,-4.845465720E-2,-2.030908167E-1,9.868598938E0
2.607594742E0,-4.845465720E-2,-1.863410622E-1,9.890133858E0
2.610039221E0,-2.931207791E-2,-1.935195327E-1,9.856635094E0
2.612482971E0,-1.734796353E-2,-2.006980032E-1,9.897313118E0
2.614927606E0,2.093719877E-2,-2.222333997E-1,9.861420631E0
2.617372919E0,1.405783296E-1,-2.988037169E-1,9.885348320E0
2.619817450E0,3.320041299E-1,-3.849453330E-1,9.957133293E0
2.622261200E0,5.787639618E-1,-4.088735580E-1,1.008873844E1
2.624705731E0,7.462615371E-1,-3.801597059E-1,1.041446114E1
2.627151148E0,7.797610760E-1,-1.959123611E-1,1.110628605E1
2.629595627E0,7.007979155E-1,4.845465720E-2,1.182682514E1
2.632039377E0,5.428716540E-1,3.068794906E-1,1.227697468E1
2.634484013E0,5.524429083E-1,3.786641955E-1,1.232483101E1
2.636929325E0,5.042873621E-1,2.255235314E-1,1.129561806E1
2.639373856E0,4.109672904E-1,-3.050848842E-2,9.121739388E0
2.641817606E0,2.219343036E-1,-2.246262282E-1,7.244569778E0
2.644262138E0,1.615155302E-2,-6.385845542E-1,5.937490463E0
2.646707554E0,-2.928216755E-1,-6.290132403E-1,5.279164791E0
2.649152033E0,-4.100699723E-1,-4.974080026E-1,5.817849159E0
2.651595783E0,-7.776673418E-3,-5.165506005E-1,6.629314899E0
2.654040419E0,-3.813561201E-1,-3.705884218E-1,9.028120041E0
2.656485731E0,-7.190431952E-1,-3.179463148E-1,1.018953609E1
2.658930263E0,-5.344967842E-1,-1.743769497E-1,1.112782192E1
2.661374013E0,-3.789632916E-1,-1.453639716E-1,1.157557869E1
2.663818544E0,-4.531407952E-1,4.845465720E-2,1.116132164E1
2.666263960E0,-6.496513486E-1,-5.922235921E-2,1.085982513E1
2.668708440E0,-7.573283911E-1,-1.624128371E-1,1.072582722E1
2.671152190E0,-5.703890920E-1,-1.286142170E-1,1.080239773E1
2.673596825E0,-6.062814593E-1,-1.046859920E-1,1.203529930E1
2.676042138E0,-5.799604058E-1,-1.166501045E-1,1.220279694E1
2.678486669E0,-5.201398134E-1,-1.381855011E-1,1.143918800E1
2.680930419E0,-6.592226624E-1,-1.552343667E-1,1.039531898E1
2.683374950E0,-6.616154313E-1,-1.935195327E-1,9.600603104E0
2.685820367E0,-6.305087805E-1,-1.695913076E-1,9.322735786E0
2.688264846E0,-5.847460628E-1,-1.624128371E-1,9.294022560E0
2.690708596E0,-3.837489188E-1,-2.581257522E-1,9.487840652E0
2.693153231E0,-2.880360186E-1,-2.509472668E-1,1.023499966E1
2.695598544E0,-2.712862790E-1,-2.006980032E-1,1.047428226E1
2.698043075E0,-2.258226424E-1,-1.022931710E-1,9.997811317E0
2.700486825E0,-1.636092514E-1,-1.911267042E-1,9.758528709E0
2.702931356E0,-7.268198580E-2,-1.911267042E-1,9.205488205E0
2.705376773E0,-5.563312769E-2,-1.381855011E-1,9.404091835E0
2.707821252E0,1.214357466E-1,-1.600200087E-1,9.339486122E0
2.710265002E0,2.530409992E-1,-1.815554202E-1,8.812766075E0
2.712709638E0,8.973085321E-3,-2.246262282E-1,9.028120041E0
2.715154950E0,5.443671346E-2,-2.916252613E-1,9.030811310E0
2.717599481E0,1.094716340E-1,-3.346960545E-1,9.052347183E0
2.720043231E0,1.836491376E-1,-3.610171080E-1,9.013762474E0
2.722487763E0,3.343969584E-1,-4.519443810E-1,9.200701714E0
2.724933179E0,3.248256743E-1,-4.663013220E-1,9.329915047E0
2.727377658E0,2.338984162E-1,-3.993022740E-1,9.143274307E0
2.729821408E0,1.884347796E-1,-2.318046987E-1,9.097810745E0
2.732266044E0,1.812563092E-1,-9.032905847E-2,9.631709099E0
2.734711356E0,2.051845491E-1,2.931207791E-2,1.076889801E1
2.737155888E0,2.219343036E-1,2.039881349E-1,1.137458134E1
2.739599638E0,1.310070455E-1,1.680957973E-1,1.192044449E1
2.742044169E0,1.214357466E-1,9.152546525E-2,1.231525993E1
2.744489585E0,7.118647546E-2,-2.333002165E-2,1.246630669E1
2.746934065E0,1.381855011E-1,-5.922235921E-2,1.092921734E1
2.749377815E0,5.204389244E-2,-2.772683203E-1,1.034028435E1
2.751822450E0,1.094716340E-1,-2.724826932E-1,9.550054550E0
2.754267763E0,1.190429255E-1,-3.801597059E-1,9.262915611E0
2.756712294E0,1.668993831E-1,-4.040879309E-1,8.910871506E0
2.759156044E0,8.554340899E-2,-4.806582630E-1,8.965906143E0
2.761600575E0,-5.324030295E-2,-4.782654345E-1,9.241379738E0
2.764045992E0,7.836493850E-2,-2.294118702E-1,9.224630356E0
2.766490471E0,2.027917206E-1,-1.624128371E-1,9.222237587E0
2.768934221E0,2.099701911E-1,-1.046859920E-1,8.930013657E0
2.771378856E0,7.836493850E-2,-1.357926875E-1,9.380164146E0
2.773824169E0,6.400800496E-2,-1.480558962E-1,9.298808098E0
2.776268700E0,1.022931710E-1,-1.453639716E-1,9.102596283E0
2.778712450E0,1.381855011E-1,-1.429711580E-1,9.428020477E0
2.781156981E0,1.262213886E-1,-1.238285750E-1,9.760921478E0
2.783602398E0,-3.170489892E-2,-1.381855011E-1,1.041446114E1
2.786046877E0,-4.606183618E-2,-1.624128371E-1,1.064177990E1
2.788490627E0,-6.071787328E-2,-1.671984792E-1,1.073300552E1
2.790935263E0,-1.037886813E-1,-1.743769497E-1,1.101296616E1
2.793380575E0,-8.225327730E-2,-1.935195327E-1,1.088136101E1
2.795825106E0,-1.061815023E-1,-1.911267042E-1,1.046949673E1
2.798268856E0,-1.181456149E-1,-1.839482337E-1,1.001934624E1
2.800713388E0,-1.085743308E-1,-2.078764737E-1,9.573982239E0
2.803158804E0,-2.234298140E-1,-2.174477577E-1,9.581160545E0
2.805603283E0,-1.444666684E-1,-2.126621157E-1,9.480662346E0
2.808047033E0,-1.133599728E-1,-2.294118702E-1,9.399306297E0
2.810491669E0,-1.731805354E-1,-2.389831543E-1,9.595816612E0
2.812936981E0,-2.377867550E-1,-2.413759828E-1,9.815957069E0
2.815381513E0,-2.521436810E-1,-2.533400953E-1,9.665208817E0
2.817825263E0,-2.856431901E-1,-2.341975123E-1,9.770493507E0
2.820269794E0,-2.593221664E-1,-1.887338907E-1,1.008395290E1
2.822715210E0,-2.306082845E-1,-1.429711580E-1,1.021585751E1
2.825159690E0,-2.353939265E-1,-1.286142170E-1,1.032353401E1
2.827603440E0,-1.899302900E-1,-1.238285750E-1,1.002173901E1
2.830048075E0,-1.468594968E-1,-1.405783296E-1,9.717850685E0
2.832493388E0,-1.707877219E-1,-1.238285750E-1,9.689137459E0
2.834937919E0,-1.444666684E-1,-1.911267042E-1,9.624530792E0
2.837381669E0,-9.661021084E-2,-2.389831543E-1,9.506983757E0
2.839826200E0,-4.606183618E-2,-2.820539773E-1,9.432806015E0
2.842271617E0,-2.213360928E-2,-2.940180898E-1,9.437591553E0
2.844716096E0,-1.085743308E-1,-2.916252613E-1,9.780064583E0
2.847159846E0,-7.028916478E-2,-2.605185509E-1,9.926026344E0
2.849604481E0,-4.127619043E-2,-2.102692872E-1,9.921240807E0
2.852049794E0,-4.127619043E-2,-1.743769497E-1,1.000498962E1
2.854494325E0,-2.452643216E-2,-1.695913076E-1,1.009352398E1
2.856938075E0,-3.170489892E-2,-1.310070455E-1,1.026371384E1
2.859382606E0,-2.991028363E-3,-1.333998591E-1,1.022542858E1
2.861828023E0,8.973085321E-3,-1.576271951E-1,1.012463093E1
2.864272502E0,-1.974078640E-2,-1.528415531E-1,1.008395290E1
2.866716304E0,2.093719877E-2,-1.262213886E-1,1.015842915E1
2.869160835E0,4.247260094E-2,-1.333998591E-1,1.021346474E1
2.871606252E0,6.161518395E-2,-1.935195327E-1,1.008634567E1
2.874050731E0,2.811566554E-2,-2.078764737E-1,9.928419113E0
2.876494481E0,1.794616925E-3,-2.294118702E-1,9.760921478E0
2.878939013E0,5.922235921E-2,-2.437688112E-1,9.605388641E0
2.881384429E0,6.640082598E-2,-2.485544533E-1,9.499805450E0
2.883828908E0,8.793623000E-2,-2.461616248E-1,9.377771378E0
2.886272710E0,8.554340899E-2,-2.581257522E-1,9.351449966E0
2.888717242E0,8.075776696E-2,-2.198405862E-1,9.394520760E0
2.891162658E0,3.290131316E-2,-1.887338907E-1,9.585947037E0
2.893607138E0,-1.495514158E-2,-1.743769497E-1,9.923633575E0
2.896050888E0,7.118647546E-2,-1.624128371E-1,1.011745262E1
2.898495419E0,6.879365444E-2,-1.983051747E-1,1.023021412E1
2.900940835E0,-1.256231871E-2,-1.671984792E-1,1.026849937E1
2.903385315E0,-2.691925503E-2,-1.576271951E-1,1.032114124E1
2.905829117E0,2.093719877E-2,-1.719841212E-1,1.030917740E1
2.908273648E0,2.333002165E-2,-1.600200087E-1,1.019432163E1
2.910719065E0,-5.383851007E-3,-1.671984792E-1,1.003609657E1
2.913163544E0,1.615155302E-2,-1.648056656E-1,9.904491425E0
2.915607294E0,-2.452643216E-2,-1.719841212E-1,9.894919395E0
2.918051825E0,-2.931207791E-2,-1.983051747E-1,9.820742607E0
2.920497242E0,-2.452643216E-2,-2.078764737E-1,9.684351921E0
2.922941773E0,-3.170489892E-2,-2.294118702E-1,9.545269012E0
2.925385523E0,-1.495514158E-2,-2.294118702E-1,9.540482521E0
2.927830054E0,-6.550352275E-2,-2.389831543E-1,9.677172661E0
2.930275471E0,-9.421738982E-2,-2.294118702E-1,9.727422714E0
2.932719950E0,-1.420738399E-1,-2.054836452E-1,9.756135941E0
2.935163700E0,-1.157527938E-1,-2.126621157E-1,9.815957069E0
2.937608335E0,-1.492523104E-1,-2.006980032E-1,9.978668213E0
2.940053648E0,-1.348953694E-1,-1.624128371E-1,1.012223816E1
2.942498179E0,-1.396810263E-1,-1.576271951E-1,1.008873844E1
2.944941929E0,-1.851446480E-1,-1.528415531E-1,1.002652550E1
2.947386460E0,-1.707877219E-1,-1.671984792E-1,9.937990189E0
2.949831877E0,-1.372881979E-1,-1.528415531E-1,9.823135376E0
2.952276356E0,-1.564307809E-1,-1.624128371E-1,9.796813965E0
2.954720106E0,-1.372881979E-1,-1.743769497E-1,9.818349838E0
2.957164742E0,-1.372881979E-1,-2.102692872E-1,9.775279045E0
2.959610054E0,-1.301097274E-1,-2.294118702E-1,9.746564865E0
2.962054585E0,-1.420738399E-1,-2.389831543E-1,9.830313683E0
2.964498335E0,-1.348953694E-1,-2.294118702E-1,9.909276962E0
2.966942867E0,-1.109671518E-1,-2.413759828E-1,9.947562218E0
2.969388283E0,-1.325025558E-1,-2.102692872E-1,9.849455833E0
2.971832763E0,-1.013958603E-1,-2.150549293E-1,9.837491989E0
2.974276513E0,-7.268198580E-2,-1.767697781E-1,9.983454704E0
2.976721148E0,-8.225327730E-2,-1.648056656E-1,1.006720352E1
2.979166460E0,-7.986045629E-2,-1.576271951E-1,1.004806042E1
2.981610992E0,-4.127619043E-2,-1.504487246E-1,1.003370380E1
2.984054742E0,-4.127619043E-2,-1.648056656E-1,9.990633011E0
2.986499273E0,-5.383851007E-3,-1.648056656E-1,9.952347755E0
2.988944690E0,-1.974078640E-2,-1.743769497E-1,9.947562218E0
2.991389169E0,8.973085321E-3,-1.959123611E-1,9.825528145E0
2.993832919E0,-1.734796353E-2,-2.030908167E-1,9.736993790E0
2.996277554E0,3.529413417E-2,-1.959123611E-1,9.614959717E0
2.998722867E0,1.375873014E-2,-2.078764737E-1,9.739386559E0
3.001167398E0,4.007977992E-2,-2.198405862E-1,9.701101303E0
3.003611148E0,4.725824669E-2,-2.174477577E-1,9.653244972E0
3.006055679E0,3.050848842E-2,-2.270190418E-1,9.715457916E0
3.008501096E0,3.050848842E-2,-2.246262282E-1,9.813564301E0
3.010945575E0,1.854437590E-2,-2.318046987E-1,9.839884758E0
3.013389325E0,1.615155302E-2,-2.365903407E-1,9.875777245E0
3.015833960E0,2.333002165E-2,-1.983051747E-1,9.997811317E0
3.018279273E0,5.443671346E-2,-1.911267042E-1,1.006002426E1
3.020723804E0,-2.991028363E-3,-1.576271951E-1,1.011266708E1
3.023167554E0,2.572284266E-2,-1.600200087E-1,1.013420200E1
3.025612085E0,2.333002165E-2,-1.576271951E-1,1.012223816E1
3.028057502E0,3.290131316E-2,-1.429711580E-1,1.000259686E1
3.030501981E0,2.572284266E-2,-1.405783296E-1,9.928419113E0
3.032945731E0,1.854437590E-2,-1.743769497E-1,9.851848602E0
3.035390367E0,1.136590727E-2,-2.030908167E-1,9.830313683E0
3.037835679E0,6.580262445E-3,-2.102692872E-1,9.715457916E0
3.040280210E0,8.973085321E-3,-2.102692872E-1,9.646066666E0
3.042723960E0,-7.776673418E-3,-2.126621157E-1,9.681958199E0
3.045168492E0,-2.931207791E-2,-2.198405862E-1,9.796813965E0
3.047613908E0,-1.016949583E-2,-2.509472668E-1,9.861420631E0
3.050058388E0,-1.495514158E-2,-2.174477577E-1,9.897313118E0
3.052502138E0,-3.409772366E-2,-2.150549293E-1,9.949954987E0
3.054946773E0,-3.888336942E-2,-1.983051747E-1,1.003370380E1
3.057392138E0,-5.084748194E-2,-1.863410622E-1,1.001695347E1
3.059836617E0,-5.832505226E-2,-1.863410622E-1,9.990633011E0
3.062280367E0,-6.311069429E-2,-1.911267042E-1,9.985847473E0
3.064724898E0,-7.746763527E-2,-1.576271951E-1,9.940383911E0
3.067170315E0,-6.311069429E-2,-1.719841212E-1,9.914062500E0
3.069614794E0,-7.746763527E-2,-1.600200087E-1,9.873384476E0
3.072058596E0,-8.464609832E-2,-1.983051747E-1,9.808777809E0
3.074503127E0,-7.986045629E-2,-2.054836452E-1,9.729815483E0
3.076948544E0,-6.311069429E-2,-2.102692872E-1,9.693922997E0
3.079393023E0,-1.037886813E-1,-2.102692872E-1,9.727422714E0
3.081836773E0,-1.061815023E-1,-2.030908167E-1,9.827920914E0
3.084281304E0,-7.507480681E-2,-1.935195327E-1,9.892526627E0
3.086726721E0,-7.507480681E-2,-1.983051747E-1,9.887741089E0
3.089171200E0,-6.550352275E-2,-2.102692872E-1,9.918848038E0
3.091615002E0,-7.028916478E-2,-1.935195327E-1,1.000738239E1
3.094059533E0,-8.464609832E-2,-2.030908167E-1,1.010788059E1
3.096504950E0,-6.789634377E-2,-2.198405862E-1,1.011027431E1
3.098949429E0,-5.563312769E-2,-1.983051747E-1,1.007438183E1
3.101393179E0,-3.649054468E-2,-1.815554202E-1,9.997811317E0
3.103837815E0,-2.931207791E-2,-1.887338907E-1,9.961918831E0
3.106283127E0,-4.845465720E-2,-1.719841212E-1,9.911669731E0
3.108727658E0,-5.084748194E-2,-1.911267042E-1,9.784850121E0
3.111171408E0,-4.606183618E-2,-2.006980032E-1,9.753743172E0
3.113615940E0,-1.256231871E-2,-2.078764737E-1,9.679565430E0
3.116061356E0,-3.170489892E-2,-1.983051747E-1,9.717850685E0
3.118505835E0,-7.776673418E-3,-1.743769497E-1,9.681958199E0
3.120949585E0,-7.776673418E-3,-1.791625917E-1,9.693922997E0
3.123394221E0,-2.991028363E-3,-1.624128371E-1,9.739386559E0
3.125839533E0,-1.495514158E-2,-1.648056656E-1,9.782457352E0
3.128284065E0,-3.649054468E-2,-1.935195327E-1,9.870991707E0
3.130727815E0,-1.016949583E-2,-2.006980032E-1,9.904491425E0
3.133172346E0,-1.256231871E-2,-2.222333997E-1,9.947562218E0
3.135617763E0,-2.213360928E-2,-2.174477577E-1,1.000738239E1
3.138062242E0,-1.974078640E-2,-2.006980032E-1,1.002652550E1
3.140505992E0,-3.170489892E-2,-2.341975123E-1,1.002413273E1
3.142950627E0,-3.649054468E-2,-2.078764737E-1,1.000259686E1
3.145395940E0,-4.127619043E-2,-1.839482337E-1,9.995418549E0
3.147840471E0,-4.127619043E-2,-1.695913076E-1,9.966704369E0
3.150284221E0,-3.649054468E-2,-1.791625917E-1,9.954740524E0
3.152728752E0,-4.606183618E-2,-1.839482337E-1,9.914062500E0
3.155174169E0,-6.071787328E-2,-1.671984792E-1,9.851848602E0
3.157618648E0,-5.324030295E-2,-1.791625917E-1,9.777671814E0
3.160062398E0,-6.311069429E-2,-1.815554202E-1,9.760921478E0
3.162507033E0,-4.366901144E-2,-2.222333997E-1,9.753743172E0
3.164952346E0,-5.084748194E-2,-2.174477577E-1,9.722636223E0
3.167396877E0,-5.832505226E-2,-2.054836452E-1,9.753743172E0
3.169840627E0,-6.071787328E-2,-2.030908167E-1,9.815957069E0
3.172285158E0,-6.311069429E-2,-2.150549293E-1,9.909276962E0
3.174730575E0,-6.311069429E-2,-2.078764737E-1,9.947562218E0
3.177175054E0,-5.563312769E-2,-1.839482337E-1,9.957133293E0
3.179618804E0,-5.832505226E-2,-1.863410622E-1,1.000259686E1
3.182063440E0,-5.563312769E-2,-1.743769497E-1,9.995418549E0
3.184508804E0,-7.028916478E-2,-1.815554202E-1,9.923633575E0
3.186953283E0,-5.084748194E-2,-1.863410622E-1,9.878170013E0
3.189397033E0,-3.170489892E-2,-1.911267042E-1,9.868598938E0
3.191841669E0,-4.606183618E-2,-2.030908167E-1,9.835099220E0
3.194286981E0,-5.563312769E-2,-1.983051747E-1,9.799206734E0
3.196731460E0,-5.084748194E-2,-1.911267042E-1,9.775279045E0
3.199175263E0,-4.845465720E-2,-1.887338907E-1,9.866206169E0
3.201619794E0,-4.606183618E-2,-1.863410622E-1,9.890133858E0
3.204065210E0,-4.366901144E-2,-1.911267042E-1,9.854242325E0
3.206509690E0,-4.366901144E-2,-1.695913076E-1,9.870991707E0
3.208953440E0,-4.845465720E-2,-1.695913076E-1,9.952347755E0
3.211398075E0,-6.071787328E-2,-1.935195327E-1,1.000020409E1
3.213843388E0,-3.409772366E-2,-1.863410622E-1,9.954740524E0
3.216287919E0,-3.649054468E-2,-1.935195327E-1,9.947562218E0
3.218731669E0,-2.691925503E-2,-1.983051747E-1,9.969097137E0
3.221176200E0,1.794616925E-3,-2.054836452E-1,9.976275444E0
3.223621617E0,-5.383851007E-3,-2.078764737E-1,9.926026344E0
3.226066096E0,-2.691925503E-2,-2.174477577E-1,9.878170013E0
3.228509846E0,-2.691925503E-2,-2.294118702E-1,9.890133858E0
3.230954481E0,-2.213360928E-2,-2.126621157E-1,9.823135376E0
3.233399794E0,-1.734796353E-2,-2.198405862E-1,9.770493507E0
3.235844325E0,-1.256231871E-2,-1.911267042E-1,9.765707016E0
3.238288075E0,-2.213360928E-2,-1.839482337E-1,9.784850121E0
3.240732606E0,-1.974078640E-2,-1.791625917E-1,9.787242889E0
3.243178023E0,-3.170489892E-2,-1.887338907E-1,9.782457352E0
3.245622502E0,-3.170489892E-2,-1.935195327E-1,9.780064583E0
3.248066252E0,-5.084748194E-2,-1.648056656E-1,9.911669731E0
3.250510888E0,-3.888336942E-2,-1.839482337E-1,9.945169449E0
3.252956200E0,-3.409772366E-2,-1.983051747E-1,9.978668213E0
3.255400731E0,-4.366901144E-2,-1.983051747E-1,9.981060982E0
3.257844481E0,-4.127619043E-2,-2.102692872E-1,9.969097137E0
3.260289013E0,-5.832505226E-2,-1.911267042E-1,9.959526062E0
3.262734429E0,-7.268198580E-2,-1.863410622E-1,9.988240242E0
3.265178908E0,-4.127619043E-2,-2.174477577E-1,9.914062500E0
3.267622658E0,-5.832505226E-2,-2.054836452E-1,9.906884193E0
3.270067294E0,-5.832505226E-2,-1.983051747E-1,9.880562782E0
3.272512658E0,-5.324030295E-2,-2.030908167E-1,9.842277527E0
3.274957138E0,-5.563312769E-2,-1.887338907E-1,9.873384476E0
3.277400888E0,-6.311069429E-2,-1.911267042E-1,9.882955551E0
3.279845419E0,-6.550352275E-2,-1.863410622E-1,9.868598938E0
3.282290835E0,-5.832505226E-2,-1.743769497E-1,9.818349838E0
3.284735315E0,-3.170489892E-2,-1.767697781E-1,9.851848602E0
3.287179065E0,-3.409772366E-2,-1.911267042E-1,9.894919395E0
3.289623700E0,-5.084748194E-2,-1.863410622E-1,9.868598938E0
3.292069013E0,-4.845465720E-2,-1.935195327E-1,9.811170578E0
3.294513544E0,-4.127619043E-2,-1.935195327E-1,9.813564301E0
3.296957294E0,-5.084748194E-2,-1.983051747E-1,9.839884758E0
3.299401825E0,-4.366901144E-2,-2.174477577E-1,9.890133858E0
3.301847242E0,-4.127619043E-2,-1.935195327E-1,9.916455269E0
3.304291721E0,-3.649054468E-2,-1.791625917E-1,9.894919395E0
3.306735523E0,-1.974078640E-2,-2.006980032E-1,9.873384476E0
3.309180054E0,-2.931207791E-2,-2.030908167E-1,9.885348320E0
3.311625471E0,-4.127619043E-2,-1.815554202E-1,9.916455269E0
3.314069950E0,-2.931207791E-2,-1.719841212E-1,9.904491425E0
3.316513700E0,-4.127619043E-2,-2.030908167E-1,9.870991707E0
3.318958335E0,-1.734796353E-2,-2.102692872E-1,9.823135376E0
3.321403648E0,-2.452643216E-2,-1.959123611E-1,9.870991707E0
3.323848127E0,-3.170489892E-2,-1.839482337E-1,9.909276962E0
3.326291929E0,-3.170489892E-2,-1.935195327E-1,9.937990189E0
3.328736460E0,-4.606183618E-2,-1.767697781E-1,9.914062500E0
3.331181877E0,-3.649054468E-2,-2.006980032E-1,9.909276962E0
3.333626356E0,-2.213360928E-2,-1.815554202E-1,9.909276962E0
3.336070106E0,-2.931207791E-2,-1.911267042E-1,9.976275444E0
3.338514742E0,-3.170489892E-2,-1.887338907E-1,9.942776680E0
3.340960054E0,-1.734796353E-2,-2.030908167E-1,9.902098656E0
3.343404585E0,-1.016949583E-2,-2.006980032E-1,9.863813400E0
3.345848335E0,-1.974078640E-2,-2.030908167E-1,9.873384476E0
3.348292867E0,-2.691925503E-2,-2.054836452E-1,9.882955551E0
3.350738283E0,-3.170489892E-2,-2.006980032E-1,9.856635094E0
3.353182763E0,-4.127619043E-2,-2.006980032E-1,9.787242889E0
3.355626513E0,-1.974078640E-2,-1.815554202E-1,9.811170578E0
3.358071148E0,-5.563312769E-2,-1.839482337E-1,9.851848602E0
3.360516460E0,-3.888336942E-2,-1.839482337E-1,9.882955551E0
3.362960992E0,-3.170489892E-2,-2.126621157E-1,9.882955551E0
3.365404742E0,-4.606183618E-2,-2.222333997E-1,9.825528145E0
3.367849273E0,-7.028916478E-2,-2.030908167E-1,9.825528145E0
3.370294690E0,-3.888336942E-2,-1.887338907E-1,9.839884758E0
3.372739169E0,-5.084748194E-2,-2.006980032E-1,9.942776680E0
3.375182971E0,-5.324030295E-2,-1.887338907E-1,9.906884193E0
3.377627502E0,-4.606183618E-2,-1.935195327E-1,9.873384476E0
3.380072919E0,-4.845465720E-2,-1.863410622E-1,9.899705887E0
3.382517398E0,-5.084748194E-2,-2.054836452E-1,9.937990189E0
3.384961148E0,-3.649054468E-2,-2.054836452E-1,9.964311600E0
3.387405679E0,-4.366901144E-2,-1.887338907E-1,9.897313118E0
3.389851096E0,-5.324030295E-2,-2.054836452E-1,9.849455833E0
3.392295575E0,-4.127619043E-2,-1.743769497E-1,9.899705887E0
3.394739377E0,-5.832505226E-2,-2.126621157E-1,9.952347755E0
3.397183908E0,-4.366901144E-2,-2.102692872E-1,9.906884193E0
3.399629325E0,-4.606183618E-2,-2.198405862E-1,9.827920914E0
3.402073804E0,-3.649054468E-2,-1.624128371E-1,9.784850121E0
3.404517554E0,-3.649054468E-2,-1.911267042E-1,9.856635094E0
3.406962085E0,-2.452643216E-2,-1.767697781E-1,9.933204651E0
3.409407502E0,-2.691925503E-2,-1.863410622E-1,9.916455269E0
3.411852033E0,-4.127619043E-2,-1.935195327E-1,9.870991707E0
3.414295783E0,-5.324030295E-2,-1.863410622E-1,9.897313118E0
3.416740315E0,-5.084748194E-2,-2.102692872E-1,9.918848038E0
3.419185731E0,-3.170489892E-2,-2.006980032E-1,9.899705887E0
3.421630210E0,-3.170489892E-2,-1.935195327E-1,9.818349838E0
3.424073960E0,-5.324030295E-2,-2.054836452E-1,9.844670296E0
3.426518596E0,-4.127619043E-2,-1.959123611E-1,9.844670296E0
3.428963908E0,-4.127619043E-2,-2.078764737E-1,9.875777245E0
3.431408440E0,-3.409772366E-2,-2.150549293E-1,9.868598938E0
3.433852190E0,-4.845465720E-2,-2.030908167E-1,9.839884758E0
3.436296721E0,-4.606183618E-2,-1.648056656E-1,9.878170013E0
3.438742138E0,-3.170489892E-2,-1.935195327E-1,9.959526062E0
3.441186617E0,-3.409772366E-2,-1.887338907E-1,9.973882675E0
3.443630367E0,-4.845465720E-2,-2.006980032E-1,9.937990189E0
3.446075002E0,-6.789634377E-2,-2.006980032E-1,9.890133858E0
3.448520315E0,-6.311069429E-2,-2.078764737E-1,9.875777245E0
3.450964846E0,-3.888336942E-2,-1.959123611E-1,9.890133858E0
3.453408596E0,-7.268198580E-2,-1.935195327E-1,9.909276962E0
3.455853127E0,-5.084748194E-2,-2.054836452E-1,9.909276962E0
3.458298544E0,-5.832505226E-2,-1.839482337E-1,9.878170013E0
3.460743023E0,-3.649054468E-2,-1.935195327E-1,9.851848602E0
3.463186773E0,-3.170489892E-2,-1.743769497E-1,9.882955551E0
3.465631408E0,-7.028916478E-2,-1.624128371E-1,9.911669731E0
3.468076773E0,-5.563312769E-2,-1.791625917E-1,9.875777245E0
3.470521252E0,-5.563312769E-2,-1.935195327E-1,9.859027863E0
3.472965002E0,-6.789634377E-2,-2.054836452E-1,9.911669731E0
3.475409533E0,-4.127619043E-2,-1.983051747E-1,9.878170013E0
3.477854950E0,-5.084748194E-2,-2.054836452E-1,9.844670296E0
3.480299429E0,-3.409772366E-2,-2.150549293E-1,9.835099220E0
3.482743231E0,-6.071787328E-2,-2.174477577E-1,9.887741089E0
3.485187763E0,-5.563312769E-2,-2.054836452E-1,9.878170013E0
3.487633179E0,-7.028916478E-2,-1.839482337E-1,9.882955551E0
3.490077658E0,-5.324030295E-2,-1.791625917E-1,9.868598938E0
3.492521408E0,-4.845465720E-2,-1.719841212E-1,9.918848038E0
3.494965940E0,-5.084748194E-2,-1.815554202E-1,9.928419113E0
3.497411356E0,-7.507480681E-2,-1.767697781E-1,9.926026344E0
3.499855888E0,-6.789634377E-2,-1.791625917E-1,9.863813400E0
3.502299638E0,-5.324030295E-2,-1.815554202E-1,9.856635094E0
3.504744169E0,-4.845465720E-2,-1.983051747E-1,9.878170013E0
3.507189585E0,-5.832505226E-2,-1.983051747E-1,9.878170013E0
3.509634065E0,-5.324030295E-2,-2.246262282E-1,9.892526627E0
3.512077815E0,-1.974078640E-2,-2.054836452E-1,9.899705887E0
3.514522450E0,-3.170489892E-2,-2.078764737E-1,9.923633575E0
3.516967763E0,-3.170489892E-2,-1.887338907E-1,9.892526627E0
3.519412294E0,-1.495514158E-2,-1.911267042E-1,9.949954987E0
3.521856044E0,-4.845465720E-2,-1.863410622E-1,9.945169449E0
3.524300575E0,-2.931207791E-2,-1.887338907E-1,9.933204651E0
3.526745992E0,-1.495514158E-2,-2.006980032E-1,9.880562782E0
3.529190471E0,-3.409772366E-2,-1.839482337E-1,9.885348320E0
3.531634221E0,-2.931207791E-2,-2.102692872E-1,9.870991707E0
3.534078856E0,-2.213360928E-2,-2.174477577E-1,9.825528145E0
3.536524169E0,-1.734796353E-2,-1.935195327E-1,9.813564301E0
3.538968700E0,-1.974078640E-2,-1.983051747E-1,9.844670296E0
3.541412450E0,-2.931207791E-2,-1.935195327E-1,9.847063065E0
3.543856981E0,-3.409772366E-2,-1.983051747E-1,9.847063065E0
3.546302398E0,-3.409772366E-2,-2.030908167E-1,9.868598938E0
3.548746877E0,-2.452643216E-2,-1.839482337E-1,9.880562782E0
3.551190627E0,-2.452643216E-2,-1.743769497E-1,9.921240807E0
3.553635263E0,-3.888336942E-2,-1.959123611E-1,9.882955551E0
3.556080627E0,-1.016949583E-2,-2.030908167E-1,9.897313118E0
3.558525106E0,-2.452643216E-2,-2.054836452E-1,9.899705887E0
3.560968856E0,-4.127619043E-2,-1.911267042E-1,9.911669731E0
3.563413388E0,-3.888336942E-2,-1.983051747E-1,9.933204651E0
3.565858804E0,-2.931207791E-2,-2.054836452E-1,9.940383911E0
3.568303283E0,-2.452643216E-2,-1.815554202E-1,9.937990189E0
3.570747085E0,-3.649054468E-2,-1.815554202E-1,9.947562218E0
3.573191617E0,-3.409772366E-2,-1.791625917E-1,9.954740524E0
3.575637033E0,-3.170489892E-2,-1.743769497E-1,9.918848038E0
3.578081513E0,-5.832505226E-2,-1.911267042E-1,9.878170013E0
3.580525263E0,-5.563312769E-2,-2.006980032E-1,9.878170013E0
3.582969898E0,-5.084748194E-2,-2.054836452E-1,9.849455833E0
3.585415210E0,-5.832505226E-2,-1.887338907E-1,9.856635094E0
3.587859742E0,-3.409772366E-2,-2.054836452E-1,9.847063065E0
3.590303492E0,-5.324030295E-2,-2.078764737E-1,9.868598938E0
3.592748023E0,-1.495514158E-2,-1.959123611E-1,9.868598938E0
3.595193440E0,-4.845465720E-2,-1.935195327E-1,9.863813400E0
3.597637919E0,-6.311069429E-2,-1.743769497E-1,9.880562782E0
3.600081669E0,-7.028916478E-2,-1.911267042E-1,9.921240807E0
3.602526304E0,-5.324030295E-2,-1.911267042E-1,9.926026344E0
3.604971617E0,-5.832505226E-2,-1.671984792E-1,9.899705887E0
3.607416148E0,-5.563312769E-2,-1.959123611E-1,9.902098656E0
3.609859898E0,-4.366901144E-2,-1.935195327E-1,9.892526627E0
3.612304429E0,-2.931207791E-2,-1.983051747E-1,9.861420631E0
3.614749846E0,-3.409772366E-2,-2.102692872E-1,9.854242325E0
3.617194325E0,-6.071787328E-2,-1.959123611E-1,9.844670296E0
3.619638075E0,-4.366901144E-2,-1.887338907E-1,9.859027863E0
3.622082710E0,-2.931207791E-2,-1.839482337E-1,9.868598938E0
3.624528023E0,-2.691925503E-2,-1.695913076E-1,9.868598938E0
3.626972554E0,-3.409772366E-2,-1.863410622E-1,9.902098656E0
3.629416304E0,-3.649054468E-2,-2.102692872E-1,9.918848038E0
3.631860940E0,-2.931207791E-2,-2.174477577E-1,9.904491425E0
3.634306252E0,-4.366901144E-2,-1.935195327E-1,9.921240807E0
3.636750731E0,-4.845465720E-2,-2.078764737E-1,9.937990189E0
3.639194533E0,-5.563312769E-2,-2.054836452E-1,9.880562782E0
3.641639065E0,-3.888336942E-2,-2.174477577E-1,9.885348320E0
3.644084481E0,-4.127619043E-2,-2.030908167E-1,9.894919395E0
3.646528960E0,-3.409772366E-2,-2.174477577E-1,9.882955551E0
3.648972710E0,-4.845465720E-2,-1.911267042E-1,9.904491425E0
3.651417346E0,-4.366901144E-2,-1.959123611E-1,9.904491425E0
3.653862658E0,-4.127619043E-2,-1.839482337E-1,9.904491425E0
3.656307190E0,-5.084748194E-2,-2.006980032E-1,9.892526627E0
3.658750940E0,-5.324030295E-2,-1.959123611E-1,9.875777245E0
3.661195471E0,-5.324030295E-2,-1.719841212E-1,9.847063065E0
3.663640888E0,-4.366901144E-2,-2.054836452E-1,9.856635094E0
3.666085367E0,-5.324030295E-2,-2.006980032E-1,9.844670296E0
3.668529117E0,-5.324030295E-2,-2.030908167E-1,9.837491989E0
3.670973752E0,-5.563312769E-2,-1.839482337E-1,9.870991707E0
3.673419065E0,-5.832505226E-2,-1.911267042E-1,9.887741089E0
3.675863596E0,-7.028916478E-2,-1.935195327E-1,9.906884193E0
3.678307346E0,-7.268198580E-2,-1.815554202E-1,9.902098656E0
3.680751877E0,-7.028916478E-2,-1.887338907E-1,9.923633575E0
3.683197294E0,-8.225327730E-2,-1.911267042E-1,9.911669731E0
3.685641773E0,-7.028916478E-2,-1.863410622E-1,9.897313118E0
3.688085523E0,-6.550352275E-2,-2.030908167E-1,9.878170013E0
3.690530158E0,-6.311069429E-2,-2.126621157E-1,9.899705887E0
3.692975523E0,-9.421738982E-2,-2.054836452E-1,9.861420631E0
3.695420002E0,-6.071787328E-2,-2.006980032E-1,9.878170013E0
3.697863752E0,-7.986045629E-2,-1.719841212E-1,9.873384476E0
3.700308283E0,-6.071787328E-2,-1.767697781E-1,9.882955551E0
3.702753700E0,-7.507480681E-2,-1.815554202E-1,9.899705887E0
3.705198179E0,-5.563312769E-2,-1.935195327E-1,9.914062500E0
3.707641981E0,-4.127619043E-2,-1.791625917E-1,9.904491425E0
3.710086513E0,-7.507480681E-2,-1.863410622E-1,9.921240807E0
3.712531929E0,-5.563312769E-2,-1.863410622E-1,9.899705887E0
3.714976408E0,-5.324030295E-2,-2.006980032E-1,9.914062500E0
3.717420158E0,-4.127619043E-2,-2.102692872E-1,9.878170013E0
3.719864794E0,-4.366901144E-2,-2.006980032E-1,9.885348320E0
3.722310106E0,-4.606183618E-2,-1.983051747E-1,9.894919395E0
3.724754638E0,-1.974078640E-2,-2.054836452E-1,9.882955551E0
3.727198388E0,-4.127619043E-2,-2.078764737E-1,9.873384476E0
3.729642919E0,-1.495514158E-2,-1.863410622E-1,9.880562782E0
3.732088335E0,-2.213360928E-2,-2.030908167E-1,9.906884193E0
3.734532815E0,-2.691925503E-2,-1.887338907E-1,9.906884193E0
3.736976565E0,-2.691925503E-2,-1.887338907E-1,9.897313118E0
3.739421200E0,-2.213360928E-2,-1.887338907E-1,9.856635094E0
3.741866513E0,-2.213360928E-2,-1.743769497E-1,9.882955551E0
3.744311044E0,-2.213360928E-2,-1.815554202E-1,9.859027863E0
3.746754794E0,-1.256231871E-2,-1.935195327E-1,9.880562782E0
3.749199325E0,-1.734796353E-2,-2.174477577E-1,9.882955551E0
3.751644742E0,-1.256231871E-2,-2.030908167E-1,9.904491425E0
3.754089221E0,-1.016949583E-2,-2.030908167E-1,9.902098656E0
3.756532971E0,-5.383851007E-3,-1.791625917E-1,9.921240807E0
3.758977606E0,-2.452643216E-2,-2.006980032E-1,9.909276962E0
3.761422919E0,-1.734796353E-2,-1.887338907E-1,9.926026344E0
3.763867450E0,-7.776673418E-3,-1.767697781E-1,9.933204651E0
3.766311200E0,-1.974078640E-2,-1.911267042E-1,9.870991707E0
3.768755731E0,-1.734796353E-2,-1.983051747E-1,9.837491989E0
3.771201148E0,-2.213360928E-2,-2.126621157E-1,9.861420631E0
3.773645627E0,-2.931207791E-2,-2.198405862E-1,9.882955551E0
3.776089429E0,-1.495514158E-2,-1.863410622E-1,9.863813400E0
3.778533960E0,-3.170489892E-2,-1.911267042E-1,9.856635094E0
3.780979377E0,-4.606183618E-2,-1.959123611E-1,9.890133858E0
3.783423856E0,-4.366901144E-2,-1.815554202E-1,9.892526627E0
3.785867606E0,-3.888336942E-2,-1.911267042E-1,9.873384476E0
3.788312242E0,-3.409772366E-2,-1.743769497E-1,9.880562782E0
3.790757554E0,-4.127619043E-2,-1.695913076E-1,9.880562782E0
3.793202085E0,-5.832505226E-2,-1.935195327E-1,9.880562782E0
3.795645835E0,-7.028916478E-2,-1.911267042E-1,9.880562782E0
3.798090367E0,-5.324030295E-2,-1.887338907E-1,9.859027863E0
3.800535783E0,-5.324030295E-2,-2.126621157E-1,9.863813400E0
3.802980263E0,-4.127619043E-2,-1.911267042E-1,9.904491425E0
3.805424013E0,-6.071787328E-2,-2.174477577E-1,9.880562782E0
3.807868648E0,-4.127619043E-2,-2.030908167E-1,9.909276962E0
3.810313960E0,-5.563312769E-2,-1.815554202E-1,9.904491425E0
3.812758492E0,-5.832505226E-2,-1.935195327E-1,9.952347755E0
3.815202242E0,-4.366901144E-2,-2.030908167E-1,9.906884193E0
3.817646773E0,-6.789634377E-2,-1.743769497E-1,9.861420631E0
3.820092190E0,-4.606183618E-2,-1.935195327E-1,9.885348320E0
3.822536669E0,-5.324030295E-2,-1.743769497E-1,9.866206169E0
3.824980419E0,-6.071787328E-2,-1.911267042E-1,9.863813400E0
3.827425054E0,-7.507480681E-2,-2.006980032E-1,9.863813400E0
3.829870367E0,-5.832505226E-2,-1.959123611E-1,9.868598938E0
3.832314898E0,-3.409772366E-2,-1.815554202E-1,9.902098656E0
3.834758648E0,-4.845465720E-2,-2.006980032E-1,9.887741089E0
3.837203179E0,-6.071787328E-2,-1.863410622E-1,9.859027863E0
3.839648596E0,-5.832505226E-2,-1.791625917E-1,9.890133858E0
3.842093127E0,-4.127619043E-2,-1.863410622E-1,9.899705887E0
3.844536877E0,-4.127619043E-2,-2.006980032E-1,9.897313118E0
3.846981408E0,-2.691925503E-2,-1.839482337E-1,9.875777245E0
3.849426825E0,-6.071787328E-2,-2.006980032E-1,9.854242325E0
3.851871304E0,-6.550352275E-2,-1.983051747E-1,9.894919395E0
3.854315054E0,-5.832505226E-2,-1.911267042E-1,9.890133858E0
3.856759690E0,-5.324030295E-2,-1.863410622E-1,9.854242325E0
3.859205002E0,-5.832505226E-2,-1.935195327E-1,9.880562782E0
3.861649533E0,-3.170489892E-2,-1.959123611E-1,9.880562782E0
3.864093283E0,-4.606183618E-2,-2.030908167E-1,9.899705887E0
3.866537815E0,-2.931207791E-2,-1.887338907E-1,9.882955551E0
3.868983231E0,-4.127619043E-2,-1.887338907E-1,9.892526627E0
3.871427710E0,-5.084748194E-2,-2.006980032E-1,9.892526627E0
3.873871460E0,-3.170489892E-2,-2.030908167E-1,9.875777245E0
3.876316096E0,-4.127619043E-2,-1.911267042E-1,9.885348320E0
3.878761408E0,-3.409772366E-2,-1.767697781E-1,9.894919395E0
3.881205940E0,-4.845465720E-2,-1.911267042E-1,9.873384476E0
3.883649690E0,-4.366901144E-2,-1.935195327E-1,9.866206169E0
3.886094221E0,-4.366901144E-2,-1.815554202E-1,9.875777245E0
3.888539638E0,-4.845465720E-2,-2.006980032E-1,9.902098656E0
3.890984117E0,-4.366901144E-2,-1.815554202E-1,9.885348320E0
3.893427919E0,-5.084748194E-2,-1.863410622E-1,9.887741089E0
3.895872450E0,-3.888336942E-2,-2.078764737E-1,9.892526627E0
3.898317867E0,-4.127619043E-2,-2.054836452E-1,9.894919395E0
3.900762346E0,-6.071787328E-2,-1.959123611E-1,9.875777245E0
3.903206096E0,-3.170489892E-2,-2.198405862E-1,9.880562782E0
3.905650627E0,-2.213360928E-2,-2.030908167E-1,9.885348320E0
3.908096044E0,-1.734796353E-2,-1.959123611E-1,9.882955551E0
3.910540575E0,-2.452643216E-2,-2.030908167E-1,9.885348320E0
3.912984325E0,-3.170489892E-2,-2.030908167E-1,9.899705887E0
3.915428856E0,-4.127619043E-2,-2.006980032E-1,9.902098656E0
3.917874273E0,-5.324030295E-2,-1.815554202E-1,9.885348320E0
3.920318752E0,-4.127619043E-2,-1.887338907E-1,9.878170013E0
3.922762502E0,-5.324030295E-2,-1.935195327E-1,9.878170013E0
3.925207138E0,-4.845465720E-2,-2.054836452E-1,9.897313118E0
3.927652450E0,-4.845465720E-2,-1.863410622E-1,9.866206169E0
3.930096981E0,-2.691925503E-2,-1.791625917E-1,9.856635094E0
3.932540731E0,-5.324030295E-2,-1.911267042E-1,9.863813400E0
3.934985263E0,-3.170489892E-2,-1.911267042E-1,9.878170013E0
3.937430679E0,-6.071787328E-2,-1.743769497E-1,9.882955551E0
3.939875158E0,-4.366901144E-2,-1.935195327E-1,9.902098656E0
3.942318908E0,-2.452643216E-2,-1.959123611E-1,9.880562782E0
3.944763544E0,-3.409772366E-2,-2.030908167E-1,9.887741089E0
3.947208856E0,-5.084748194E-2,-1.911267042E-1,9.892526627E0
3.949653388E0,-2.691925503E-2,-2.078764737E-1,9.882955551E0
3.952097138E0,-5.084748194E-2,-2.054836452E-1,9.868598938E0
3.954541669E0,-5.084748194E-2,-1.983051747E-1,9.887741089E0
3.956987085E0,-4.606183618E-2,-2.006980032E-1,9.875777245E0
3.959431565E0,-4.127619043E-2,-2.102692872E-1,9.887741089E0
3.961875315E0,-6.311069429E-2,-1.911267042E-1,9.897313118E0
3.964319950E0,-4.606183618E-2,-1.839482337E-1,9.904491425E0
3.966765315E0,-4.845465720E-2,-1.839482337E-1,9.906884193E0
3.969209794E0,-5.324030295E-2,-2.078764737E-1,9.904491425E0
3.971653544E0,-4.606183618E-2,-2.054836452E-1,9.887741089E0
3.974098075E0,-6.071787328E-2,-2.102692872E-1,9.892526627E0
3.976543492E0,-4.845465720E-2,-1.887338907E-1,9.878170013E0
3.978988023E0,-5.084748194E-2,-1.935195327E-1,9.902098656E0
3.981431773E0,-4.845465720E-2,-1.983051747E-1,9.921240807E0
3.983876304E0,-1.495514158E-2,-1.959123611E-1,9.890133858E0
3.986321721E0,-5.563312769E-2,-2.102692872E-1,9.892526627E0
3.988766200E0,-3.170489892E-2,-1.911267042E-1,9.909276962E0
3.991209950E0,-2.931207791E-2,-2.054836452E-1,9.892526627E0
3.993654585E0,-4.845465720E-2,-1.935195327E-1,9.890133858E0
3.996099898E0,-5.324030295E-2,-1.959123611E-1,9.878170013E0
3.998544429E0,-3.888336942E-2,-1.887338907E-1,9.832706451E0
4.000988179E0,-3.888336942E-2,-1.887338907E-1,9.866206169E0
4.003432710E0,-3.649054468E-2,-1.935195327E-1,9.861420631E0
4.005878127E0,-3.170489892E-2,-2.030908167E-1,9.880562782E0
4.008322606E0,-3.170489892E-2,-1.839482337E-1,9.882955551E0
4.010766408E0,-4.366901144E-2,-2.030908167E-1,9.870991707E0
4.013210940E0,-4.127619043E-2,-1.959123611E-1,9.863813400E0
4.015656356E0,-3.649054468E-2,-2.030908167E-1,9.870991707E0
4.018100835E0,-3.888336942E-2,-2.126621157E-1,9.897313118E0
4.020544585E0,-1.734796353E-2,-2.054836452E-1,9.882955551E0
4.022989221E0,-3.170489892E-2,-1.959123611E-1,9.916455269E0
4.025434533E0,-3.888336942E-2,-1.815554202E-1,9.887741089E0
4.027879065E0,-3.409772366E-2,-1.695913076E-1,9.902098656E0
4.030322815E0,-3.649054468E-2,-1.983051747E-1,9.880562782E0
4.032767346E0,-2.931207791E-2,-1.839482337E-1,9.902098656E0
4.035212763E0,-2.931207791E-2,-1.983051747E-1,9.906884193E0
4.037657242E0,-5.324030295E-2,-1.719841212E-1,9.868598938E0
4.040100992E0,-4.366901144E-2,-1.911267042E-1,9.882955551E0
4.042545627E0,-3.649054468E-2,-1.815554202E-1,9.885348320E0
4.044990940E0,-4.127619043E-2,-2.006980032E-1,9.866206169E0
4.047435471E0,-4.845465720E-2,-1.983051747E-1,9.878170013E0
4.049879221E0,-4.127619043E-2,-2.006980032E-1,9.870991707E0
4.052323752E0,-5.324030295E-2,-1.935195327E-1,9.875777245E0
4.054769169E0,-5.832505226E-2,-2.102692872E-1,9.866206169E0
4.057213648E0,-3.409772366E-2,-1.863410622E-1,9.878170013E0
4.059657398E0,-5.084748194E-2,-1.959123611E-1,9.870991707E0
4.062102033E0,-4.366901144E-2,-1.935195327E-1,9.890133858E0
4.064547346E0,-5.324030295E-2,-1.911267042E-1,9.887741089E0
4.066991877E0,-2.931207791E-2,-1.959123611E-1,9.882955551E0
4.069435627E0,-7.028916478E-2,-1.911267042E-1,9.887741089E0
4.071880158E0,-3.409772366E-2,-1.935195327E-1,9.892526627E0
4.074325575E0,-5.832505226E-2,-1.887338907E-1,9.878170013E0
4.076770106E0,-3.649054468E-2,-2.006980032E-1,9.878170013E0
4.079213856E0,-5.324030295E-2,-1.959123611E-1,9.868598938E0
4.081658388E0,-3.649054468E-2,-1.863410622E-1,9.899705887E0
4.084103804E0,-6.550352275E-2,-1.863410622E-1,9.897313118E0
4.086548283E0,-5.084748194E-2,-1.863410622E-1,9.880562782E0
4.088992033E0,-4.366901144E-2,-2.006980032E-1,9.870991707E0
4.091436669E0,-3.409772366E-2,-1.983051747E-1,9.894919395E0
4.093881981E0,-6.071787328E-2,-1.863410622E-1,9.906884193E0
4.096326513E0,-7.507480681E-2,-1.887338907E-1,9.885348320E0
4.098770263E0,-7.028916478E-2,-2.006980032E-1,9.904491425E0
4.101214794E0,-4.845465720E-2,-1.887338907E-1,9.890133858E0
4.103660210E0,-5.563312769E-2,-2.054836452E-1,9.859027863E0
4.106104690E0,-6.311069429E-2,-1.911267042E-1,9.842277527E0
4.108548440E0,-5.832505226E-2,-1.959123611E-1,9.880562782E0
4.110993075E0,-6.071787328E-2,-2.054836452E-1,9.899705887E0
4.113438440E0,-6.550352275E-2,-2.006980032E-1,9.904491425E0
4.115882919E0,-4.366901144E-2,-2.102692872E-1,9.880562782E0
4.118326669E0,-3.888336942E-2,-1.911267042E-1,9.863813400E0
4.120771200E0,-4.366901144E-2,-1.983051747E-1,9.887741089E0
4.123216617E0,-4.606183618E-2,-1.743769497E-1,9.882955551E0
4.125661096E0,-4.606183618E-2,-2.006980032E-1,9.902098656E0
4.128104898E0,-3.649054468E-2,-2.006980032E-1,9.861420631E0
4.130549429E0,-3.170489892E-2,-1.911267042E-1,9.882955551E0
4.132994846E0,-4.606183618E-2,-1.935195327E-1,9.911669731E0
4.135439325E0,-5.324030295E-2,-1.791625917E-1,9.897313118E0
4.137883075E0,-4.127619043E-2,-1.791625917E-1,9.880562782E0
4.140327710E0,-3.409772366E-2,-2.006980032E-1,9.866206169E0
4.142773023E0,-3.649054468E-2,-2.102692872E-1,9.904491425E0
4.145217554E0,-4.606183618E-2,-1.839482337E-1,9.861420631E0
4.147661304E0,-5.324030295E-2,-1.935195327E-1,9.875777245E0
4.150105835E0,-5.563312769E-2,-1.839482337E-1,9.897313118E0
4.152551252E0,-4.845465720E-2,-1.911267042E-1,9.882955551E0
4.154995731E0,-3.888336942E-2,-1.887338907E-1,9.870991707E0
4.157439481E0,-3.409772366E-2,-1.815554202E-1,9.885348320E0
4.159884117E0,-4.127619043E-2,-1.887338907E-1,9.892526627E0
4.162329429E0,-3.649054468E-2,-1.815554202E-1,9.894919395E0
4.164773960E0,-6.311069429E-2,-1.815554202E-1,9.885348320E0
4.167217710E0,-4.127619043E-2,-1.791625917E-1,9.887741089E0
4.169662242E0,-1.974078640E-2,-2.030908167E-1,9.906884193E0
4.172107658E0,-4.845465720E-2,-1.815554202E-1,9.880562782E0
4.174552138E0,-3.649054468E-2,-1.911267042E-1,9.880562782E0
4.176995940E0,-4.127619043E-2,-2.054836452E-1,9.870991707E0
4.179440471E0,-4.845465720E-2,-1.983051747E-1,9.868598938E0
4.181885888E0,-4.606183618E-2,-1.911267042E-1,9.890133858E0
4.184330367E0,-4.606183618E-2,-2.030908167E-1,9.892526627E0
4.186774117E0,-3.170489892E-2,-1.839482337E-1,9.885348320E0
4.189218752E0,-4.606183618E-2,-1.767697781E-1,9.909276962E0
4.191664065E0,-3.170489892E-2,-1.863410622E-1,9.892526627E0
4.194108596E0,-6.071787328E-2,-1.911267042E-1,9.880562782E0
4.196552346E0,-5.084748194E-2,-1.935195327E-1,9.878170013E0
4.198996877E0,-4.127619043E-2,-1.911267042E-1,9.890133858E0
4.201442294E0,-3.888336942E-2,-2.006980032E-1,9.899705887E0
4.203886773E0,-2.452643216E-2,-1.959123611E-1,9.890133858E0
4.206330523E0,-4.127619043E-2,-1.791625917E-1,9.873384476E0
4.208775158E0,-5.084748194E-2,-1.959123611E-1,9.854242325E0
4.211220471E0,-3.649054468E-2,-1.911267042E-1,9.906884193E0
4.213665002E0,-3.649054468E-2,-2.150549293E-1,9.899705887E0
4.216108752E0,-5.324030295E-2,-2.078764737E-1,9.906884193E0
4.218553283E0,-4.127619043E-2,-1.935195327E-1,9.880562782E0
4.220998700E0,-3.888336942E-2,-1.911267042E-1,9.914062500E0
4.223443179E0,-4.127619043E-2,-1.959123611E-1,9.887741089E0
4.225886981E0,-5.084748194E-2,-1.959123611E-1,9.878170013E0
4.228331513E0,-4.127619043E-2,-1.839482337E-1,9.854242325E0
4.230776929E0,-3.888336942E-2,-1.863410622E-1,9.873384476E0
4.233221408E0,-4.606183618E-2,-2.006980032E-1,9.878170013E0
4.235665158E0,-3.409772366E-2,-2.006980032E-1,9.866206169E0
4.238109794E0,-2.213360928E-2,-1.839482337E-1,9.885348320E0
4.240555106E0,-3.888336942E-2,-1.959123611E-1,9.880562782E0
4.242999638E0,-4.127619043E-2,-1.959123611E-1,9.873384476E0
4.245443388E0,-3.649054468E-2,-2.054836452E-1,9.866206169E0
4.247887919E0,-4.366901144E-2,-2.006980032E-1,9.878170013E0
4.250333335E0,-4.845465720E-2,-1.791625917E-1,9.904491425E0
4.252777815E0,-4.366901144E-2,-1.743769497E-1,9.885348320E0
4.255221565E0,-5.832505226E-2,-1.719841212E-1,9.873384476E0
4.257666200E0,-5.084748194E-2,-1.935195327E-1,9.887741089E0
4.260111513E0,-4.606183618E-2,-1.791625917E-1,9.892526627E0
4.262556044E0,-3.649054468E-2,-1.863410622E-1,9.887741089E0
4.264999794E0,-3.409772366E-2,-2.222333997E-1,9.914062500E0
4.267444325E0,-5.563312769E-2,-2.006980032E-1,9.909276962E0
4.269889742E0,-4.366901144E-2,-1.791625917E-1,9.892526627E0
4.272334221E0,-4.845465720E-2,-1.983051747E-1,9.911669731E0
4.274778023E0,-4.127619043E-2,-2.078764737E-1,9.902098656E0
4.277222554E0,-4.845465720E-2,-1.935195327E-1,9.887741089E0
4.279667971E0,-4.127619043E-2,-1.935195327E-1,9.892526627E0
4.282112450E0,-5.324030295E-2,-1.935195327E-1,9.875777245E0
4.284556200E0,-3.888336942E-2,-2.030908167E-1,9.875777245E0
4.287000835E0,-4.606183618E-2,-2.054836452E-1,9.868598938E0
4.289446148E0,-4.845465720E-2,-1.959123611E-1,9.887741089E0
4.291890679E0,-5.832505226E-2,-1.887338907E-1,9.870991707E0
4.294334429E0,-3.888336942E-2,-2.054836452E-1,9.909276962E0
4.296778960E0,-3.409772366E-2,-1.911267042E-1,9.890133858E0
4.299224377E0,-3.170489892E-2,-1.911267042E-1,9.882955551E0
4.301668856E0,-3.888336942E-2,-1.719841212E-1,9.892526627E0
4.304112606E0,-5.324030295E-2,-1.839482337E-1,9.873384476E0
4.306557242E0,-5.084748194E-2,-1.983051747E-1,9.880562782E0
4.309002554E0,-6.311069429E-2,-1.935195327E-1,9.887741089E0
4.311447085E0,-3.888336942E-2,-2.006980032E-1,9.875777245E0
4.313890835E0,-3.170489892E-2,-1.911267042E-1,9.878170013E0
4.316335367E0,-4.127619043E-2,-1.983051747E-1,9.875777245E0
4.318780783E0,-4.127619043E-2,-1.911267042E-1,9.880562782E0
4.321225263E0,-2.691925503E-2,-1.815554202E-1,9.880562782E0
4.323669065E0,-4.127619043E-2,-1.863410622E-1,9.892526627E0
4.326113596E0,-4.606183618E-2,-1.815554202E-1,9.873384476E0
4.328559013E0,-4.127619043E-2,-1.863410622E-1,9.892526627E0
4.331003492E0,-2.691925503E-2,-1.911267042E-1,9.887741089E0
4.333447242E0,-4.366901144E-2,-1.959123611E-1,9.904491425E0
4.335891877E0,-1.974078640E-2,-1.935195327E-1,9.904491425E0
4.338337190E0,-4.606183618E-2,-1.887338907E-1,9.863813400E0
4.340781721E0,-3.649054468E-2,-1.767697781E-1,9.894919395E0
4.343225471E0,-4.127619043E-2,-1.983051747E-1,9.873384476E0
4.345670002E0,-4.127619043E-2,-1.695913076E-1,9.885348320E0
4.348115419E0,-3.409772366E-2,-1.911267042E-1,9.885348320E0
4.350559898E0,-3.649054468E-2,-2.078764737E-1,9.911669731E0
4.353003648E0,-3.888336942E-2,-2.006980032E-1,9.873384476E0
4.355448283E0,-2.931207791E-2,-2.030908167E-1,9.904491425E0
4.357893596E0,-5.563312769E-2,-1.935195327E-1,9.897313118E0
4.360338127E0,-4.366901144E-2,-1.839482337E-1,9.892526627E0
4.362781877E0,-5.324030295E-2,-1.959123611E-1,9.854242325E0
4.365226408E0,-4.606183618E-2,-1.863410622E-1,9.878170013E0
4.367671825E0,-5.832505226E-2,-1.839482337E-1,9.875777245E0
4.370116304E0,-4.845465720E-2,-2.030908167E-1,9.906884193E0
4.372560106E0,-3.888336942E-2,-2.150549293E-1,9.880562782E0
4.375004638E0,-4.366901144E-2,-1.959123611E-1,9.873384476E0
4.377450054E0,-4.845465720E-2,-1.695913076E-1,9.863813400E0
4.379894533E0,-2.931207791E-2,-2.030908167E-1,9.873384476E0
4.382338283E0,-6.550352275E-2,-1.959123611E-1,9.878170013E0
4.384782919E0,-6.071787328E-2,-1.863410622E-1,9.856635094E0
4.387228231E0,-4.606183618E-2,-1.935195327E-1,9.859027863E0
4.389672763E0,-4.366901144E-2,-1.791625917E-1,9.882955551E0
4.392116513E0,-3.888336942E-2,-2.030908167E-1,9.892526627E0
4.394561044E0,-4.606183618E-2,-1.983051747E-1,9.882955551E0
4.397006460E0,-2.931207791E-2,-1.911267042E-1,9.863813400E0
4.399450940E0,-4.127619043E-2,-1.935195327E-1,9.880562782E0
4.401894690E0,-6.071787328E-2,-1.839482337E-1,9.911669731E0
4.404339325E0,-5.084748194E-2,-1.983051747E-1,9.897313118E0
4.406784638E0,-4.845465720E-2,-1.935195327E-1,9.892526627E0
4.409229169E0,-4.366901144E-2,-1.887338907E-1,9.897313118E0
4.411672919E0,-4.366901144E-2,-1.839482337E-1,9.909276962E0
4.414117450E0,-3.170489892E-2,-2.174477577E-1,9.899705887E0
4.416562867E0,-3.649054468E-2,-2.006980032E-1,9.882955551E0
4.419007398E0,-6.550352275E-2,-1.983051747E-1,9.892526627E0
4.421451148E0,-5.324030295E-2,-1.911267042E-1,9.878170013E0
4.423895679E0,-4.845465720E-2,-1.887338907E-1,9.878170013E0
4.426341096E0,-4.366901144E-2,-1.983051747E-1,9.880562782E0
4.428785575E0,-3.170489892E-2,-2.294118702E-1,9.882955551E0
4.431229325E0,-4.606183618E-2,-2.030908167E-1,9.882955551E0
4.433673960E0,-1.256231871E-2,-1.911267042E-1,9.890133858E0
4.436119273E0,-1.734796353E-2,-1.815554202E-1,9.899705887E0
4.438563804E0,-4.127619043E-2,-1.983051747E-1,9.868598938E0
4.441007554E0,-3.409772366E-2,-1.911267042E-1,9.851848602E0
4.443452085E0,-4.845465720E-2,-2.006980032E-1,9.897313118E0
4.445897502E0,-4.127619043E-2,-2.006980032E-1,9.902098656E0
4.448341981E0,-3.409772366E-2,-1.767697781E-1,9.890133858E0
4.450785783E0,-2.931207791E-2,-1.887338907E-1,9.899705887E0
4.453230315E0,-1.734796353E-2,-2.006980032E-1,9.909276962E0
4.455675731E0,-4.127619043E-2,-1.935195327E-1,9.906884193E0
4.458120210E0,-4.366901144E-2,-1.959123611E-1,9.904491425E0
4.460563960E0,-4.606183618E-2,-2.030908167E-1,9.894919395E0
4.463008492E0,-2.691925503E-2,-1.815554202E-1,9.899705887E0
4.465453908E0,-1.974078640E-2,-1.863410622E-1,9.859027863E0
4.467898388E0,-5.324030295E-2,-1.719841212E-1,9.842277527E0
4.470342190E0,-6.311069429E-2,-1.767697781E-1,9.851848602E0
4.472786721E0,-3.409772366E-2,-2.006980032E-1,9.875777245E0
4.475232138E0,-3.649054468E-2,-1.959123611E-1,9.897313118E0
4.477676617E0,-5.563312769E-2,-1.935195327E-1,9.926026344E0
4.480120367E0,-5.563312769E-2,-1.935195327E-1,9.923633575E0
4.482565002E0,-5.084748194E-2,-1.935195327E-1,9.928419113E0
4.485010315E0,-5.832505226E-2,-2.054836452E-1,9.880562782E0
4.487454846E0,-4.845465720E-2,-1.839482337E-1,9.873384476E0
4.489898596E0,-4.127619043E-2,-2.006980032E-1,9.880562782E0
4.492343127E0,-5.832505226E-2,-2.150549293E-1,9.885348320E0
4.494788544E0,-4.606183618E-2,-1.887338907E-1,9.880562782E0
4.497233023E0,-4.366901144E-2,-2.054836452E-1,9.909276962E0
4.499676825E0,-7.028916478E-2,-1.911267042E-1,9.868598938E0
4.502121356E0,-6.311069429E-2,-1.671984792E-1,9.887741089E0
4.504566773E0,-6.311069429E-2,-1.887338907E-1,9.909276962E0
4.507011252E0,-3.409772366E-2,-1.648056656E-1,9.873384476E0
4.509455002E0,-5.324030295E-2,-2.054836452E-1,9.890133858E0
4.511899638E0,-4.606183618E-2,-2.006980032E-1,9.892526627E0
4.514344950E0,-6.311069429E-2,-1.983051747E-1,9.875777245E0
4.516789481E0,-5.324030295E-2,-1.959123611E-1,9.851848602E0
4.519233231E0,-4.606183618E-2,-1.839482337E-1,9.882955551E0
4.521677763E0,-5.084748194E-2,-1.911267042E-1,9.868598938E0
4.524123179E0,-5.084748194E-2,-2.054836452E-1,9.902098656E0
4.526567658E0,-3.409772366E-2,-1.935195327E-1,9.873384476E0
4.529011408E0,-3.888336942E-2,-2.030908167E-1,9.882955551E0
4.531456044E0,-3.170489892E-2,-1.935195327E-1,9.880562782E0
4.533901356E0,-3.649054468E-2,-2.006980032E-1,9.916455269E0
4.536345888E0,-5.084748194E-2,-2.006980032E-1,9.894919395E0
4.538789638E0,-5.563312769E-2,-2.054836452E-1,9.880562782E0
4.541234169E0,-5.563312769E-2,-2.126621157E-1,9.890133858E0
4.543679585E0,-2.931207791E-2,-1.911267042E-1,9.892526627E0
4.546124065E0,-3.409772366E-2,-1.887338907E-1,9.897313118E0
4.548567867E0,-6.071787328E-2,-2.054836452E-1,9.868598938E0
4.551012398E0,-2.691925503E-2,-1.911267042E-1,9.880562782E0
4.553457815E0,-4.366901144E-2,-2.198405862E-1,9.897313118E0
4.555902294E0,-3.649054468E-2,-1.911267042E-1,9.894919395E0
4.558346044E0,-5.084748194E-2,-1.935195327E-1,9.890133858E0
4.560790679E0,-4.127619043E-2,-2.006980032E-1,9.909276962E0
4.563235992E0,-5.563312769E-2,-1.911267042E-1,9.904491425E0
4.565680523E0,-5.324030295E-2,-1.767697781E-1,9.885348320E0
4.568124273E0,-5.084748194E-2,-1.935195327E-1,9.870991707E0
4.570568804E0,-4.606183618E-2,-2.006980032E-1,9.870991707E0
4.573014221E0,-2.691925503E-2,-2.030908167E-1,9.868598938E0
4.575458700E0,-5.832505226E-2,-1.887338907E-1,9.861420631E0
4.577902450E0,-5.324030295E-2,-1.983051747E-1,9.892526627E0
4.580347085E0,-3.409772366E-2,-2.102692872E-1,9.892526627E0
4.582792450E0,-3.170489892E-2,-1.935195327E-1,9.892526627E0
4.585236929E0,-4.606183618E-2,-1.911267042E-1,9.856635094E0
4.587680679E0,-4.127619043E-2,-1.911267042E-1,9.875777245E0
4.590125315E0,-3.649054468E-2,-1.863410622E-1,9.873384476E0
4.592570627E0,-4.606183618E-2,-2.126621157E-1,9.878170013E0
4.595015158E0,-5.324030295E-2,-2.030908167E-1,9.868598938E0
4.597458908E0,-4.366901144E-2,-2.054836452E-1,9.890133858E0
4.599903440E0,-5.324030295E-2,-1.887338907E-1,9.902098656E0
4.602348856E0,-3.409772366E-2,-1.983051747E-1,9.894919395E0
4.604793335E0,-5.832505226E-2,-1.935195327E-1,9.892526627E0
4.607237085E0,-4.366901144E-2,-2.126621157E-1,9.914062500E0
4.609681721E0,-3.409772366E-2,-1.983051747E-1,9.904491425E0
4.612127033E0,-3.409772366E-2,-1.935195327E-1,9.885348320E0
4.614571565E0,-3.888336942E-2,-1.959123611E-1,9.890133858E0
4.617015315E0,-2.452643216E-2,-1.935195327E-1,9.892526627E0
4.619459846E0,-2.691925503E-2,-1.983051747E-1,9.880562782E0
4.621905263E0,-2.213360928E-2,-2.030908167E-1,9.851848602E0
4.624349742E0,-3.649054468E-2,-2.006980032E-1,9.847063065E0
4.626793492E0,-4.366901144E-2,-1.983051747E-1,9.861420631E0
4.629238127E0,-3.409772366E-2,-2.054836452E-1,9.892526627E0
4.631683492E0,-4.127619043E-2,-1.815554202E-1,9.916455269E0
4.634127971E0,-5.324030295E-2,-1.983051747E-1,9.880562782E0
4.636571721E0,-3.409772366E-2,-1.839482337E-1,9.890133858E0
4.639016356E0,-4.366901144E-2,-1.887338907E-1,9.902098656E0
4.641461669E0,-3.888336942E-2,-1.911267042E-1,9.916455269E0
4.643906200E0,-4.366901144E-2,-2.150549293E-1,9.899705887E0
4.646349950E0,-5.084748194E-2,-2.030908167E-1,9.909276962E0
4.648794481E0,-3.409772366E-2,-1.935195327E-1,9.892526627E0
4.651239898E0,-4.366901144E-2,-1.983051747E-1,9.878170013E0
4.653684377E0,-4.845465720E-2,-1.911267042E-1,9.885348320E0
4.656128127E0,-2.931207791E-2,-1.983051747E-1,9.868598938E0
4.658572763E0,-2.931207791E-2,-2.006980032E-1,9.861420631E0
4.661018075E0,-2.931207791E-2,-2.054836452E-1,9.863813400E0
4.663462606E0,-4.606183618E-2,-2.054836452E-1,9.882955551E0
4.665906356E0,-4.606183618E-2,-1.983051747E-1,9.887741089E0
4.668350888E0,-5.832505226E-2,-1.791625917E-1,9.854242325E0
4.670796304E0,-5.832505226E-2,-1.887338907E-1,9.868598938E0
4.673240783E0,-3.888336942E-2,-1.767697781E-1,9.859027863E0
4.675684585E0,-4.845465720E-2,-2.006980032E-1,9.892526627E0
4.678129117E0,-3.888336942E-2,-2.030908167E-1,9.870991707E0
4.680574533E0,-5.324030295E-2,-1.935195327E-1,9.880562782E0
4.683019013E0,-5.563312769E-2,-2.078764737E-1,9.899705887E0
4.685462763E0,-5.324030295E-2,-1.935195327E-1,9.868598938E0
4.687907398E0,-5.084748194E-2,-2.102692872E-1,9.899705887E0
4.690352710E0,-3.888336942E-2,-2.030908167E-1,9.866206169E0
4.692797242E0,-3.409772366E-2,-1.719841212E-1,9.875777245E0
4.695240992E0,-6.071787328E-2,-1.911267042E-1,9.875777245E0
4.697685523E0,-5.084748194E-2,-1.911267042E-1,9.878170013E0
4.700130940E0,-4.366901144E-2,-1.959123611E-1,9.890133858E0
4.702575419E0,-5.832505226E-2,-2.030908167E-1,9.885348320E0
4.705019221E0,-5.084748194E-2,-1.935195327E-1,9.885348320E0
4.707463752E0,-5.324030295E-2,-2.078764737E-1,9.885348320E0
4.709909169E0,-5.832505226E-2,-1.791625917E-1,9.887741089E0
4.712353648E0,-6.071787328E-2,-1.863410622E-1,9.880562782E0
4.714797398E0,-3.409772366E-2,-2.102692872E-1,9.866206169E0
4.717242033E0,-2.452643216E-2,-1.839482337E-1,9.861420631E0
4.719687346E0,-6.071787328E-2,-1.935195327E-1,9.882955551E0
4.722131877E0,-4.127619043E-2,-2.054836452E-1,9.894919395E0
4.724575627E0,-6.550352275E-2,-1.887338907E-1,9.866206169E0
4.727020158E0,-5.832505226E-2,-2.030908167E-1,9.890133858E0
4.729465575E0,-3.888336942E-2,-1.983051747E-1,9.880562782E0
4.731910054E0,-4.366901144E-2,-1.719841212E-1,9.887741089E0
4.734353804E0,-3.170489892E-2,-1.911267042E-1,9.880562782E0
4.736798440E0,-4.127619043E-2,-1.887338907E-1,9.897313118E0
4.739243752E0,-1.974078640E-2,-2.030908167E-1,9.890133858E0
4.741688283E0,-4.127619043E-2,-2.030908167E-1,9.904491425E0
4.744132033E0,-3.649054468E-2,-2.054836452E-1,9.892526627E0
4.746576565E0,-2.213360928E-2,-2.078764737E-1,9.861420631E0
4.749021981E0,-4.366901144E-2,-1.935195327E-1,9.885348320E0
4.751466460E0,-4.606183618E-2,-2.078764737E-1,9.885348320E0
4.753910263E0,-3.649054468E-2,-1.935195327E-1,9.875777245E0
4.756354794E0,-2.213360928E-2,-1.863410622E-1,9.906884193E0
4.758800210E0,-3.649054468E-2,-1.887338907E-1,9.909276962E0
4.761244690E0,-4.127619043E-2,-1.959123611E-1,9.904491425E0
4.763688440E0,-5.563312769E-2,-1.887338907E-1,9.902098656E0
4.766133075E0,-2.452643216E-2,-2.102692872E-1,9.899705887E0
4.768578388E0,-5.563312769E-2,-1.911267042E-1,9.904491425E0
4.771022919E0,-5.832505226E-2,-1.959123611E-1,9.897313118E0
4.773466669E0,-3.888336942E-2,-2.126621157E-1,9.892526627E0
4.775911200E0,-3.888336942E-2,-2.102692872E-1,9.861420631E0
4.778356617E0,-5.084748194E-2,-2.078764737E-1,9.863813400E0
4.780801096E0,-4.127619043E-2,-1.815554202E-1,9.854242325E0
4.783244898E0,-3.888336942E-2,-1.959123611E-1,9.870991707E0
4.785689429E0,-4.366901144E-2,-2.030908167E-1,9.890133858E0
4.788134846E0,-3.888336942E-2,-1.911267042E-1,9.875777245E0
4.790579325E0,-3.170489892E-2,-1.935195327E-1,9.859027863E0
4.793023075E0,-4.845465720E-2,-1.863410622E-1,9.885348320E0
4.795467710E0,-4.606183618E-2,-1.863410622E-1,9.892526627E0
4.797913023E0,-3.409772366E-2,-1.887338907E-1,9.899705887E0
4.800357554E0,-4.127619043E-2,-1.983051747E-1,9.870991707E0
4.802801304E0,-3.649054468E-2,-2.150549293E-1,9.873384476E0
4.805245835E0,-3.409772366E-2,-1.959123611E-1,9.885348320E0
4.807691252E0,-2.452643216E-2,-2.030908167E-1,9.906884193E0
4.810135731E0,-5.563312769E-2,-1.983051747E-1,9.885348320E0
4.812579481E0,-3.888336942E-2,-2.030908167E-1,9.897313118E0
4.815024117E0,-4.606183618E-2,-1.911267042E-1,9.887741089E0
4.817469429E0,-2.931207791E-2,-1.815554202E-1,9.887741089E0
4.819913960E0,-2.213360928E-2,-1.935195327E-1,9.904491425E0
4.822358596E0,-2.931207791E-2,-1.935195327E-1,9.885348320E0
4.824802242E0,-2.931207791E-2,-2.054836452E-1,9.892526627E0
4.827247658E0,-4.366901144E-2,-2.006980032E-1,9.882955551E0
4.829692138E0,-4.845465720E-2,-2.174477577E-1,9.868598938E0
4.832135940E0,-4.606183618E-2,-2.030908167E-1,9.906884193E0
4.834580471E0,-4.366901144E-2,-2.078764737E-1,9.875777245E0
4.837025888E0,-5.324030295E-2,-2.030908167E-1,9.882955551E0
4.839470367E0,-2.931207791E-2,-1.863410622E-1,9.875777245E0
4.841914117E0,-4.127619043E-2,-1.959123611E-1,9.866206169E0
4.844358752E0,-3.649054468E-2,-2.030908167E-1,9.887741089E0
4.846804065E0,-5.084748194E-2,-2.006980032E-1,9.880562782E0
4.849248596E0,-3.649054468E-2,-2.006980032E-1,9.856635094E0
4.851692346E0,-4.845465720E-2,-1.791625917E-1,9.875777245E0
4.854136877E0,-2.213360928E-2,-1.911267042E-1,9.887741089E0
4.856582294E0,-3.649054468E-2,-1.815554202E-1,9.885348320E0
4.859026773E0,-5.563312769E-2,-1.911267042E-1,9.880562782E0
4.861470523E0,-5.832505226E-2,-2.054836452E-1,9.892526627E0
4.863915158E0,-4.845465720E-2,-2.078764737E-1,9.904491425E0
4.866360523E0,-4.366901144E-2,-1.983051747E-1,9.894919395E0
4.868805002E0,-6.071787328E-2,-1.911267042E-1,9.894919395E0
4.871248752E0,-5.324030295E-2,-1.935195327E-1,9.892526627E0
4.873693388E0,-6.071787328E-2,-1.935195327E-1,9.918848038E0
4.876138700E0,-4.606183618E-2,-1.983051747E-1,9.866206169E0
4.878583231E0,-3.888336942E-2,-1.863410622E-1,9.868598938E0
4.881026981E0,-4.366901144E-2,-1.983051747E-1,9.892526627E0
4.883471513E0,-5.324030295E-2,-1.863410622E-1,9.885348320E0
4.885916929E0,-5.832505226E-2,-2.006980032E-1,9.899705887E0
4.888361408E0,-5.563312769E-2,-1.863410622E-1,9.897313118E0
4.890805158E0,-5.324030295E-2,-2.150549293E-1,9.885348320E0
4.893249794E0,-4.606183618E-2,-1.815554202E-1,9.880562782E0
4.895695158E0,-4.606183618E-2,-2.006980032E-1,9.880562782E0
