"Time (s)","Gyroscope x (rad/s)","Gyroscope y (rad/s)","Gyroscope z (rad/s)"
5.173953300E-2,-9.162708884E-4,-2.290677279E-3,-2.596100792E-3
5.418495000E-2,-2.137965523E-3,-1.068982761E-3,-1.374406274E-3
5.662942900E-2,-2.137965523E-3,-1.068982761E-3,-5.039489828E-3
5.907317900E-2,3.054236295E-4,1.527118147E-4,-2.596100792E-3
6.151781500E-2,3.054236295E-4,-1.068982761E-3,1.068982761E-3
6.396312700E-2,-9.162708884E-4,-2.290677279E-3,-1.374406274E-3
6.640765800E-2,-2.137965523E-3,1.527118147E-4,1.068982761E-3
6.885140800E-2,3.054236295E-4,1.527118147E-4,-1.374406274E-3
7.129594000E-2,3.054236295E-4,1.527118147E-4,-1.374406274E-3
7.374135600E-2,-9.162708884E-4,1.527118147E-4,-1.527118147E-4
7.618583500E-2,3.054236295E-4,-1.068982761E-3,-1.527118147E-4
7.862958500E-2,-9.162708884E-4,-2.290677279E-3,-1.527118147E-4
8.107411700E-2,3.054236295E-4,-1.068982761E-3,-1.527118147E-4
8.351953300E-2,-4.581354558E-3,-1.068982761E-3,-1.527118147E-4
8.596401300E-2,-9.162708884E-4,1.374406274E-3,-2.596100792E-3
8.840776300E-2,1.527118147E-3,-1.068982761E-3,-1.374406274E-3
9.085239800E-2,1.527118147E-3,-1.068982761E-3,-1.527118147E-4
9.329771000E-2,1.527118147E-3,-2.290677279E-3,-1.527118147E-4
9.574224200E-2,-9.162708884E-4,-1.068982761E-3,-1.527118147E-4
9.818599200E-2,3.054236295E-4,-1.068982761E-3,1.068982761E-3
1.006305230E-1,1.527118147E-3,-1.068982761E-3,1.068982761E-3
1.030759400E-1,-9.162708884E-4,1.374406274E-3,-1.527118147E-4
1.055204190E-1,3.054236295E-4,-1.068982761E-3,-1.374406274E-3
1.079641690E-1,3.054236295E-4,1.527118147E-4,-2.596100792E-3
1.104087000E-1,-9.162708884E-4,1.527118147E-4,-1.527118147E-4
1.128541170E-1,-9.162708884E-4,-1.068982761E-3,-1.527118147E-4
1.152985960E-1,3.054236295E-4,-2.290677279E-3,-1.374406274E-3
1.177423460E-1,-9.162708884E-4,-1.068982761E-3,-1.527118147E-4
1.201869810E-1,-9.162708884E-4,1.527118147E-4,-1.374406274E-3
1.226322940E-1,-9.162708884E-4,1.374406274E-3,-1.374406274E-3
1.250767730E-1,-9.162708884E-4,-1.068982761E-3,-1.527118147E-4
1.275205750E-1,-9.162708884E-4,1.527118147E-4,-1.374406274E-3
1.299651060E-1,3.054236295E-4,1.527118147E-4,-1.527118147E-4
1.324105230E-1,1.527118147E-3,-1.068982761E-3,-1.527118147E-4
1.348550020E-1,3.054236295E-4,-2.290677279E-3,-1.374406274E-3
1.372987520E-1,1.527118147E-3,-2.290677279E-3,-2.596100792E-3
1.397432830E-1,1.527118147E-3,1.527118147E-4,-2.596100792E-3
1.421887000E-1,3.054236295E-4,-1.068982761E-3,-1.527118147E-4
1.446331790E-1,3.054236295E-4,-1.068982761E-3,1.068982761E-3
1.470769290E-1,3.054236295E-4,-1.068982761E-3,-2.596100792E-3
1.495215650E-1,3.054236295E-4,1.527118147E-4,-1.527118147E-4
1.519668770E-1,3.054236295E-4,1.527118147E-4,-2.596100792E-3
1.544113560E-1,3.054236295E-4,1.527118147E-4,-1.527118147E-4
1.568551580E-1,3.054236295E-4,-1.068982761E-3,-1.374406274E-3
1.592996900E-1,1.527118147E-3,-1.068982761E-3,-1.374406274E-3
1.617450540E-1,3.054236295E-4,-1.068982761E-3,-2.596100792E-3
1.641895850E-1,3.054236295E-4,1.527118147E-4,1.068982761E-3
1.666333350E-1,1.527118147E-3,-1.068982761E-3,-1.527118147E-4
1.690778670E-1,-9.162708884E-4,1.374406274E-3,-5.039489828E-3
1.715232830E-1,-9.162708884E-4,-1.068982761E-3,-2.596100792E-3
1.739677630E-1,-9.162708884E-4,1.374406274E-3,2.290677279E-3
1.764115130E-1,-9.162708884E-4,1.527118147E-4,-1.527118147E-4
1.788561480E-1,3.054236295E-4,-1.068982761E-3,-2.596100792E-3
1.813014600E-1,-9.162708884E-4,-1.068982761E-3,-2.596100792E-3
1.837459400E-1,3.054236295E-4,-1.068982761E-3,-1.527118147E-4
1.861896900E-1,3.054236295E-4,-1.068982761E-3,1.068982761E-3
1.886343250E-1,3.054236295E-4,-1.068982761E-3,1.068982761E-3
1.910796380E-1,1.527118147E-3,1.527118147E-4,-1.527118147E-4
1.935241690E-1,3.054236295E-4,-1.068982761E-3,1.068982761E-3
1.959679190E-1,3.054236295E-4,1.527118147E-4,-1.374406274E-3
1.984124500E-1,3.054236295E-4,1.527118147E-4,-1.374406274E-3
2.008578670E-1,3.054236295E-4,-1.068982761E-3,-1.374406274E-3
2.033023460E-1,3.054236295E-4,-2.290677279E-3,-1.527118147E-4
2.057460960E-1,3.054236295E-4,-1.068982761E-3,-1.527118147E-4
2.081907310E-1,3.054236295E-4,-2.290677279E-3,-1.527118147E-4
2.106360440E-1,-9.162708884E-4,1.527118147E-4,-1.527118147E-4
2.130805230E-1,3.054236295E-4,-1.068982761E-3,1.068982761E-3
2.155243250E-1,1.527118147E-3,-1.068982761E-3,-1.527118147E-4
2.179688560E-1,-9.162708884E-4,-1.068982761E-3,-1.374406274E-3
2.204142210E-1,3.054236295E-4,-2.290677279E-3,-1.374406274E-3
2.228587520E-1,3.054236295E-4,-1.068982761E-3,-1.374406274E-3
2.253025020E-1,3.054236295E-4,1.527118147E-4,1.068982761E-3
2.277470330E-1,1.527118147E-3,1.527118147E-4,-1.527118147E-4
2.301924500E-1,1.527118147E-3,-1.068982761E-3,-2.596100792E-3
2.326369290E-1,3.054236295E-4,-1.068982761E-3,-2.596100792E-3
2.350806790E-1,-9.162708884E-4,1.527118147E-4,-1.374406274E-3
2.375252100E-1,-9.162708884E-4,1.527118147E-4,-1.374406274E-3
2.399706270E-1,3.054236295E-4,-1.068982761E-3,-2.596100792E-3
2.424151060E-1,3.054236295E-4,-1.068982761E-3,-2.596100792E-3
2.448588560E-1,3.054236295E-4,-1.068982761E-3,-1.374406274E-3
2.473034920E-1,-9.162708884E-4,1.527118147E-4,-2.596100792E-3
2.497488040E-1,-9.162708884E-4,1.527118147E-4,-5.039489828E-3
2.521933350E-1,-9.162708884E-4,-1.068982761E-3,-1.527118147E-4
2.546370850E-1,1.527118147E-3,1.374406274E-3,1.068982761E-3
2.570816170E-1,3.054236295E-4,1.374406274E-3,-1.527118147E-4
2.595270330E-1,3.054236295E-4,1.527118147E-4,-1.374406274E-3
2.619715130E-1,3.054236295E-4,-1.068982761E-3,-1.527118147E-4
2.644152630E-1,3.054236295E-4,1.527118147E-4,1.068982761E-3
2.668597940E-1,3.054236295E-4,-1.068982761E-3,-2.596100792E-3
2.693052100E-1,3.054236295E-4,-1.068982761E-3,-2.596100792E-3
2.717496900E-1,1.527118147E-3,-1.068982761E-3,-1.527118147E-4
2.741934400E-1,-9.162708884E-4,-1.068982761E-3,1.068982761E-3
2.766380750E-1,-9.162708884E-4,-1.068982761E-3,-1.527118147E-4
2.790833880E-1,3.054236295E-4,-2.290677279E-3,-1.527118147E-4
2.815279190E-1,-9.162708884E-4,-2.290677279E-3,-1.527118147E-4
2.839716690E-1,-9.162708884E-4,-2.290677279E-3,-1.527118147E-4
2.864162000E-1,-9.162708884E-4,-2.290677279E-3,-1.527118147E-4
2.888616170E-1,3.054236295E-4,-1.068982761E-3,-1.374406274E-3
2.913060960E-1,3.054236295E-4,-1.068982761E-3,-2.596100792E-3
2.937498460E-1,1.527118147E-3,-1.068982761E-3,-1.374406274E-3
2.961944810E-1,1.527118147E-3,-2.290677279E-3,1.068982761E-3
2.986397940E-1,1.527118147E-3,-1.068982761E-3,-1.527118147E-4
3.010842730E-1,3.054236295E-4,-2.290677279E-3,-1.374406274E-3
3.035280230E-1,-9.162708884E-4,-2.290677279E-3,-1.374406274E-3
3.059726580E-1,3.054236295E-4,-1.068982761E-3,-1.527118147E-4
3.084179710E-1,1.527118147E-3,-2.290677279E-3,-1.374406274E-3
3.108625020E-1,1.527118147E-3,-1.068982761E-3,-1.374406274E-3
3.133062520E-1,-2.137965523E-3,-1.068982761E-3,-1.374406274E-3
3.157507830E-1,-9.162708884E-4,1.527118147E-4,-1.527118147E-4
3.181962000E-1,3.054236295E-4,1.527118147E-4,-1.374406274E-3
3.206406790E-1,-9.162708884E-4,1.374406274E-3,-1.374406274E-3
3.230844290E-1,1.527118147E-3,1.527118147E-4,-1.527118147E-4
3.255289600E-1,1.527118147E-3,-2.290677279E-3,1.068982761E-3
3.279743770E-1,-9.162708884E-4,-2.290677279E-3,1.068982761E-3
3.304188560E-1,3.054236295E-4,-1.068982761E-3,-1.527118147E-4
3.328626580E-1,3.054236295E-4,1.374406274E-3,-1.374406274E-3
3.353071900E-1,1.527118147E-3,1.527118147E-4,-1.527118147E-4
3.377526060E-1,1.527118147E-3,1.527118147E-4,-1.374406274E-3
3.401970850E-1,3.054236295E-4,1.374406274E-3,1.068982761E-3
3.426408350E-1,1.527118147E-3,-1.068982761E-3,-1.527118147E-4
3.450853670E-1,3.054236295E-4,-2.290677279E-3,1.068982761E-3
3.475307830E-1,-2.137965523E-3,-1.068982761E-3,-1.527118147E-4
3.499752630E-1,-9.162708884E-4,1.527118147E-4,-1.527118147E-4
3.524190130E-1,-9.162708884E-4,1.527118147E-4,-1.374406274E-3
3.548635440E-1,1.527118147E-3,1.527118147E-4,1.068982761E-3
3.573089600E-1,3.054236295E-4,-1.068982761E-3,-1.374406274E-3
3.597534400E-1,1.527118147E-3,-1.068982761E-3,-1.527118147E-4
3.621971900E-1,3.054236295E-4,1.374406274E-3,-1.527118147E-4
3.646418250E-1,-9.162708884E-4,-1.068982761E-3,-1.374406274E-3
3.670871380E-1,-9.162708884E-4,-1.068982761E-3,-1.374406274E-3
3.695316690E-1,-9.162708884E-4,-2.290677279E-3,-3.817795310E-3
3.719754190E-1,-9.162708884E-4,-1.068982761E-3,-1.374406274E-3
3.744199500E-1,1.527118147E-3,-1.068982761E-3,-1.374406274E-3
3.768653670E-1,-9.162708884E-4,1.527118147E-4,-1.374406274E-3
3.793098460E-1,3.054236295E-4,-1.068982761E-3,-1.527118147E-4
3.817535960E-1,3.054236295E-4,1.527118147E-4,-1.374406274E-3
3.841981270E-1,-9.162708884E-4,-1.068982761E-3,-1.374406274E-3
3.866435440E-1,3.054236295E-4,-1.068982761E-3,-1.374406274E-3
3.890880230E-1,3.054236295E-4,-1.068982761E-3,-1.374406274E-3
3.915317730E-1,3.054236295E-4,1.527118147E-4,-1.527118147E-4
3.939764080E-1,1.527118147E-3,1.527118147E-4,-2.596100792E-3
3.964217210E-1,3.054236295E-4,-1.068982761E-3,1.068982761E-3
3.988662520E-1,3.054236295E-4,-1.068982761E-3,-1.527118147E-4
4.013100020E-1,-2.137965523E-3,1.527118147E-4,-1.374406274E-3
4.037545330E-1,3.054236295E-4,1.374406274E-3,-1.527118147E-4
4.061999500E-1,1.527118147E-3,1.527118147E-4,-1.374406274E-3
4.086444290E-1,3.054236295E-4,-1.068982761E-3,-2.596100792E-3
4.110881790E-1,3.054236295E-4,-1.068982761E-3,-1.527118147E-4
4.135327100E-1,1.527118147E-3,1.527118147E-4,-1.527118147E-4
4.159781270E-1,1.527118147E-3,2.596100792E-3,1.068982761E-3
4.184226060E-1,3.054236295E-4,1.374406274E-3,1.068982761E-3
4.208663560E-1,-9.162708884E-4,1.527118147E-4,-1.374406274E-3
4.233109920E-1,-9.162708884E-4,-1.068982761E-3,-2.596100792E-3
4.257563040E-1,-9.162708884E-4,-1.068982761E-3,-3.817795310E-3
4.282008350E-1,3.054236295E-4,-1.068982761E-3,-1.527118147E-4
4.306445850E-1,-9.162708884E-4,1.374406274E-3,-2.596100792E-3
4.330891170E-1,-2.137965523E-3,1.374406274E-3,-2.596100792E-3
4.355345330E-1,3.054236295E-4,-1.068982761E-3,1.068982761E-3
4.379790130E-1,1.527118147E-3,-1.068982761E-3,-1.527118147E-4
4.404227630E-1,-9.162708884E-4,1.527118147E-4,1.068982761E-3
4.428673980E-1,3.054236295E-4,-1.068982761E-3,-1.527118147E-4
4.453127100E-1,-9.162708884E-4,1.527118147E-4,-1.527118147E-4
4.477571900E-1,-9.162708884E-4,-2.290677279E-3,2.290677279E-3
4.502009920E-1,1.527118147E-3,-1.068982761E-3,2.290677279E-3
4.526455230E-1,1.527118147E-3,1.374406274E-3,-1.374406274E-3
4.550908880E-1,-9.162708884E-4,1.527118147E-4,-2.596100792E-3
4.575354190E-1,3.054236295E-4,1.527118147E-4,1.068982761E-3
4.599791690E-1,-9.162708884E-4,1.527118147E-4,-1.527118147E-4
4.624237000E-1,3.054236295E-4,-1.068982761E-3,-1.527118147E-4
4.648691170E-1,1.527118147E-3,-1.068982761E-3,-1.374406274E-3
4.673135960E-1,1.527118147E-3,-2.290677279E-3,-2.596100792E-3
4.697573460E-1,3.054236295E-4,-1.068982761E-3,-1.527118147E-4
4.722019810E-1,3.054236295E-4,-2.290677279E-3,-1.374406274E-3
4.746472940E-1,-9.162708884E-4,-1.068982761E-3,-1.374406274E-3
4.770917730E-1,3.054236295E-4,1.527118147E-4,-1.374406274E-3
4.795355750E-1,1.527118147E-3,1.527118147E-4,-1.374406274E-3
4.819801060E-1,3.054236295E-4,-1.068982761E-3,-1.527118147E-4
4.844254710E-1,3.054236295E-4,-2.290677279E-3,-1.527118147E-4
4.868700020E-1,1.527118147E-3,-1.068982761E-3,-1.374406274E-3
4.893137520E-1,-9.162708884E-4,-3.512371797E-3,-1.374406274E-3
4.917582830E-1,-9.162708884E-4,-2.290677279E-3,-1.374406274E-3
4.942037000E-1,-2.137965523E-3,-1.068982761E-3,-1.374406274E-3
4.966481790E-1,3.054236295E-4,1.527118147E-4,-2.596100792E-3
4.990919290E-1,3.054236295E-4,-1.068982761E-3,-1.374406274E-3
5.015365650E-1,3.054236295E-4,1.527118147E-4,-1.374406274E-3
5.039818770E-1,3.054236295E-4,-1.068982761E-3,-1.374406274E-3
5.064264080E-1,1.527118147E-3,-1.068982761E-3,-2.596100792E-3
5.088701580E-1,-9.162708884E-4,1.527118147E-4,-1.374406274E-3
5.113146900E-1,2.748812549E-3,1.527118147E-4,-2.596100792E-3
5.137600540E-1,-9.162708884E-4,1.527118147E-4,2.290677279E-3
5.162045850E-1,1.527118147E-3,-1.068982761E-3,-1.527118147E-4
5.186483350E-1,1.527118147E-3,-1.068982761E-3,2.290677279E-3
5.210928670E-1,-9.162708884E-4,-1.068982761E-3,-1.374406274E-3
5.235382830E-1,3.054236295E-4,-1.068982761E-3,-1.374406274E-3
5.259827630E-1,3.054236295E-4,1.374406274E-3,1.068982761E-3
5.284265130E-1,3.054236295E-4,1.527118147E-4,-2.596100792E-3
5.308711480E-1,3.054236295E-4,-1.068982761E-3,-1.374406274E-3
5.333164600E-1,3.054236295E-4,1.527118147E-4,-1.374406274E-3
5.357609400E-1,3.054236295E-4,1.527118147E-4,-1.374406274E-3
5.382047420E-1,3.054236295E-4,1.374406274E-3,1.068982761E-3
5.406492730E-1,-9.162708884E-4,1.527118147E-4,-1.527118147E-4
5.430946900E-1,3.054236295E-4,1.527118147E-4,-1.527118147E-4
5.455391690E-1,3.054236295E-4,1.527118147E-4,-1.374406274E-3
5.479829190E-1,3.054236295E-4,1.374406274E-3,-1.374406274E-3
5.504274500E-1,3.054236295E-4,-1.068982761E-3,-1.374406274E-3
5.528728670E-1,-9.162708884E-4,1.527118147E-4,-2.596100792E-3
5.553173460E-1,3.054236295E-4,-1.068982761E-3,-1.374406274E-3
5.577610960E-1,1.527118147E-3,-2.290677279E-3,-1.374406274E-3
5.602057310E-1,-9.162708884E-4,-1.068982761E-3,-1.374406274E-3
5.626510440E-1,3.054236295E-4,-2.290677279E-3,-1.374406274E-3
5.650955750E-1,3.054236295E-4,-1.068982761E-3,-1.527118147E-4
5.675393250E-1,3.054236295E-4,-1.068982761E-3,2.290677279E-3
5.699838560E-1,1.527118147E-3,1.374406274E-3,-1.527118147E-4
5.724292730E-1,3.054236295E-4,-1.068982761E-3,-1.374406274E-3
5.748737520E-1,3.054236295E-4,1.527118147E-4,-1.374406274E-3
5.773175020E-1,3.054236295E-4,-1.068982761E-3,-1.527118147E-4
5.797620330E-1,1.527118147E-3,1.527118147E-4,1.068982761E-3
5.822074500E-1,3.054236295E-4,1.527118147E-4,-1.374406274E-3
5.846519290E-1,1.527118147E-3,-1.068982761E-3,-2.596100792E-3
5.870956790E-1,1.527118147E-3,-2.290677279E-3,-2.596100792E-3
5.895403150E-1,-2.137965523E-3,1.527118147E-4,-2.596100792E-3
5.919856270E-1,-2.137965523E-3,1.374406274E-3,-1.527118147E-4
5.944301580E-1,3.054236295E-4,-1.068982761E-3,1.068982761E-3
5.968739080E-1,-9.162708884E-4,1.527118147E-4,1.068982761E-3
5.993184400E-1,3.054236295E-4,-1.068982761E-3,-2.596100792E-3
6.017638560E-1,3.054236295E-4,-2.290677279E-3,-1.374406274E-3
6.042083350E-1,3.054236295E-4,-1.068982761E-3,-2.596100792E-3
6.066520850E-1,-9.162708884E-4,-2.290677279E-3,-1.374406274E-3
6.090966170E-1,-9.162708884E-4,1.527118147E-4,1.068982761E-3
6.115420330E-1,-9.162708884E-4,-2.290677279E-3,-1.374406274E-3
6.139865130E-1,-9.162708884E-4,-2.290677279E-3,-1.527118147E-4
6.164302630E-1,3.054236295E-4,1.527118147E-4,-1.374406274E-3
6.188748980E-1,3.054236295E-4,-2.290677279E-3,-1.374406274E-3
6.213202100E-1,3.054236295E-4,-2.290677279E-3,-1.374406274E-3
6.237647420E-1,-2.137965523E-3,-1.068982761E-3,-2.596100792E-3
6.262084920E-1,-2.137965523E-3,1.527118147E-4,-2.596100792E-3
6.286530230E-1,3.054236295E-4,-1.068982761E-3,-1.527118147E-4
6.310984400E-1,1.527118147E-3,2.596100792E-3,-1.374406274E-3
6.335429190E-1,3.054236295E-4,1.527118147E-4,-1.374406274E-3
6.359866690E-1,3.054236295E-4,-2.290677279E-3,-1.527118147E-4
6.384313040E-1,3.054236295E-4,-1.068982761E-3,1.068982761E-3
6.408766170E-1,3.054236295E-4,-1.068982761E-3,-1.374406274E-3
6.433210960E-1,-9.162708884E-4,1.374406274E-3,-1.374406274E-3
6.457648980E-1,3.054236295E-4,-1.068982761E-3,1.068982761E-3
6.482094290E-1,3.054236295E-4,1.527118147E-4,-1.374406274E-3
6.506548460E-1,3.054236295E-4,-1.068982761E-3,-1.374406274E-3
6.530993250E-1,3.054236295E-4,1.374406274E-3,-2.596100792E-3
6.555430750E-1,3.054236295E-4,1.527118147E-4,-1.527118147E-4
6.579876060E-1,-9.162708884E-4,-1.068982761E-3,-1.374406274E-3
6.604330230E-1,3.054236295E-4,-1.068982761E-3,-1.374406274E-3
6.628775020E-1,3.054236295E-4,1.527118147E-4,-1.374406274E-3
6.653212520E-1,-9.162708884E-4,-1.068982761E-3,-1.527118147E-4
6.677658880E-1,1.527118147E-3,-2.290677279E-3,1.068982761E-3
6.702112000E-1,3.054236295E-4,-2.290677279E-3,-1.374406274E-3
6.726557310E-1,-9.162708884E-4,1.527118147E-4,-1.374406274E-3
6.750994810E-1,3.054236295E-4,1.527118147E-4,-1.527118147E-4
6.775440130E-1,-9.162708884E-4,-1.068982761E-3,-1.527118147E-4
6.799893770E-1,3.054236295E-4,1.527118147E-4,-1.374406274E-3
6.824339080E-1,3.054236295E-4,-1.068982761E-3,-2.596100792E-3
6.848776580E-1,3.054236295E-4,-1.068982761E-3,-1.374406274E-3
6.873221900E-1,1.527118147E-3,1.374406274E-3,-1.527118147E-4
6.897676060E-1,3.970507067E-3,-1.068982761E-3,-1.527118147E-4
6.922120850E-1,3.054236295E-4,-1.068982761E-3,-1.527118147E-4
6.946558350E-1,-9.162708884E-4,1.527118147E-4,-1.527118147E-4
6.971004710E-1,3.054236295E-4,-1.068982761E-3,-1.527118147E-4
6.995457830E-1,3.054236295E-4,-1.068982761E-3,-1.374406274E-3
7.019903150E-1,-9.162708884E-4,1.374406274E-3,-2.596100792E-3
7.044340650E-1,1.527118147E-3,1.527118147E-4,1.068982761E-3
7.068785960E-1,1.527118147E-3,-1.068982761E-3,-1.527118147E-4
7.093240130E-1,-9.162708884E-4,-1.068982761E-3,-1.527118147E-4
7.117684920E-1,3.054236295E-4,1.527118147E-4,-1.374406274E-3
7.142122420E-1,3.054236295E-4,-2.290677279E-3,-2.596100792E-3
7.166567730E-1,3.054236295E-4,-1.068982761E-3,-1.527118147E-4
7.191021900E-1,-9.162708884E-4,1.527118147E-4,-1.527118147E-4
7.215466690E-1,3.054236295E-4,1.374406274E-3,-1.374406274E-3
7.239904190E-1,1.527118147E-3,-1.068982761E-3,1.068982761E-3
7.264350540E-1,3.054236295E-4,-1.068982761E-3,-1.527118147E-4
7.288803670E-1,2.748812549E-3,-2.290677279E-3,1.068982761E-3
7.313248980E-1,1.527118147E-3,1.527118147E-4,-1.527118147E-4
7.337686480E-1,3.054236295E-4,-2.290677279E-3,-1.527118147E-4
7.362131790E-1,-9.162708884E-4,-1.068982761E-3,1.068982761E-3
7.386585960E-1,3.054236295E-4,1.374406274E-3,-1.374406274E-3
7.411030750E-1,3.054236295E-4,1.527118147E-4,-1.527118147E-4
7.435468250E-1,1.527118147E-3,-1.068982761E-3,1.068982761E-3
7.459914600E-1,1.527118147E-3,1.527118147E-4,-1.527118147E-4
7.484367730E-1,2.748812549E-3,1.527118147E-4,1.068982761E-3
7.508813040E-1,3.054236295E-4,-1.068982761E-3,-1.527118147E-4
7.533250540E-1,3.054236295E-4,1.527118147E-4,-1.527118147E-4
7.557695850E-1,3.054236295E-4,1.527118147E-4,-1.374406274E-3
7.582149500E-1,3.054236295E-4,-2.290677279E-3,-1.374406274E-3
7.606594810E-1,1.527118147E-3,-1.068982761E-3,-1.374406274E-3
7.631032310E-1,3.054236295E-4,1.374406274E-3,-1.374406274E-3
7.655477630E-1,3.054236295E-4,1.374406274E-3,-2.596100792E-3
7.679931790E-1,-3.359660041E-3,1.527118147E-4,-1.374406274E-3
7.704376580E-1,3.054236295E-4,1.374406274E-3,1.068982761E-3
7.728814080E-1,-9.162708884E-4,1.374406274E-3,-1.527118147E-4
7.753260440E-1,-9.162708884E-4,-1.068982761E-3,-2.596100792E-3
7.777713560E-1,-9.162708884E-4,-2.290677279E-3,-1.374406274E-3
7.802158880E-1,1.527118147E-3,1.527118147E-4,-1.374406274E-3
7.826596380E-1,-9.162708884E-4,1.374406274E-3,-2.596100792E-3
7.851041690E-1,-9.162708884E-4,1.527118147E-4,-1.374406274E-3
7.875495850E-1,1.527118147E-3,1.374406274E-3,1.068982761E-3
7.899940650E-1,1.527118147E-3,-1.068982761E-3,1.068982761E-3
7.924378150E-1,3.054236295E-4,-1.068982761E-3,-1.527118147E-4
7.948823460E-1,3.054236295E-4,-1.068982761E-3,-1.527118147E-4
7.973277630E-1,1.527118147E-3,-1.068982761E-3,1.068982761E-3
7.997722420E-1,3.054236295E-4,-1.068982761E-3,-1.527118147E-4
8.022159920E-1,-9.162708884E-4,-3.512371797E-3,-1.527118147E-4
8.046606270E-1,-2.137965523E-3,1.527118147E-4,-1.527118147E-4
8.071059400E-1,3.054236295E-4,1.527118147E-4,-1.527118147E-4
8.095504710E-1,-9.162708884E-4,2.596100792E-3,-1.527118147E-4
8.119942210E-1,-9.162708884E-4,-1.068982761E-3,-1.374406274E-3
8.144387520E-1,3.054236295E-4,-1.068982761E-3,-1.527118147E-4
8.168841690E-1,-9.162708884E-4,1.374406274E-3,-1.527118147E-4
8.193286480E-1,3.054236295E-4,1.374406274E-3,-1.527118147E-4
8.217723980E-1,-9.162708884E-4,-1.068982761E-3,-1.374406274E-3
8.242169290E-1,1.527118147E-3,-2.290677279E-3,-1.527118147E-4
8.266623460E-1,1.527118147E-3,-2.290677279E-3,-1.374406274E-3
8.291068250E-1,3.054236295E-4,1.527118147E-4,-1.374406274E-3
8.315506270E-1,3.054236295E-4,-2.290677279E-3,-1.527118147E-4
8.339951580E-1,1.527118147E-3,-1.068982761E-3,-1.374406274E-3
8.364405230E-1,3.054236295E-4,1.527118147E-4,-1.527118147E-4
8.388850540E-1,3.054236295E-4,-1.068982761E-3,-1.374406274E-3
8.413288040E-1,1.527118147E-3,-1.068982761E-3,-1.374406274E-3
8.437733350E-1,3.054236295E-4,1.527118147E-4,-1.374406274E-3
8.462187520E-1,1.527118147E-3,-1.068982761E-3,-1.527118147E-4
8.486632310E-1,-9.162708884E-4,-1.068982761E-3,-1.527118147E-4
8.511069810E-1,1.527118147E-3,-2.290677279E-3,1.068982761E-3
8.535516170E-1,3.054236295E-4,-1.068982761E-3,-1.527118147E-4
8.559969290E-1,3.054236295E-4,1.527118147E-4,-1.527118147E-4
8.584414600E-1,3.054236295E-4,-1.068982761E-3,-1.527118147E-4
8.608852100E-1,-9.162708884E-4,-1.068982761E-3,-2.596100792E-3
8.633297420E-1,3.054236295E-4,1.527118147E-4,-2.596100792E-3
8.657751580E-1,3.054236295E-4,1.527118147E-4,-2.596100792E-3
8.682196380E-1,-9.162708884E-4,1.527118147E-4,-1.374406274E-3
8.706633880E-1,-9.162708884E-4,1.527118147E-4,1.068982761E-3
8.731079190E-1,1.527118147E-3,-1.068982761E-3,-1.527118147E-4
8.755533350E-1,1.527118147E-3,1.527118147E-4,-1.527118147E-4
8.779978150E-1,-9.162708884E-4,1.527118147E-4,-1.527118147E-4
8.804415650E-1,-9.162708884E-4,-2.290677279E-3,1.068982761E-3
8.828862000E-1,1.527118147E-3,-1.068982761E-3,1.068982761E-3
8.853315130E-1,3.054236295E-4,2.596100792E-3,-1.527118147E-4
8.877760440E-1,3.054236295E-4,-1.068982761E-3,-1.374406274E-3
8.902197940E-1,-9.162708884E-4,-1.068982761E-3,-1.527118147E-4
8.926643250E-1,-9.162708884E-4,-1.068982761E-3,-1.527118147E-4
8.951097420E-1,1.527118147E-3,1.527118147E-4,1.068982761E-3
8.975542210E-1,3.054236295E-4,1.374406274E-3,-1.527118147E-4
8.999979710E-1,-9.162708884E-4,-1.068982761E-3,-1.527118147E-4
9.024425020E-1,1.527118147E-3,-1.068982761E-3,-1.527118147E-4
9.048879190E-1,3.054236295E-4,-1.068982761E-3,-1.527118147E-4
9.073323980E-1,1.527118147E-3,1.527118147E-4,1.068982761E-3
9.097762000E-1,1.527118147E-3,-1.068982761E-3,-1.527118147E-4
9.122207310E-1,1.527118147E-3,-1.068982761E-3,-1.374406274E-3
9.146660960E-1,-9.162708884E-4,1.527118147E-4,-1.374406274E-3
9.171106270E-1,-9.162708884E-4,1.374406274E-3,-1.374406274E-3
9.195543770E-1,-9.162708884E-4,-2.290677279E-3,1.068982761E-3
9.219989080E-1,-9.162708884E-4,1.527118147E-4,-1.527118147E-4
9.244443250E-1,1.527118147E-3,1.374406274E-3,-1.527118147E-4
9.268888040E-1,1.527118147E-3,1.527118147E-4,-1.527118147E-4
9.293325540E-1,3.054236295E-4,1.527118147E-4,1.068982761E-3
9.317771900E-1,1.527118147E-3,1.527118147E-4,1.068982761E-3
9.342225020E-1,1.527118147E-3,-1.068982761E-3,3.512371797E-3
9.366670330E-1,3.054236295E-4,-1.068982761E-3,-1.374406274E-3
9.391107830E-1,-2.137965523E-3,1.527118147E-4,-1.374406274E-3
9.415553150E-1,3.054236295E-4,-1.068982761E-3,-1.527118147E-4
9.440007310E-1,-9.162708884E-4,-1.068982761E-3,-1.374406274E-3
9.464452100E-1,1.527118147E-3,-1.068982761E-3,-1.527118147E-4
9.488889600E-1,1.527118147E-3,-1.068982761E-3,-1.527118147E-4
9.513334920E-1,1.527118147E-3,-1.068982761E-3,1.068982761E-3
9.537789080E-1,3.054236295E-4,-1.068982761E-3,-1.527118147E-4
9.562233880E-1,1.527118147E-3,1.374406274E-3,-3.817795310E-3
9.586671900E-1,-9.162708884E-4,1.527118147E-4,-3.817795310E-3
9.611117210E-1,-9.162708884E-4,-1.068982761E-3,-2.596100792E-3
9.635570850E-1,1.527118147E-3,1.527118147E-4,-2.596100792E-3
9.660016170E-1,3.054236295E-4,-2.290677279E-3,-2.596100792E-3
9.684453670E-1,3.054236295E-4,-2.290677279E-3,-2.596100792E-3
9.708898980E-1,3.054236295E-4,1.527118147E-4,-1.374406274E-3
9.733353150E-1,3.054236295E-4,1.527118147E-4,-1.527118147E-4
9.757797940E-1,3.054236295E-4,1.527118147E-4,-2.596100792E-3
9.782235440E-1,3.054236295E-4,-1.068982761E-3,1.068982761E-3
9.806681790E-1,-9.162708884E-4,1.527118147E-4,-1.527118147E-4
9.831134920E-1,3.054236295E-4,1.527118147E-4,-1.527118147E-4
9.855580230E-1,3.054236295E-4,-2.290677279E-3,-1.374406274E-3
9.880017730E-1,1.527118147E-3,-2.290677279E-3,-1.374406274E-3
9.904463040E-1,2.748812549E-3,1.527118147E-4,-1.527118147E-4
9.928917210E-1,-9.162708884E-4,-1.068982761E-3,-1.374406274E-3
9.953362000E-1,-9.162708884E-4,-1.068982761E-3,-1.374406274E-3
9.977799500E-1,-9.162708884E-4,1.527118147E-4,-1.374406274E-3
1.000224481E0,-9.162708884E-4,1.527118147E-4,-1.527118147E-4
1.002669898E0,-9.162708884E-4,-1.068982761E-3,-1.374406274E-3
1.005114377E0,-9.162708884E-4,-1.068982761E-3,-1.374406274E-3
1.007558179E0,-9.162708884E-4,1.527118147E-4,-1.527118147E-4
1.010002710E0,1.527118147E-3,1.527118147E-4,-2.596100792E-3
1.012448075E0,3.054236295E-4,1.527118147E-4,-1.527118147E-4
1.014892606E0,1.527118147E-3,1.374406274E-3,-1.527118147E-4
1.017336356E0,1.527118147E-3,1.527118147E-4,-1.374406274E-3
1.019780888E0,-9.162708884E-4,1.527118147E-4,-1.374406274E-3
1.022226304E0,1.527118147E-3,-1.068982761E-3,-1.527118147E-4
1.024670783E0,1.527118147E-3,-2.290677279E-3,-2.596100792E-3
1.027114533E0,1.527118147E-3,-1.068982761E-3,-1.527118147E-4
1.029559169E0,1.527118147E-3,1.527118147E-4,1.068982761E-3
1.032004481E0,-9.162708884E-4,1.527118147E-4,-1.527118147E-4
1.034449013E0,3.054236295E-4,1.527118147E-4,-1.527118147E-4
1.036892763E0,-9.162708884E-4,1.527118147E-4,-1.374406274E-3
1.039337294E0,-9.162708884E-4,1.527118147E-4,-1.527118147E-4
1.041782710E0,-9.162708884E-4,-1.068982761E-3,-1.527118147E-4
1.044227190E0,-9.162708884E-4,-1.068982761E-3,-1.374406274E-3
1.046670940E0,1.527118147E-3,-3.512371797E-3,-1.374406274E-3
1.049115471E0,1.527118147E-3,-2.290677279E-3,-2.596100792E-3
1.051560888E0,-9.162708884E-4,1.527118147E-4,-1.527118147E-4
1.054005367E0,3.054236295E-4,-1.068982761E-3,-1.527118147E-4
1.056449117E0,3.054236295E-4,1.527118147E-4,-1.374406274E-3
1.058893752E0,3.054236295E-4,-2.290677279E-3,-1.527118147E-4
1.061339065E0,3.054236295E-4,1.527118147E-4,1.068982761E-3
1.063783596E0,3.054236295E-4,1.374406274E-3,-1.374406274E-3
1.066227346E0,1.527118147E-3,1.527118147E-4,-2.596100792E-3
1.068671877E0,3.054236295E-4,-2.290677279E-3,-1.374406274E-3
1.071117294E0,1.527118147E-3,1.527118147E-4,-1.527118147E-4
1.073561773E0,-9.162708884E-4,-2.290677279E-3,-1.374406274E-3
1.076005523E0,3.054236295E-4,-2.290677279E-3,-1.374406274E-3
1.078450158E0,3.054236295E-4,-1.068982761E-3,1.068982761E-3
1.080895471E0,3.054236295E-4,-3.512371797E-3,-1.527118147E-4
1.083340002E0,1.527118147E-3,1.527118147E-4,-1.374406274E-3
1.085783752E0,-9.162708884E-4,1.527118147E-4,-2.596100792E-3
1.088228283E0,-9.162708884E-4,1.527118147E-4,-1.527118147E-4
1.090673700E0,3.054236295E-4,-1.068982761E-3,1.068982761E-3
1.093118179E0,-9.162708884E-4,-2.290677279E-3,-1.374406274E-3
1.095561929E0,3.054236295E-4,-1.068982761E-3,-1.527118147E-4
1.098006460E0,3.054236295E-4,1.527118147E-4,-1.527118147E-4
1.100451877E0,1.527118147E-3,-1.068982761E-3,1.068982761E-3
1.102896356E0,3.054236295E-4,2.596100792E-3,-1.527118147E-4
1.105340106E0,-9.162708884E-4,1.374406274E-3,-2.596100792E-3
1.107784742E0,3.054236295E-4,-1.068982761E-3,-1.374406274E-3
1.110230054E0,1.527118147E-3,-1.068982761E-3,-1.527118147E-4
1.112674585E0,3.054236295E-4,1.527118147E-4,-1.374406274E-3
1.115118335E0,1.527118147E-3,1.527118147E-4,-1.374406274E-3
1.117562867E0,-9.162708884E-4,-1.068982761E-3,-1.374406274E-3
1.120008283E0,3.054236295E-4,-1.068982761E-3,-1.374406274E-3
1.122452763E0,3.054236295E-4,-2.290677279E-3,-1.527118147E-4
1.124896513E0,-9.162708884E-4,1.527118147E-4,-1.374406274E-3
1.127341148E0,3.054236295E-4,1.374406274E-3,-1.527118147E-4
1.129786460E0,3.054236295E-4,1.527118147E-4,-1.374406274E-3
1.132230992E0,1.527118147E-3,1.527118147E-4,-1.527118147E-4
1.134674742E0,1.527118147E-3,-1.068982761E-3,-2.596100792E-3
1.137119273E0,3.054236295E-4,-1.068982761E-3,-1.527118147E-4
1.139564690E0,1.527118147E-3,1.374406274E-3,-1.527118147E-4
1.142009169E0,1.527118147E-3,-1.068982761E-3,-1.527118147E-4
1.144452919E0,3.054236295E-4,1.527118147E-4,-1.527118147E-4
1.146897450E0,1.527118147E-3,-2.290677279E-3,-1.527118147E-4
1.149342867E0,1.527118147E-3,-2.290677279E-3,-2.596100792E-3
1.151787346E0,3.054236295E-4,-1.068982761E-3,-1.527118147E-4
1.154231096E0,3.054236295E-4,-2.290677279E-3,-1.527118147E-4
1.156675731E0,3.054236295E-4,1.527118147E-4,-1.374406274E-3
1.159121044E0,2.748812549E-3,1.374406274E-3,-2.596100792E-3
1.161565575E0,3.054236295E-4,1.527118147E-4,-1.374406274E-3
1.164009325E0,3.054236295E-4,1.527118147E-4,1.068982761E-3
1.166453856E0,-2.137965523E-3,-2.290677279E-3,-1.374406274E-3
1.168899273E0,3.054236295E-4,-1.068982761E-3,-1.527118147E-4
1.171343752E0,1.527118147E-3,-1.068982761E-3,-1.374406274E-3
1.173787502E0,-9.162708884E-4,1.527118147E-4,-1.527118147E-4
1.176232138E0,-9.162708884E-4,1.374406274E-3,-1.374406274E-3
1.178677450E0,1.527118147E-3,1.527118147E-4,-1.527118147E-4
1.181121981E0,3.054236295E-4,1.527118147E-4,-2.596100792E-3
1.183565731E0,1.527118147E-3,1.374406274E-3,1.068982761E-3
1.186010263E0,3.054236295E-4,-2.290677279E-3,-1.527118147E-4
1.188455679E0,3.054236295E-4,-3.512371797E-3,-1.527118147E-4
1.190900158E0,3.054236295E-4,-2.290677279E-3,1.068982761E-3
1.193343908E0,1.527118147E-3,-1.068982761E-3,1.068982761E-3
1.195788440E0,3.054236295E-4,1.527118147E-4,1.068982761E-3
1.198233856E0,3.054236295E-4,1.527118147E-4,1.068982761E-3
1.200678335E0,-9.162708884E-4,1.527118147E-4,-1.374406274E-3
1.203122085E0,3.054236295E-4,-1.068982761E-3,-1.527118147E-4
1.205566721E0,-9.162708884E-4,1.527118147E-4,-1.374406274E-3
1.208012033E0,3.054236295E-4,1.527118147E-4,-1.527118147E-4
1.210456565E0,1.527118147E-3,1.527118147E-4,1.068982761E-3
1.212900315E0,1.527118147E-3,-2.290677279E-3,-1.527118147E-4
1.215344846E0,1.527118147E-3,-3.512371797E-3,1.068982761E-3
1.217790263E0,3.054236295E-4,-2.290677279E-3,-1.527118147E-4
1.220234742E0,3.054236295E-4,1.527118147E-4,-1.374406274E-3
1.222678492E0,3.054236295E-4,-1.068982761E-3,-1.527118147E-4
1.225123127E0,2.748812549E-3,-1.068982761E-3,2.290677279E-3
1.227568440E0,3.054236295E-4,-1.068982761E-3,-1.527118147E-4
1.230012971E0,3.054236295E-4,-1.068982761E-3,-1.527118147E-4
1.232456721E0,3.054236295E-4,1.527118147E-4,1.068982761E-3
1.234901252E0,3.054236295E-4,-1.068982761E-3,1.068982761E-3
1.237346669E0,-9.162708884E-4,-1.068982761E-3,-1.374406274E-3
1.239791148E0,-9.162708884E-4,1.527118147E-4,-1.374406274E-3
1.242234898E0,-9.162708884E-4,1.527118147E-4,-1.527118147E-4
1.244679429E0,-9.162708884E-4,-1.068982761E-3,-1.527118147E-4
1.247124846E0,1.527118147E-3,1.527118147E-4,-1.374406274E-3
1.249569325E0,3.054236295E-4,-1.068982761E-3,-1.527118147E-4
1.252013127E0,-9.162708884E-4,1.527118147E-4,-1.527118147E-4
1.254457658E0,3.054236295E-4,-1.068982761E-3,1.068982761E-3
1.256903023E0,1.527118147E-3,-2.290677279E-3,-1.374406274E-3
1.259347554E0,3.054236295E-4,-1.068982761E-3,-1.527118147E-4
1.261791304E0,3.054236295E-4,-1.068982761E-3,1.068982761E-3
1.264235835E0,1.527118147E-3,-1.068982761E-3,1.068982761E-3
1.266681252E0,3.054236295E-4,-2.290677279E-3,-1.374406274E-3
1.269125731E0,3.054236295E-4,1.527118147E-4,-1.374406274E-3
1.271569481E0,3.054236295E-4,-1.068982761E-3,1.068982761E-3
1.274014117E0,1.527118147E-3,-2.290677279E-3,1.068982761E-3
1.276459429E0,3.054236295E-4,-2.290677279E-3,-1.374406274E-3
1.278903960E0,-9.162708884E-4,1.527118147E-4,-1.527118147E-4
1.281347710E0,-9.162708884E-4,-1.068982761E-3,2.290677279E-3
1.283792242E0,3.054236295E-4,-1.068982761E-3,-1.527118147E-4
1.286237658E0,1.527118147E-3,1.527118147E-4,-1.374406274E-3
1.288682138E0,3.054236295E-4,-2.290677279E-3,-1.374406274E-3
1.291125888E0,-9.162708884E-4,-1.068982761E-3,-1.527118147E-4
1.293570523E0,-9.162708884E-4,1.527118147E-4,-2.596100792E-3
1.296015835E0,-9.162708884E-4,1.527118147E-4,-1.527118147E-4
1.298460367E0,-9.162708884E-4,-1.068982761E-3,-1.527118147E-4
1.300904117E0,-9.162708884E-4,-1.068982761E-3,-1.527118147E-4
1.303348648E0,3.054236295E-4,1.527118147E-4,-1.527118147E-4
1.305794065E0,1.527118147E-3,-1.068982761E-3,-1.374406274E-3
1.308238544E0,3.054236295E-4,1.527118147E-4,-1.527118147E-4
1.310682294E0,-9.162708884E-4,-1.068982761E-3,1.068982761E-3
1.313126825E0,3.054236295E-4,1.527118147E-4,1.068982761E-3
1.315572242E0,-9.162708884E-4,-1.068982761E-3,1.068982761E-3
1.318016721E0,3.054236295E-4,1.527118147E-4,-1.374406274E-3
1.320460471E0,-9.162708884E-4,1.527118147E-4,-1.527118147E-4
1.322905106E0,3.054236295E-4,1.527118147E-4,1.068982761E-3
1.325350419E0,3.054236295E-4,-2.290677279E-3,-1.527118147E-4
1.327794950E0,-2.137965523E-3,1.527118147E-4,-1.374406274E-3
1.330238700E0,3.054236295E-4,1.527118147E-4,-1.374406274E-3
1.332683231E0,-9.162708884E-4,1.527118147E-4,-1.374406274E-3
1.335128648E0,-9.162708884E-4,1.527118147E-4,-2.596100792E-3
1.337573127E0,3.054236295E-4,1.527118147E-4,-2.596100792E-3
1.340016877E0,1.527118147E-3,1.527118147E-4,-1.527118147E-4
1.342461513E0,-9.162708884E-4,1.527118147E-4,-1.527118147E-4
1.344906825E0,3.054236295E-4,1.374406274E-3,-1.527118147E-4
1.347351356E0,1.527118147E-3,-2.290677279E-3,-1.374406274E-3
1.349795106E0,1.527118147E-3,-2.290677279E-3,-1.374406274E-3
1.352239638E0,2.748812549E-3,-2.290677279E-3,1.068982761E-3
1.354685054E0,1.527118147E-3,1.527118147E-4,1.068982761E-3
1.357129533E0,3.054236295E-4,1.527118147E-4,1.068982761E-3
1.359573283E0,3.054236295E-4,-1.068982761E-3,-1.527118147E-4
1.362017815E0,1.527118147E-3,-1.068982761E-3,-1.527118147E-4
1.364463231E0,3.054236295E-4,-1.068982761E-3,1.068982761E-3
1.366907710E0,3.054236295E-4,1.527118147E-4,-1.527118147E-4
1.369351460E0,1.527118147E-3,-2.290677279E-3,1.068982761E-3
1.371796096E0,3.054236295E-4,1.527118147E-4,1.068982761E-3
1.374241408E0,3.054236295E-4,1.527118147E-4,-1.527118147E-4
1.376685940E0,1.527118147E-3,1.527118147E-4,-1.527118147E-4
1.379129690E0,3.054236295E-4,-1.068982761E-3,1.068982761E-3
1.381574221E0,-9.162708884E-4,-1.068982761E-3,-2.596100792E-3
1.384019638E0,3.054236295E-4,-2.290677279E-3,-1.374406274E-3
1.386464117E0,-9.162708884E-4,-1.068982761E-3,-1.527118147E-4
1.388907867E0,3.054236295E-4,-2.290677279E-3,-1.374406274E-3
1.391352502E0,-9.162708884E-4,-1.068982761E-3,-1.527118147E-4
1.393797815E0,-9.162708884E-4,1.527118147E-4,-1.527118147E-4
1.396242346E0,-2.137965523E-3,-2.290677279E-3,-1.374406274E-3
1.398686096E0,-9.162708884E-4,1.527118147E-4,-1.374406274E-3
1.401130627E0,3.054236295E-4,1.527118147E-4,-1.527118147E-4
1.403576044E0,1.527118147E-3,1.527118147E-4,2.290677279E-3
1.406020523E0,3.054236295E-4,-1.068982761E-3,-1.527118147E-4
1.408464273E0,-9.162708884E-4,-3.512371797E-3,1.068982761E-3
1.410908804E0,1.527118147E-3,-1.068982761E-3,-1.527118147E-4
1.413354221E0,2.748812549E-3,1.527118147E-4,1.068982761E-3
1.415798700E0,1.527118147E-3,-1.068982761E-3,-2.596100792E-3
1.418242502E0,3.054236295E-4,-1.068982761E-3,-1.374406274E-3
1.420687033E0,3.054236295E-4,-1.068982761E-3,-1.527118147E-4
1.423132398E0,1.527118147E-3,1.527118147E-4,1.068982761E-3
1.425576929E0,3.054236295E-4,1.527118147E-4,1.068982761E-3
1.428020679E0,1.527118147E-3,-3.512371797E-3,1.068982761E-3
1.430465210E0,-9.162708884E-4,-1.068982761E-3,1.068982761E-3
1.432910627E0,-9.162708884E-4,1.527118147E-4,-1.527118147E-4
1.435355106E0,3.054236295E-4,-1.068982761E-3,1.068982761E-3
1.437798856E0,1.527118147E-3,-2.290677279E-3,-1.527118147E-4
1.440243492E0,3.054236295E-4,-2.290677279E-3,-1.374406274E-3
1.442688804E0,1.527118147E-3,1.374406274E-3,-1.374406274E-3
1.445133335E0,1.527118147E-3,1.374406274E-3,-1.527118147E-4
1.447577085E0,3.054236295E-4,1.527118147E-4,-1.527118147E-4
1.450021617E0,3.054236295E-4,1.527118147E-4,-1.527118147E-4
1.452467033E0,-9.162708884E-4,1.374406274E-3,-1.527118147E-4
1.454911513E0,-9.162708884E-4,1.527118147E-4,-1.527118147E-4
1.457355263E0,-9.162708884E-4,-1.068982761E-3,1.068982761E-3
1.459799898E0,3.054236295E-4,-1.068982761E-3,-1.527118147E-4
1.462245210E0,3.054236295E-4,-1.068982761E-3,-1.527118147E-4
1.464689742E0,-9.162708884E-4,-1.068982761E-3,-1.374406274E-3
1.467133492E0,3.054236295E-4,-2.290677279E-3,-1.527118147E-4
1.469578023E0,3.054236295E-4,1.527118147E-4,-2.596100792E-3
1.472023440E0,1.527118147E-3,-1.068982761E-3,-1.374406274E-3
1.474467919E0,3.054236295E-4,-1.068982761E-3,-2.596100792E-3
1.476911669E0,3.054236295E-4,1.374406274E-3,-1.527118147E-4
1.479356200E0,3.054236295E-4,-1.068982761E-3,1.068982761E-3
1.481801617E0,3.054236295E-4,-2.290677279E-3,1.068982761E-3
1.484246096E0,3.054236295E-4,-1.068982761E-3,-1.374406274E-3
1.486689846E0,1.527118147E-3,-1.068982761E-3,-1.527118147E-4
1.489134481E0,1.527118147E-3,1.527118147E-4,1.068982761E-3
1.491579794E0,3.054236295E-4,1.527118147E-4,-1.527118147E-4
1.494024325E0,-9.162708884E-4,-2.290677279E-3,-1.527118147E-4
1.496468075E0,-9.162708884E-4,1.527118147E-4,-1.527118147E-4
1.498912606E0,3.054236295E-4,1.374406274E-3,-1.527118147E-4
1.501358023E0,3.054236295E-4,1.374406274E-3,1.068982761E-3
1.503802502E0,3.054236295E-4,-2.290677279E-3,1.068982761E-3
1.506246252E0,-9.162708884E-4,1.527118147E-4,-1.527118147E-4
1.508690888E0,-9.162708884E-4,1.527118147E-4,-3.817795310E-3
1.511136200E0,3.054236295E-4,-1.068982761E-3,-1.527118147E-4
1.513580731E0,3.054236295E-4,1.374406274E-3,1.068982761E-3
1.516024481E0,-9.162708884E-4,1.527118147E-4,-1.527118147E-4
1.518469013E0,3.054236295E-4,1.374406274E-3,1.068982761E-3
1.520914429E0,-9.162708884E-4,1.527118147E-4,-1.374406274E-3
1.523358908E0,1.527118147E-3,1.374406274E-3,-1.527118147E-4
1.525802658E0,1.527118147E-3,-1.068982761E-3,-1.374406274E-3
1.528247294E0,-9.162708884E-4,-1.068982761E-3,-1.374406274E-3
1.530692606E0,3.054236295E-4,-1.068982761E-3,-1.374406274E-3
1.533137138E0,-9.162708884E-4,-2.290677279E-3,-1.527118147E-4
1.535580888E0,-9.162708884E-4,-1.068982761E-3,-1.527118147E-4
1.538025419E0,-9.162708884E-4,-1.068982761E-3,-3.817795310E-3
1.540470835E0,-9.162708884E-4,-1.068982761E-3,-1.527118147E-4
1.542915315E0,1.527118147E-3,-1.068982761E-3,3.512371797E-3
1.545359065E0,3.054236295E-4,1.527118147E-4,1.068982761E-3
1.547803700E0,3.054236295E-4,-1.068982761E-3,-1.527118147E-4
1.550249013E0,1.527118147E-3,1.527118147E-4,-1.527118147E-4
1.552693492E0,-9.162708884E-4,-1.068982761E-3,-1.527118147E-4
1.555137294E0,3.054236295E-4,1.527118147E-4,-1.527118147E-4
1.557581825E0,3.054236295E-4,-1.068982761E-3,-1.527118147E-4
1.560027242E0,1.527118147E-3,-2.290677279E-3,-1.527118147E-4
1.562471721E0,-9.162708884E-4,1.527118147E-4,-1.527118147E-4
1.564915471E0,-9.162708884E-4,1.527118147E-4,-1.374406274E-3
1.567360002E0,-9.162708884E-4,1.374406274E-3,-1.374406274E-3
1.569805419E0,-9.162708884E-4,1.527118147E-4,-1.527118147E-4
1.572249898E0,3.054236295E-4,-1.068982761E-3,-1.527118147E-4
1.574693648E0,1.527118147E-3,1.527118147E-4,-1.527118147E-4
1.577138283E0,3.054236295E-4,-1.068982761E-3,-1.374406274E-3
1.579583596E0,1.527118147E-3,-1.068982761E-3,-1.374406274E-3
1.582028127E0,3.054236295E-4,-1.068982761E-3,-1.374406274E-3
1.584471877E0,-9.162708884E-4,-2.290677279E-3,-1.527118147E-4
1.586916408E0,-9.162708884E-4,1.527118147E-4,1.068982761E-3
1.589361825E0,3.054236295E-4,-1.068982761E-3,-1.527118147E-4
1.591806304E0,1.527118147E-3,-2.290677279E-3,-1.527118147E-4
1.594250054E0,-9.162708884E-4,-2.290677279E-3,-2.596100792E-3
1.596694690E0,-9.162708884E-4,-1.068982761E-3,-2.596100792E-3
1.599140002E0,-9.162708884E-4,1.527118147E-4,1.068982761E-3
1.601584533E0,3.054236295E-4,1.527118147E-4,2.290677279E-3
1.604028283E0,1.527118147E-3,1.527118147E-4,-1.527118147E-4
1.606472815E0,-9.162708884E-4,-2.290677279E-3,-1.374406274E-3
1.608918231E0,3.054236295E-4,-2.290677279E-3,1.068982761E-3
1.611362710E0,-9.162708884E-4,1.527118147E-4,1.068982761E-3
1.613806460E0,3.054236295E-4,-1.068982761E-3,-2.596100792E-3
1.616251096E0,1.527118147E-3,-1.068982761E-3,-1.527118147E-4
1.618696408E0,1.527118147E-3,-1.068982761E-3,1.068982761E-3
1.621140940E0,1.527118147E-3,-1.068982761E-3,-1.527118147E-4
1.623584690E0,1.527118147E-3,-1.068982761E-3,-1.527118147E-4
1.626029221E0,3.054236295E-4,1.527118147E-4,-1.374406274E-3
1.628474638E0,1.527118147E-3,-1.068982761E-3,1.068982761E-3
1.630919117E0,-9.162708884E-4,-2.290677279E-3,1.068982761E-3
1.633362867E0,3.054236295E-4,-1.068982761E-3,-1.527118147E-4
1.635807398E0,-2.137965523E-3,1.527118147E-4,2.290677279E-3
1.638252815E0,-9.162708884E-4,-1.068982761E-3,1.068982761E-3
1.640697294E0,3.054236295E-4,-1.068982761E-3,1.068982761E-3
1.643141044E0,3.054236295E-4,1.527118147E-4,1.068982761E-3
1.645585679E0,3.054236295E-4,-1.068982761E-3,-1.374406274E-3
1.648030992E0,3.054236295E-4,-1.068982761E-3,-1.374406274E-3
1.650475523E0,-9.162708884E-4,1.374406274E-3,2.290677279E-3
1.652919273E0,-9.162708884E-4,1.527118147E-4,2.290677279E-3
1.655363804E0,-9.162708884E-4,1.527118147E-4,-1.374406274E-3
1.657809221E0,3.054236295E-4,-1.068982761E-3,-1.527118147E-4
1.660253700E0,3.054236295E-4,-1.068982761E-3,-1.527118147E-4
1.662697450E0,1.527118147E-3,1.527118147E-4,-1.527118147E-4
1.665142085E0,3.054236295E-4,1.527118147E-4,-1.374406274E-3
1.667587398E0,1.527118147E-3,1.527118147E-4,-1.527118147E-4
1.670031929E0,-9.162708884E-4,1.374406274E-3,-1.527118147E-4
1.672475679E0,3.054236295E-4,-1.068982761E-3,-1.527118147E-4
1.674920210E0,3.054236295E-4,-1.068982761E-3,-1.527118147E-4
1.677365627E0,-9.162708884E-4,1.527118147E-4,-1.374406274E-3
1.679810106E0,-9.162708884E-4,1.527118147E-4,-1.527118147E-4
1.682253856E0,3.054236295E-4,1.527118147E-4,1.068982761E-3
1.684698492E0,-2.137965523E-3,1.527118147E-4,-1.374406274E-3
1.687143804E0,3.054236295E-4,-1.068982761E-3,-1.374406274E-3
1.689588283E0,3.054236295E-4,-2.290677279E-3,-3.817795310E-3
1.692032085E0,3.054236295E-4,-2.290677279E-3,-1.374406274E-3
1.694476617E0,-9.162708884E-4,-1.068982761E-3,-1.527118147E-4
1.696921981E0,3.054236295E-4,-1.068982761E-3,-1.374406274E-3
1.699366513E0,1.527118147E-3,1.527118147E-4,-2.596100792E-3
1.701810263E0,1.527118147E-3,-1.068982761E-3,-1.374406274E-3
1.704254794E0,1.527118147E-3,-1.068982761E-3,-1.374406274E-3
1.706700210E0,1.527118147E-3,-1.068982761E-3,-1.374406274E-3
1.709144690E0,3.054236295E-4,1.527118147E-4,-2.596100792E-3
1.711588492E0,1.527118147E-3,-2.290677279E-3,-1.374406274E-3
1.714033023E0,3.054236295E-4,-1.068982761E-3,-1.527118147E-4
1.716478388E0,-9.162708884E-4,-1.068982761E-3,-1.527118147E-4
1.718922919E0,3.054236295E-4,1.527118147E-4,-1.374406274E-3
1.721366669E0,1.527118147E-3,-1.068982761E-3,-1.374406274E-3
1.723811200E0,-9.162708884E-4,1.527118147E-4,-1.527118147E-4
1.726256617E0,1.527118147E-3,1.374406274E-3,-1.527118147E-4
1.728701096E0,2.748812549E-3,-1.068982761E-3,-1.374406274E-3
1.731144846E0,3.054236295E-4,-1.068982761E-3,-2.596100792E-3
1.733589481E0,3.054236295E-4,-3.512371797E-3,-2.596100792E-3
1.736034794E0,-9.162708884E-4,-1.068982761E-3,-1.374406274E-3
1.738479325E0,-9.162708884E-4,-1.068982761E-3,-2.596100792E-3
1.740923075E0,1.527118147E-3,-3.512371797E-3,-2.596100792E-3
1.743367606E0,3.054236295E-4,-1.068982761E-3,-1.374406274E-3
1.745813023E0,3.054236295E-4,-1.068982761E-3,1.068982761E-3
1.748257502E0,-9.162708884E-4,-1.068982761E-3,-1.527118147E-4
1.750701252E0,1.527118147E-3,-1.068982761E-3,1.068982761E-3
1.753145888E0,3.054236295E-4,-1.068982761E-3,1.068982761E-3
1.755591200E0,-9.162708884E-4,1.527118147E-4,-1.527118147E-4
1.758035731E0,1.527118147E-3,1.527118147E-4,2.290677279E-3
1.760479481E0,3.054236295E-4,-2.290677279E-3,-1.374406274E-3
1.762924013E0,3.054236295E-4,-1.068982761E-3,-1.374406274E-3
1.765369429E0,-9.162708884E-4,1.527118147E-4,1.068982761E-3
1.767813908E0,3.054236295E-4,1.527118147E-4,-1.527118147E-4
1.770257658E0,1.527118147E-3,-1.068982761E-3,-2.596100792E-3
1.772702294E0,3.054236295E-4,1.374406274E-3,-1.374406274E-3
1.775147606E0,-9.162708884E-4,1.527118147E-4,-1.527118147E-4
1.777592085E0,3.054236295E-4,-2.290677279E-3,-1.374406274E-3
1.780035888E0,3.054236295E-4,-1.068982761E-3,-1.374406274E-3
1.782480419E0,3.054236295E-4,-1.068982761E-3,-1.527118147E-4
1.784925835E0,3.054236295E-4,-1.068982761E-3,-1.374406274E-3
1.787370315E0,-9.162708884E-4,1.527118147E-4,-1.527118147E-4
1.789814065E0,3.054236295E-4,1.374406274E-3,-1.527118147E-4
1.792258596E0,3.054236295E-4,-2.290677279E-3,-1.527118147E-4
1.794704013E0,3.054236295E-4,-3.512371797E-3,1.068982761E-3
1.797148492E0,3.054236295E-4,-1.068982761E-3,2.290677279E-3
1.799592294E0,3.054236295E-4,1.527118147E-4,2.290677279E-3
1.802036825E0,-9.162708884E-4,-1.068982761E-3,1.068982761E-3
1.804482190E0,1.527118147E-3,-1.068982761E-3,-1.374406274E-3
1.806926721E0,3.054236295E-4,-1.068982761E-3,-1.374406274E-3
1.809370471E0,3.054236295E-4,1.527118147E-4,-1.527118147E-4
1.811815002E0,1.527118147E-3,1.374406274E-3,-1.374406274E-3
1.814260419E0,3.054236295E-4,-1.068982761E-3,-1.527118147E-4
1.816704898E0,1.527118147E-3,-1.068982761E-3,-1.527118147E-4
1.819148648E0,1.527118147E-3,-1.068982761E-3,1.068982761E-3
1.821593283E0,-9.162708884E-4,1.527118147E-4,-1.374406274E-3
1.824038596E0,3.054236295E-4,-1.068982761E-3,-2.596100792E-3
1.826483127E0,1.527118147E-3,-1.068982761E-3,1.068982761E-3
1.828926877E0,-9.162708884E-4,-1.068982761E-3,-1.374406274E-3
1.831371408E0,3.054236295E-4,1.374406274E-3,-2.596100792E-3
1.833816825E0,3.054236295E-4,-2.290677279E-3,-1.374406274E-3
1.836261304E0,3.054236295E-4,-2.290677279E-3,-1.527118147E-4
1.838705054E0,3.054236295E-4,-2.290677279E-3,-1.374406274E-3
1.841149690E0,1.527118147E-3,1.527118147E-4,1.068982761E-3
1.843595002E0,1.527118147E-3,1.527118147E-4,-1.527118147E-4
1.846039533E0,1.527118147E-3,-2.290677279E-3,1.068982761E-3
1.848483283E0,3.054236295E-4,1.527118147E-4,-1.374406274E-3
1.850927815E0,3.054236295E-4,1.374406274E-3,-2.596100792E-3
1.853373231E0,-9.162708884E-4,1.374406274E-3,-1.374406274E-3
1.855817710E0,3.054236295E-4,1.527118147E-4,1.068982761E-3
1.858261460E0,3.054236295E-4,-1.068982761E-3,2.290677279E-3
1.860706096E0,3.054236295E-4,-1.068982761E-3,-1.374406274E-3
1.863151408E0,3.054236295E-4,-2.290677279E-3,1.068982761E-3
1.865595888E0,3.054236295E-4,1.527118147E-4,-1.374406274E-3
1.868039690E0,-2.137965523E-3,1.527118147E-4,-1.374406274E-3
1.870484221E0,-9.162708884E-4,1.527118147E-4,-1.374406274E-3
1.872929638E0,3.054236295E-4,-1.068982761E-3,-1.374406274E-3
1.875374117E0,2.748812549E-3,-1.068982761E-3,-1.374406274E-3
1.877817867E0,3.054236295E-4,1.374406274E-3,-2.596100792E-3
1.880262398E0,3.054236295E-4,-1.068982761E-3,-2.596100792E-3
1.882707815E0,-9.162708884E-4,-1.068982761E-3,-1.527118147E-4
1.885152294E0,3.054236295E-4,-1.068982761E-3,-2.596100792E-3
1.887596096E0,-9.162708884E-4,-2.290677279E-3,-1.527118147E-4
1.890040627E0,3.054236295E-4,-1.068982761E-3,-1.374406274E-3
1.892485992E0,-9.162708884E-4,1.527118147E-4,-1.374406274E-3
1.894930523E0,-9.162708884E-4,1.527118147E-4,1.068982761E-3
1.897374273E0,2.748812549E-3,1.527118147E-4,1.068982761E-3
1.899818804E0,3.054236295E-4,1.527118147E-4,1.068982761E-3
1.902264221E0,3.054236295E-4,-1.068982761E-3,-1.374406274E-3
1.904708700E0,3.054236295E-4,-1.068982761E-3,-1.374406274E-3
1.907152450E0,3.054236295E-4,-2.290677279E-3,-1.374406274E-3
1.909597085E0,3.054236295E-4,1.527118147E-4,-2.596100792E-3
1.912042398E0,1.527118147E-3,-1.068982761E-3,1.068982761E-3
1.914486929E0,-9.162708884E-4,-1.068982761E-3,-1.527118147E-4
1.916930679E0,3.054236295E-4,-1.068982761E-3,-1.527118147E-4
1.919375210E0,3.054236295E-4,-1.068982761E-3,-1.527118147E-4
1.921820627E0,-9.162708884E-4,1.527118147E-4,-1.527118147E-4
1.924265106E0,1.527118147E-3,-2.290677279E-3,-1.374406274E-3
1.926708856E0,3.054236295E-4,-2.290677279E-3,-1.527118147E-4
1.929153492E0,-9.162708884E-4,-1.068982761E-3,-1.374406274E-3
1.931598804E0,3.054236295E-4,1.527118147E-4,-1.374406274E-3
1.934043335E0,3.054236295E-4,-2.290677279E-3,-1.374406274E-3
1.936487085E0,3.054236295E-4,-2.290677279E-3,-3.817795310E-3
1.938931617E0,3.054236295E-4,1.527118147E-4,-1.527118147E-4
1.941377033E0,-9.162708884E-4,-1.068982761E-3,-1.527118147E-4
1.943821513E0,3.054236295E-4,-1.068982761E-3,-1.374406274E-3
1.946265263E0,3.054236295E-4,1.374406274E-3,2.290677279E-3
1.948709794E0,3.054236295E-4,-1.068982761E-3,1.068982761E-3
1.951155210E0,1.527118147E-3,1.527118147E-4,-1.527118147E-4
1.953599742E0,1.527118147E-3,1.527118147E-4,-1.374406274E-3
1.956043492E0,-9.162708884E-4,1.527118147E-4,-2.596100792E-3
1.958488023E0,-9.162708884E-4,1.527118147E-4,1.068982761E-3
1.960933440E0,3.054236295E-4,1.527118147E-4,-3.817795310E-3
1.963377919E0,-9.162708884E-4,-1.068982761E-3,-1.374406274E-3
1.965821669E0,-9.162708884E-4,1.527118147E-4,-1.374406274E-3
1.968266200E0,1.527118147E-3,1.527118147E-4,-1.374406274E-3
1.970711617E0,1.527118147E-3,-2.290677279E-3,-1.527118147E-4
1.973156096E0,1.527118147E-3,-1.068982761E-3,-1.527118147E-4
1.975599898E0,3.054236295E-4,-1.068982761E-3,-1.374406274E-3
1.978044429E0,3.054236295E-4,1.527118147E-4,-1.374406274E-3
1.980489846E0,1.527118147E-3,1.527118147E-4,-1.374406274E-3
1.982934325E0,3.054236295E-4,1.527118147E-4,-1.527118147E-4
1.985378075E0,1.527118147E-3,-1.068982761E-3,1.068982761E-3
1.987822606E0,3.054236295E-4,-1.068982761E-3,-1.527118147E-4
1.990268023E0,1.527118147E-3,1.527118147E-4,-1.527118147E-4
1.992712502E0,3.054236295E-4,-2.290677279E-3,-1.374406274E-3
1.995156252E0,3.054236295E-4,1.527118147E-4,-1.374406274E-3
1.997600888E0,-9.162708884E-4,1.527118147E-4,1.068982761E-3
2.000046200E0,-9.162708884E-4,1.527118147E-4,-1.374406274E-3
2.002490731E0,3.054236295E-4,1.527118147E-4,-1.527118147E-4
2.004934481E0,1.527118147E-3,1.527118147E-4,-1.527118147E-4
2.007379013E0,3.054236295E-4,-1.068982761E-3,-2.596100792E-3
2.009824429E0,-2.137965523E-3,1.374406274E-3,-1.374406274E-3
2.012268908E0,1.527118147E-3,1.374406274E-3,1.068982761E-3
2.014712658E0,2.748812549E-3,-1.068982761E-3,-1.527118147E-4
2.017157294E0,3.054236295E-4,1.527118147E-4,-1.527118147E-4
2.019602606E0,-2.137965523E-3,1.527118147E-4,1.068982761E-3
2.022047138E0,1.527118147E-3,-2.290677279E-3,-1.527118147E-4
2.024490888E0,3.054236295E-4,-1.068982761E-3,-1.527118147E-4
2.026935419E0,-9.162708884E-4,1.527118147E-4,1.068982761E-3
2.029380835E0,-9.162708884E-4,1.527118147E-4,-1.527118147E-4
2.031825315E0,-9.162708884E-4,-1.068982761E-3,-1.374406274E-3
2.034269065E0,3.054236295E-4,-1.068982761E-3,-1.527118147E-4
2.036713700E0,1.527118147E-3,1.374406274E-3,-1.527118147E-4
2.039159013E0,1.527118147E-3,-1.068982761E-3,-1.527118147E-4
2.041603544E0,3.054236295E-4,1.527118147E-4,-1.527118147E-4
2.044047294E0,-9.162708884E-4,-1.068982761E-3,-1.374406274E-3
2.046491825E0,-9.162708884E-4,1.527118147E-4,1.068982761E-3
2.048937242E0,3.054236295E-4,1.527118147E-4,1.068982761E-3
2.051381721E0,3.054236295E-4,1.374406274E-3,-1.527118147E-4
2.053825471E0,3.054236295E-4,-1.068982761E-3,-1.374406274E-3
2.056270106E0,3.054236295E-4,-1.068982761E-3,-1.527118147E-4
2.058715419E0,-9.162708884E-4,-1.068982761E-3,-1.527118147E-4
2.061159950E0,3.054236295E-4,-1.068982761E-3,-1.527118147E-4
2.063603700E0,-9.162708884E-4,1.527118147E-4,1.068982761E-3
2.066048231E0,3.054236295E-4,-1.068982761E-3,-1.374406274E-3
2.068493648E0,1.527118147E-3,-1.068982761E-3,-1.527118147E-4
2.070938127E0,3.054236295E-4,-1.068982761E-3,-1.527118147E-4
2.073381877E0,3.054236295E-4,-1.068982761E-3,-1.374406274E-3
2.075826513E0,-9.162708884E-4,1.527118147E-4,-1.527118147E-4
2.078271825E0,3.054236295E-4,-1.068982761E-3,1.068982761E-3
2.080716304E0,3.054236295E-4,1.374406274E-3,-1.527118147E-4
2.083160106E0,1.527118147E-3,1.527118147E-4,-2.596100792E-3
2.085604638E0,3.054236295E-4,-1.068982761E-3,-1.374406274E-3
2.088050054E0,1.527118147E-3,-2.290677279E-3,-1.374406274E-3
2.090494533E0,2.748812549E-3,-2.290677279E-3,-1.527118147E-4
2.092938283E0,2.748812549E-3,-2.290677279E-3,-1.527118147E-4
2.095382815E0,3.054236295E-4,1.374406274E-3,-1.527118147E-4
2.097828231E0,3.054236295E-4,-1.068982761E-3,1.068982761E-3
2.100272710E0,-9.162708884E-4,-2.290677279E-3,1.068982761E-3
2.102716460E0,3.054236295E-4,-4.734066315E-3,-1.374406274E-3
2.105161096E0,3.054236295E-4,-1.068982761E-3,-1.527118147E-4
2.107606460E0,3.054236295E-4,-1.068982761E-3,-1.527118147E-4
2.110050940E0,3.054236295E-4,-1.068982761E-3,3.512371797E-3
2.112494690E0,-9.162708884E-4,-1.068982761E-3,1.068982761E-3
2.114939221E0,-9.162708884E-4,1.527118147E-4,1.068982761E-3
2.117384638E0,-2.137965523E-3,1.527118147E-4,-1.374406274E-3
2.119829117E0,-9.162708884E-4,-1.068982761E-3,-1.374406274E-3
2.122272867E0,-9.162708884E-4,-1.068982761E-3,1.068982761E-3
2.124717502E0,3.054236295E-4,-1.068982761E-3,-1.374406274E-3
2.127162815E0,3.054236295E-4,-1.068982761E-3,-1.374406274E-3
2.129607346E0,-9.162708884E-4,1.527118147E-4,2.290677279E-3
2.132051096E0,-9.162708884E-4,-1.068982761E-3,-1.527118147E-4
2.134495627E0,3.054236295E-4,-1.068982761E-3,-1.374406274E-3
2.136941044E0,3.054236295E-4,-1.068982761E-3,-1.527118147E-4
2.139385523E0,-9.162708884E-4,-1.068982761E-3,-1.527118147E-4
2.141829273E0,-9.162708884E-4,-2.290677279E-3,-1.527118147E-4
2.144273908E0,1.527118147E-3,-1.068982761E-3,-1.527118147E-4
2.146719221E0,1.527118147E-3,-1.068982761E-3,-1.374406274E-3
2.149163752E0,1.527118147E-3,-1.068982761E-3,1.068982761E-3
2.151607502E0,1.527118147E-3,-1.068982761E-3,1.068982761E-3
2.154052033E0,3.054236295E-4,-1.068982761E-3,1.068982761E-3
2.156497450E0,3.054236295E-4,1.527118147E-4,-1.527118147E-4
2.158941929E0,3.054236295E-4,1.527118147E-4,-2.596100792E-3
2.161385679E0,-9.162708884E-4,1.374406274E-3,1.068982761E-3
2.163830315E0,3.054236295E-4,1.527118147E-4,1.068982761E-3
2.166275627E0,3.054236295E-4,1.527118147E-4,-1.374406274E-3
2.168720158E0,3.054236295E-4,-1.068982761E-3,-1.374406274E-3
2.171163908E0,1.527118147E-3,-1.068982761E-3,-1.374406274E-3
2.173608440E0,1.527118147E-3,-2.290677279E-3,-1.374406274E-3
2.176053856E0,-9.162708884E-4,-1.068982761E-3,-3.817795310E-3
2.178498335E0,3.054236295E-4,-1.068982761E-3,-3.817795310E-3
2.180942085E0,3.054236295E-4,-1.068982761E-3,-1.374406274E-3
2.183386721E0,-9.162708884E-4,1.527118147E-4,-1.374406274E-3
2.185832033E0,3.054236295E-4,-1.068982761E-3,-1.374406274E-3
2.188276565E0,-9.162708884E-4,-1.068982761E-3,1.068982761E-3
2.190720315E0,2.748812549E-3,-1.068982761E-3,1.068982761E-3
2.193164846E0,1.527118147E-3,-2.290677279E-3,-1.527118147E-4
2.195610263E0,-9.162708884E-4,-1.068982761E-3,-1.527118147E-4
2.198054742E0,-9.162708884E-4,1.374406274E-3,-2.596100792E-3
2.200498492E0,3.054236295E-4,1.527118147E-4,-1.527118147E-4
2.202943127E0,-9.162708884E-4,-2.290677279E-3,-1.527118147E-4
2.205388440E0,-9.162708884E-4,1.374406274E-3,-1.527118147E-4
2.207832919E0,1.527118147E-3,1.527118147E-4,-1.527118147E-4
2.210276721E0,3.054236295E-4,-1.068982761E-3,1.068982761E-3
2.212721252E0,3.054236295E-4,1.527118147E-4,1.068982761E-3
2.215166669E0,3.054236295E-4,1.374406274E-3,1.068982761E-3
2.217611148E0,-9.162708884E-4,1.527118147E-4,-1.374406274E-3
2.220054898E0,3.054236295E-4,-1.068982761E-3,-1.527118147E-4
2.222499429E0,-9.162708884E-4,1.527118147E-4,-1.527118147E-4
2.224944846E0,3.054236295E-4,1.527118147E-4,-1.527118147E-4
2.227389377E0,-9.162708884E-4,-1.068982761E-3,-1.374406274E-3
2.229833127E0,3.054236295E-4,-2.290677279E-3,-1.374406274E-3
2.232277658E0,1.527118147E-3,-1.068982761E-3,-1.374406274E-3
2.234723075E0,1.527118147E-3,-1.068982761E-3,1.068982761E-3
2.237167554E0,-9.162708884E-4,-1.068982761E-3,-1.527118147E-4
2.239611304E0,-9.162708884E-4,-2.290677279E-3,-1.527118147E-4
2.242055835E0,1.527118147E-3,-1.068982761E-3,-1.374406274E-3
2.244501252E0,3.054236295E-4,-1.068982761E-3,1.068982761E-3
2.246945731E0,1.527118147E-3,1.527118147E-4,-1.374406274E-3
2.249389481E0,3.054236295E-4,1.527118147E-4,-1.527118147E-4
2.251834117E0,3.054236295E-4,-1.068982761E-3,-1.374406274E-3
2.254279429E0,3.054236295E-4,1.527118147E-4,1.068982761E-3
2.256723960E0,3.054236295E-4,-1.068982761E-3,-1.374406274E-3
2.259167710E0,3.054236295E-4,-2.290677279E-3,-1.374406274E-3
2.261612242E0,3.054236295E-4,-1.068982761E-3,-1.527118147E-4
2.264057658E0,3.054236295E-4,1.527118147E-4,-1.374406274E-3
2.266502138E0,-9.162708884E-4,1.527118147E-4,-1.374406274E-3
2.268945888E0,-9.162708884E-4,1.527118147E-4,-2.596100792E-3
2.271390523E0,3.054236295E-4,-2.290677279E-3,-1.374406274E-3
2.273835835E0,3.054236295E-4,-1.068982761E-3,-1.374406274E-3
2.276280367E0,3.054236295E-4,-2.290677279E-3,1.068982761E-3
2.278724117E0,3.054236295E-4,-2.290677279E-3,1.068982761E-3
2.281168648E0,1.527118147E-3,-2.290677279E-3,-1.527118147E-4
2.283614065E0,1.527118147E-3,1.527118147E-4,1.068982761E-3
2.286058544E0,3.054236295E-4,1.527118147E-4,-1.527118147E-4
2.288502294E0,-2.137965523E-3,2.596100792E-3,1.068982761E-3
2.290946929E0,3.054236295E-4,1.374406274E-3,-1.527118147E-4
2.293392242E0,1.527118147E-3,-2.290677279E-3,-1.527118147E-4
2.295836773E0,-9.162708884E-4,1.527118147E-4,-1.527118147E-4
2.298280523E0,1.527118147E-3,-1.068982761E-3,1.068982761E-3
2.300725054E0,1.527118147E-3,-1.068982761E-3,1.068982761E-3
2.303170471E0,1.527118147E-3,1.527118147E-4,-1.527118147E-4
2.305614950E0,1.527118147E-3,-1.068982761E-3,-2.596100792E-3
2.308058700E0,-9.162708884E-4,1.527118147E-4,-1.374406274E-3
2.310503335E0,3.054236295E-4,-1.068982761E-3,-1.374406274E-3
2.312948648E0,3.054236295E-4,-1.068982761E-3,-2.596100792E-3
2.315393179E0,-9.162708884E-4,1.527118147E-4,-1.374406274E-3
2.317836929E0,3.054236295E-4,1.527118147E-4,-1.374406274E-3
2.320281460E0,1.527118147E-3,-3.512371797E-3,1.068982761E-3
2.322726877E0,1.527118147E-3,-1.068982761E-3,-1.527118147E-4
2.325171356E0,-9.162708884E-4,-1.068982761E-3,-2.596100792E-3
2.327615106E0,1.527118147E-3,-1.068982761E-3,-1.374406274E-3
2.330059742E0,2.748812549E-3,-2.290677279E-3,1.068982761E-3
2.332505054E0,3.054236295E-4,-1.068982761E-3,-1.374406274E-3
2.334949585E0,-9.162708884E-4,1.374406274E-3,-1.374406274E-3
2.337393335E0,1.527118147E-3,1.527118147E-4,-1.527118147E-4
2.339837867E0,3.054236295E-4,-3.512371797E-3,1.068982761E-3
2.342283283E0,3.054236295E-4,-2.290677279E-3,-1.374406274E-3
2.344727763E0,3.054236295E-4,-1.068982761E-3,-2.596100792E-3
2.347171513E0,-9.162708884E-4,1.527118147E-4,-1.374406274E-3
2.349616148E0,3.054236295E-4,1.527118147E-4,-1.527118147E-4
2.352061460E0,1.527118147E-3,1.527118147E-4,1.068982761E-3
2.354505992E0,1.527118147E-3,2.596100792E-3,-1.527118147E-4
2.356949742E0,1.527118147E-3,1.527118147E-4,-2.596100792E-3
2.359394273E0,3.054236295E-4,1.527118147E-4,-1.527118147E-4
2.361839690E0,-9.162708884E-4,1.527118147E-4,1.068982761E-3
2.364284169E0,-9.162708884E-4,1.527118147E-4,-1.374406274E-3
2.366727919E0,3.054236295E-4,-1.068982761E-3,-1.374406274E-3
2.369172554E0,3.054236295E-4,-2.290677279E-3,-1.374406274E-3
2.371617867E0,-9.162708884E-4,-1.068982761E-3,-1.527118147E-4
2.374062346E0,3.054236295E-4,1.527118147E-4,-3.817795310E-3
2.376506148E0,-9.162708884E-4,-2.290677279E-3,-2.596100792E-3
2.378950679E0,-9.162708884E-4,-1.068982761E-3,-2.596100792E-3
2.381396096E0,3.054236295E-4,-1.068982761E-3,1.068982761E-3
2.383840575E0,3.054236295E-4,1.374406274E-3,-1.527118147E-4
2.386284325E0,2.748812549E-3,1.527118147E-4,1.068982761E-3
2.388728856E0,3.054236295E-4,-1.068982761E-3,-1.527118147E-4
2.391174273E0,1.527118147E-3,-2.290677279E-3,1.068982761E-3
2.393618752E0,1.527118147E-3,-1.068982761E-3,-1.527118147E-4
2.396062554E0,3.054236295E-4,-2.290677279E-3,-2.596100792E-3
2.398507085E0,3.054236295E-4,-2.290677279E-3,-1.527118147E-4
2.400952502E0,3.054236295E-4,-1.068982761E-3,-1.527118147E-4
2.403396981E0,3.054236295E-4,1.527118147E-4,1.068982761E-3
2.405840731E0,3.054236295E-4,-1.068982761E-3,-1.374406274E-3
2.408285263E0,3.054236295E-4,-3.512371797E-3,2.290677279E-3
2.410730679E0,-9.162708884E-4,-1.068982761E-3,2.290677279E-3
2.413175158E0,-9.162708884E-4,1.527118147E-4,-1.374406274E-3
2.415618960E0,3.054236295E-4,1.527118147E-4,-1.374406274E-3
2.418063492E0,1.527118147E-3,-1.068982761E-3,-1.527118147E-4
2.420508856E0,3.054236295E-4,1.527118147E-4,-1.374406274E-3
2.422953388E0,1.527118147E-3,-2.290677279E-3,-1.527118147E-4
2.425397138E0,1.527118147E-3,1.527118147E-4,-1.374406274E-3
2.427841669E0,-9.162708884E-4,-1.068982761E-3,-1.527118147E-4
2.430287085E0,-9.162708884E-4,1.527118147E-4,-1.374406274E-3
2.432731565E0,3.054236295E-4,1.527118147E-4,-1.374406274E-3
2.435175315E0,3.054236295E-4,1.527118147E-4,1.068982761E-3
2.437619950E0,3.054236295E-4,-1.068982761E-3,-1.527118147E-4
2.440065263E0,-9.162708884E-4,-2.290677279E-3,-1.527118147E-4
2.442509794E0,3.054236295E-4,-2.290677279E-3,-1.374406274E-3
2.444953544E0,-9.162708884E-4,-1.068982761E-3,-2.596100792E-3
2.447398075E0,-2.137965523E-3,1.374406274E-3,-1.374406274E-3
2.449843492E0,3.054236295E-4,1.374406274E-3,-1.374406274E-3
2.452287971E0,3.054236295E-4,1.374406274E-3,-2.596100792E-3
2.454731721E0,1.527118147E-3,1.527118147E-4,1.068982761E-3
2.457176356E0,1.527118147E-3,-1.068982761E-3,1.068982761E-3
2.459621669E0,3.054236295E-4,-1.068982761E-3,-1.527118147E-4
2.462066200E0,3.054236295E-4,1.374406274E-3,-2.596100792E-3
2.464509950E0,-9.162708884E-4,1.527118147E-4,-1.374406274E-3
2.466954481E0,3.054236295E-4,1.374406274E-3,1.068982761E-3
2.469399898E0,3.054236295E-4,-1.068982761E-3,-1.527118147E-4
2.471844377E0,-9.162708884E-4,1.374406274E-3,-1.527118147E-4
2.474288127E0,-9.162708884E-4,1.527118147E-4,1.068982761E-3
2.476732763E0,3.054236295E-4,1.527118147E-4,1.068982761E-3
2.479178075E0,3.054236295E-4,-1.068982761E-3,-1.527118147E-4
2.481622606E0,-9.162708884E-4,1.527118147E-4,1.068982761E-3
2.484066356E0,-9.162708884E-4,1.527118147E-4,-1.527118147E-4
2.486510888E0,1.527118147E-3,1.527118147E-4,-1.374406274E-3
2.488956304E0,1.527118147E-3,1.527118147E-4,-1.527118147E-4
2.491400783E0,1.527118147E-3,2.596100792E-3,-1.374406274E-3
2.493844533E0,1.527118147E-3,1.527118147E-4,-2.596100792E-3
2.496289169E0,-9.162708884E-4,-1.068982761E-3,-1.527118147E-4
2.498734481E0,3.054236295E-4,1.527118147E-4,-1.527118147E-4
2.501179013E0,-9.162708884E-4,-1.068982761E-3,-2.596100792E-3
2.503622763E0,3.054236295E-4,-2.290677279E-3,-1.374406274E-3
2.506067294E0,3.054236295E-4,-1.068982761E-3,-1.374406274E-3
2.508512710E0,3.054236295E-4,-2.290677279E-3,-1.527118147E-4
2.510957190E0,-2.137965523E-3,-2.290677279E-3,-1.374406274E-3
2.513400940E0,-2.137965523E-3,1.374406274E-3,-1.527118147E-4
2.515845575E0,2.748812549E-3,1.527118147E-4,-1.527118147E-4
2.518290888E0,2.748812549E-3,2.596100792E-3,1.068982761E-3
2.520735419E0,2.748812549E-3,2.596100792E-3,-1.527118147E-4
2.523179169E0,-9.162708884E-4,1.527118147E-4,-1.374406274E-3
2.525623700E0,-9.162708884E-4,1.374406274E-3,-1.374406274E-3
2.528069117E0,3.054236295E-4,1.374406274E-3,-1.527118147E-4
2.530513596E0,3.054236295E-4,2.596100792E-3,-1.527118147E-4
2.532957346E0,1.527118147E-3,-2.290677279E-3,-1.527118147E-4
2.535401981E0,3.054236295E-4,-1.068982761E-3,-1.374406274E-3
2.537847294E0,3.054236295E-4,-1.068982761E-3,-1.374406274E-3
2.540291825E0,1.527118147E-3,1.527118147E-4,-1.527118147E-4
2.542735575E0,-9.162708884E-4,1.374406274E-3,-3.817795310E-3
2.545180106E0,3.054236295E-4,-1.068982761E-3,-1.527118147E-4
2.547625523E0,3.054236295E-4,-2.290677279E-3,1.068982761E-3
2.550070002E0,1.527118147E-3,-2.290677279E-3,-1.527118147E-4
2.552513752E0,3.054236295E-4,-1.068982761E-3,-1.527118147E-4
2.554958388E0,-9.162708884E-4,1.527118147E-4,-1.527118147E-4
2.557403700E0,3.054236295E-4,-1.068982761E-3,-1.527118147E-4
2.559848231E0,-9.162708884E-4,1.527118147E-4,-1.527118147E-4
2.562291981E0,-9.162708884E-4,-1.068982761E-3,-1.527118147E-4
2.564736513E0,3.054236295E-4,-1.068982761E-3,-2.596100792E-3
2.567181929E0,1.527118147E-3,-1.068982761E-3,-1.374406274E-3
2.569626408E0,3.054236295E-4,1.374406274E-3,-1.374406274E-3
2.572070158E0,-9.162708884E-4,1.527118147E-4,-1.527118147E-4
2.574514794E0,-9.162708884E-4,1.527118147E-4,-1.374406274E-3
2.576960106E0,-9.162708884E-4,1.374406274E-3,-1.374406274E-3
2.579404638E0,3.054236295E-4,-1.068982761E-3,-1.374406274E-3
2.581848388E0,-9.162708884E-4,1.527118147E-4,1.068982761E-3
2.584292919E0,1.527118147E-3,-1.068982761E-3,-2.596100792E-3
2.586738335E0,3.054236295E-4,1.527118147E-4,-2.596100792E-3
2.589182815E0,1.527118147E-3,1.527118147E-4,-1.527118147E-4
2.591626565E0,-9.162708884E-4,-1.068982761E-3,-1.374406274E-3
2.594071200E0,-9.162708884E-4,1.527118147E-4,-2.596100792E-3
2.596516513E0,3.054236295E-4,1.374406274E-3,-2.596100792E-3
2.598961044E0,1.527118147E-3,1.374406274E-3,1.068982761E-3
2.601404794E0,3.054236295E-4,1.527118147E-4,-1.527118147E-4
2.603849325E0,1.527118147E-3,1.374406274E-3,-2.596100792E-3
2.606294742E0,-9.162708884E-4,-1.068982761E-3,-2.596100792E-3
2.608739221E0,1.527118147E-3,1.527118147E-4,-1.527118147E-4
2.611182971E0,3.054236295E-4,-1.068982761E-3,-1.527118147E-4
2.613627606E0,3.054236295E-4,1.527118147E-4,-1.527118147E-4
2.616072919E0,-2.137965523E-3,-1.068982761E-3,-1.374406274E-3
2.618517450E0,-9.162708884E-4,-4.734066315E-3,1.068982761E-3
2.620961200E0,-3.359660041E-3,-5.955760833E-3,2.290677279E-3
2.623405731E0,-5.803049076E-3,-1.206423342E-2,2.290677279E-3
2.625851148E0,-1.191152167E-2,-2.061609551E-2,3.512371797E-3
2.628295627E0,-1.679829881E-2,-2.916795574E-2,4.734066315E-3
2.630739377E0,-2.168507688E-2,-3.405473381E-2,4.734066315E-3
2.633184013E0,-2.535016090E-2,-3.771981969E-2,2.290677279E-3
2.635629325E0,-2.657185495E-2,-3.283303976E-2,1.068982761E-3
2.638073856E0,-2.290677279E-2,-1.939439960E-2,-2.596100792E-3
2.640517606E0,-2.168507688E-2,-7.177455351E-3,-3.817795310E-3
2.642962138E0,-1.313321572E-2,-7.177455351E-3,-2.596100792E-3
2.645407554E0,2.748812549E-3,2.596100792E-3,-3.817795310E-3
2.647852033E0,1.007897966E-2,8.704573847E-3,-6.261184346E-3
2.650295783E0,2.107422985E-2,3.817795310E-3,-1.374406274E-3
2.652740419E0,1.985253580E-2,2.702999115E-2,-1.527118147E-4
2.655185731E0,2.718270384E-2,2.336490713E-2,-2.596100792E-3
2.657630263E0,2.596100792E-2,2.702999115E-2,-1.527118147E-4
2.660074013E0,2.596100792E-2,3.436015919E-2,1.068982761E-3
2.662518544E0,2.229592577E-2,3.802524135E-2,-1.527118147E-4
2.664963960E0,2.107422985E-2,3.802524135E-2,-1.527118147E-4
2.667408440E0,1.740914769E-2,1.847812906E-2,-1.527118147E-4
2.669852190E0,1.374406368E-2,5.039489828E-3,-1.527118147E-4
2.672296825E0,2.748812549E-3,3.817795310E-3,-2.596100792E-3
2.674742138E0,3.054236295E-4,-7.177455351E-3,1.068982761E-3
2.677186669E0,3.054236295E-4,2.596100792E-3,-1.374406274E-3
2.679630419E0,-4.581354558E-3,2.596100792E-3,-1.374406274E-3
2.682074950E0,-9.468132630E-3,-9.620844387E-3,-1.374406274E-3
2.684520367E0,-9.468132630E-3,-1.450762246E-2,-2.596100792E-3
2.686964846E0,-9.468132630E-3,-2.061609551E-2,-1.527118147E-4
2.689408596E0,-1.313321572E-2,-2.428117767E-2,1.068982761E-3
2.691853231E0,-2.168507688E-2,-2.061609551E-2,-3.817795310E-3
2.694298544E0,-1.924168877E-2,-2.061609551E-2,-1.374406274E-3
2.696743075E0,-1.313321572E-2,-1.206423342E-2,1.068982761E-3
2.699186825E0,-1.068982668E-2,-1.450762246E-2,1.068982761E-3
2.701631356E0,-7.024743594E-3,-1.206423342E-2,-1.527118147E-4
2.704076773E0,-8.246437646E-3,-8.399149403E-3,2.290677279E-3
2.706521252E0,-5.803049076E-3,-1.695101149E-2,1.068982761E-3
2.708965002E0,3.054236295E-4,-3.512371797E-3,-1.527118147E-4
2.711409638E0,-3.359660041E-3,6.261184346E-3,-1.374406274E-3
2.713854950E0,3.054236295E-4,1.374406274E-3,-1.527118147E-4
2.716299481E0,6.413896102E-3,7.482878864E-3,-1.374406274E-3
2.718743231E0,1.007897966E-2,9.926267900E-3,-2.596100792E-3
2.721187763E0,1.007897966E-2,1.114796288E-2,-1.527118147E-4
2.723633179E0,1.252236869E-2,1.969982497E-2,-1.374406274E-3
2.726077658E0,2.107422985E-2,2.336490713E-2,1.068982761E-3
2.728521408E0,2.229592577E-2,2.580829710E-2,-1.527118147E-4
2.730966044E0,1.863084175E-2,2.214321308E-2,-1.374406274E-3
2.733411356E0,1.618745178E-2,1.725643501E-2,-1.374406274E-3
2.735855888E0,1.618745178E-2,1.236965694E-2,-1.374406274E-3
2.738299638E0,6.413896102E-3,8.704573847E-3,-1.374406274E-3
2.740744169E0,-9.162708884E-4,1.374406274E-3,-1.527118147E-4
2.743189585E0,-7.024743594E-3,-3.512371797E-3,-1.374406274E-3
2.745634065E0,-5.803049076E-3,-1.084253844E-2,-1.374406274E-3
2.748077815E0,-1.679829881E-2,-5.955760833E-3,-3.817795310E-3
2.750522450E0,-1.435491070E-2,-1.695101149E-2,-1.527118147E-4
2.752967763E0,-1.557660475E-2,-1.939439960E-2,-1.374406274E-3
2.755412294E0,-1.191152167E-2,-2.061609551E-2,-1.374406274E-3
2.757856044E0,-1.068982668E-2,-1.328592747E-2,-1.374406274E-3
2.760300575E0,-9.468132630E-3,-1.328592747E-2,-1.527118147E-4
2.762745992E0,-3.359660041E-3,-9.620844387E-3,-1.374406274E-3
2.765190471E0,-9.162708884E-4,-7.177455351E-3,-1.527118147E-4
2.767634221E0,3.970507067E-3,1.527118147E-4,-1.527118147E-4
2.770078856E0,3.054236295E-4,5.039489828E-3,-1.527118147E-4
2.772524169E0,5.192201585E-3,6.261184346E-3,1.068982761E-3
2.774968700E0,1.130067464E-2,9.926267900E-3,-1.374406274E-3
2.777412450E0,7.635590620E-3,7.482878864E-3,1.068982761E-3
2.779856981E0,6.413896102E-3,1.114796288E-2,1.068982761E-3
2.782302398E0,3.970507067E-3,1.236965694E-2,-1.374406274E-3
2.784746877E0,6.413896102E-3,7.482878864E-3,-1.527118147E-4
2.787190627E0,6.413896102E-3,6.261184346E-3,-1.527118147E-4
2.789635263E0,2.748812549E-3,3.817795310E-3,-1.374406274E-3
2.792080575E0,3.054236295E-4,-1.068982761E-3,-1.527118147E-4
2.794525106E0,3.054236295E-4,1.374406274E-3,-1.527118147E-4
2.796968856E0,-2.137965523E-3,-3.512371797E-3,-1.527118147E-4
2.799413388E0,-3.359660041E-3,-5.955760833E-3,-1.374406274E-3
2.801858804E0,-5.803049076E-3,-4.734066315E-3,-2.596100792E-3
2.804303283E0,-2.137965523E-3,-9.620844387E-3,-1.527118147E-4
2.806747033E0,-2.137965523E-3,-5.955760833E-3,1.068982761E-3
2.809191669E0,-3.359660041E-3,-2.290677279E-3,-1.527118147E-4
2.811636981E0,-3.359660041E-3,-1.068982761E-3,-1.374406274E-3
2.814081513E0,1.527118147E-3,1.527118147E-4,-1.527118147E-4
2.816525263E0,3.970507067E-3,2.596100792E-3,-1.527118147E-4
2.818969794E0,1.527118147E-3,-1.068982761E-3,-1.527118147E-4
2.821415210E0,-9.162708884E-4,-1.068982761E-3,-1.527118147E-4
2.823859690E0,-9.162708884E-4,1.527118147E-4,-2.596100792E-3
2.826303440E0,3.054236295E-4,-3.512371797E-3,-1.374406274E-3
2.828748075E0,1.527118147E-3,1.374406274E-3,-1.527118147E-4
2.831193388E0,-9.162708884E-4,2.596100792E-3,-1.374406274E-3
2.833637919E0,-2.137965523E-3,1.527118147E-4,-1.527118147E-4
2.836081669E0,3.054236295E-4,1.374406274E-3,1.068982761E-3
2.838526200E0,3.054236295E-4,1.374406274E-3,-2.596100792E-3
2.840971617E0,1.527118147E-3,5.039489828E-3,-1.374406274E-3
2.843416096E0,1.527118147E-3,7.482878864E-3,-1.527118147E-4
2.845859846E0,3.970507067E-3,2.596100792E-3,-1.527118147E-4
2.848304481E0,6.413896102E-3,2.596100792E-3,-1.374406274E-3
2.850749794E0,5.192201585E-3,6.261184346E-3,-1.374406274E-3
2.853194325E0,1.527118147E-3,3.817795310E-3,-1.374406274E-3
2.855638075E0,1.527118147E-3,6.261184346E-3,-1.527118147E-4
2.858082606E0,1.527118147E-3,1.374406274E-3,-1.374406274E-3
2.860528023E0,1.527118147E-3,-1.068982761E-3,-1.374406274E-3
2.862972502E0,1.527118147E-3,-3.512371797E-3,-1.374406274E-3
2.865416304E0,-2.137965523E-3,-3.512371797E-3,1.068982761E-3
2.867860835E0,-3.359660041E-3,-3.512371797E-3,-1.527118147E-4
2.870306252E0,-3.359660041E-3,-5.955760833E-3,-1.374406274E-3
2.872750731E0,-3.359660041E-3,-4.734066315E-3,-2.596100792E-3
2.875194481E0,-3.359660041E-3,-4.734066315E-3,-2.596100792E-3
2.877639013E0,-2.137965523E-3,-3.512371797E-3,-1.374406274E-3
2.880084429E0,-2.137965523E-3,-1.068982761E-3,-3.817795310E-3
2.882528908E0,3.054236295E-4,-2.290677279E-3,-1.527118147E-4
2.884972710E0,2.748812549E-3,1.527118147E-4,-1.527118147E-4
2.887417242E0,1.527118147E-3,1.374406274E-3,-2.596100792E-3
2.889862658E0,2.748812549E-3,2.596100792E-3,2.290677279E-3
2.892307138E0,1.527118147E-3,3.817795310E-3,1.068982761E-3
2.894750888E0,3.970507067E-3,1.527118147E-4,2.290677279E-3
2.897195419E0,3.970507067E-3,2.596100792E-3,-1.527118147E-4
2.899640835E0,3.054236295E-4,3.817795310E-3,1.068982761E-3
2.902085315E0,1.527118147E-3,3.817795310E-3,-1.527118147E-4
2.904529117E0,-9.162708884E-4,1.527118147E-4,-1.527118147E-4
2.906973648E0,-2.137965523E-3,-2.290677279E-3,-2.596100792E-3
2.909419065E0,-9.162708884E-4,-3.512371797E-3,-1.374406274E-3
2.911863544E0,-2.137965523E-3,-3.512371797E-3,-1.374406274E-3
2.914307294E0,-3.359660041E-3,-4.734066315E-3,-1.527118147E-4
2.916751825E0,-3.359660041E-3,-4.734066315E-3,1.068982761E-3
2.919197242E0,-2.137965523E-3,-2.290677279E-3,-1.374406274E-3
2.921641773E0,-9.162708884E-4,-2.290677279E-3,-1.374406274E-3
2.924085523E0,-9.162708884E-4,-1.068982761E-3,1.068982761E-3
2.926530054E0,-9.162708884E-4,-2.290677279E-3,1.068982761E-3
2.928975471E0,3.054236295E-4,-1.068982761E-3,-1.374406274E-3
2.931419950E0,1.527118147E-3,-1.068982761E-3,-1.527118147E-4
2.933863700E0,2.748812549E-3,1.527118147E-4,-1.527118147E-4
2.936308335E0,1.527118147E-3,1.374406274E-3,1.068982761E-3
2.938753648E0,1.527118147E-3,1.374406274E-3,1.068982761E-3
2.941198179E0,1.527118147E-3,1.527118147E-4,-1.527118147E-4
2.943641929E0,1.527118147E-3,2.596100792E-3,2.290677279E-3
2.946086460E0,3.054236295E-4,1.527118147E-4,-1.527118147E-4
2.948531877E0,-9.162708884E-4,-2.290677279E-3,-1.374406274E-3
2.950976356E0,1.527118147E-3,1.374406274E-3,1.068982761E-3
2.953420106E0,3.054236295E-4,1.527118147E-4,1.068982761E-3
2.955864742E0,-2.137965523E-3,-2.290677279E-3,-1.374406274E-3
2.958310054E0,3.054236295E-4,1.527118147E-4,-1.374406274E-3
2.960754585E0,3.054236295E-4,1.527118147E-4,-1.527118147E-4
2.963198335E0,3.054236295E-4,1.374406274E-3,2.290677279E-3
2.965642867E0,3.054236295E-4,1.527118147E-4,-1.527118147E-4
2.968088283E0,3.054236295E-4,-1.068982761E-3,-1.527118147E-4
2.970532763E0,2.748812549E-3,1.374406274E-3,-1.527118147E-4
2.972976513E0,3.054236295E-4,1.374406274E-3,2.290677279E-3
2.975421148E0,-9.162708884E-4,1.374406274E-3,-1.527118147E-4
2.977866460E0,3.054236295E-4,-1.068982761E-3,-1.374406274E-3
2.980310992E0,3.054236295E-4,-1.068982761E-3,-1.527118147E-4
2.982754742E0,-9.162708884E-4,-1.068982761E-3,1.068982761E-3
2.985199273E0,-9.162708884E-4,-1.068982761E-3,1.068982761E-3
2.987644690E0,-2.137965523E-3,-3.512371797E-3,-1.527118147E-4
2.990089169E0,-2.137965523E-3,-2.290677279E-3,-1.527118147E-4
2.992532919E0,-2.137965523E-3,-2.290677279E-3,1.068982761E-3
2.994977554E0,-2.137965523E-3,-2.290677279E-3,-1.527118147E-4
2.997422867E0,-9.162708884E-4,-1.068982761E-3,-1.527118147E-4
2.999867398E0,2.748812549E-3,-3.512371797E-3,-1.527118147E-4
3.002311148E0,2.748812549E-3,1.374406274E-3,-1.527118147E-4
3.004755679E0,2.748812549E-3,3.817795310E-3,-1.374406274E-3
3.007201096E0,1.527118147E-3,1.374406274E-3,2.290677279E-3
3.009645575E0,3.970507067E-3,1.374406274E-3,2.290677279E-3
3.012089325E0,1.527118147E-3,3.817795310E-3,-2.596100792E-3
3.014533960E0,1.527118147E-3,2.596100792E-3,-1.374406274E-3
3.016979273E0,2.748812549E-3,2.596100792E-3,-1.527118147E-4
3.019423804E0,1.527118147E-3,2.596100792E-3,1.068982761E-3
3.021867554E0,1.527118147E-3,1.527118147E-4,-1.527118147E-4
3.024312085E0,3.054236295E-4,-1.068982761E-3,-1.527118147E-4
3.026757502E0,3.054236295E-4,-1.068982761E-3,-1.527118147E-4
3.029201981E0,3.054236295E-4,-2.290677279E-3,-1.374406274E-3
3.031645731E0,-9.162708884E-4,-2.290677279E-3,-1.374406274E-3
3.034090367E0,-9.162708884E-4,-1.068982761E-3,-1.374406274E-3
3.036535679E0,-9.162708884E-4,-1.068982761E-3,1.068982761E-3
3.038980210E0,-9.162708884E-4,-2.290677279E-3,-1.374406274E-3
3.041423960E0,-3.359660041E-3,1.374406274E-3,-1.374406274E-3
3.043868492E0,-3.359660041E-3,1.527118147E-4,1.068982761E-3
3.046313908E0,-9.162708884E-4,1.527118147E-4,1.068982761E-3
3.048758388E0,1.527118147E-3,1.527118147E-4,-1.527118147E-4
3.051202138E0,3.054236295E-4,-1.068982761E-3,-1.527118147E-4
3.053646773E0,1.527118147E-3,1.527118147E-4,-1.527118147E-4
3.056092138E0,1.527118147E-3,1.527118147E-4,1.068982761E-3
3.058536617E0,1.527118147E-3,-1.068982761E-3,-1.527118147E-4
3.060980367E0,3.054236295E-4,1.527118147E-4,1.068982761E-3
3.063424898E0,3.054236295E-4,-2.290677279E-3,-1.527118147E-4
3.065870315E0,-2.137965523E-3,-3.512371797E-3,-1.374406274E-3
3.068314794E0,-9.162708884E-4,1.527118147E-4,2.290677279E-3
3.070758596E0,-9.162708884E-4,1.527118147E-4,1.068982761E-3
3.073203127E0,3.054236295E-4,-2.290677279E-3,1.068982761E-3
3.075648544E0,2.748812549E-3,1.527118147E-4,1.068982761E-3
3.078093023E0,3.054236295E-4,1.374406274E-3,-1.374406274E-3
3.080536773E0,-9.162708884E-4,1.527118147E-4,-1.527118147E-4
3.082981304E0,3.054236295E-4,2.596100792E-3,1.068982761E-3
3.085426721E0,1.527118147E-3,1.527118147E-4,-1.527118147E-4
3.087871200E0,1.527118147E-3,-1.068982761E-3,-1.527118147E-4
3.090315002E0,-9.162708884E-4,-1.068982761E-3,-1.527118147E-4
3.092759533E0,1.527118147E-3,1.527118147E-4,-1.527118147E-4
3.095204950E0,3.054236295E-4,1.527118147E-4,-1.374406274E-3
3.097649429E0,-9.162708884E-4,-2.290677279E-3,-2.596100792E-3
3.100093179E0,3.054236295E-4,-3.512371797E-3,-1.527118147E-4
3.102537815E0,-2.137965523E-3,-2.290677279E-3,-1.374406274E-3
3.104983127E0,-2.137965523E-3,-2.290677279E-3,1.068982761E-3
3.107427658E0,-2.137965523E-3,-2.290677279E-3,-3.817795310E-3
3.109871408E0,-9.162708884E-4,-3.512371797E-3,-1.374406274E-3
3.112315940E0,-2.137965523E-3,-2.290677279E-3,-1.527118147E-4
3.114761356E0,-9.162708884E-4,1.527118147E-4,-1.374406274E-3
3.117205835E0,-9.162708884E-4,1.374406274E-3,-1.374406274E-3
3.119649585E0,3.054236295E-4,2.596100792E-3,-1.527118147E-4
3.122094221E0,3.054236295E-4,1.374406274E-3,1.068982761E-3
3.124539533E0,1.527118147E-3,1.527118147E-4,-1.527118147E-4
3.126984065E0,2.748812549E-3,1.374406274E-3,-1.374406274E-3
3.129427815E0,1.527118147E-3,3.817795310E-3,-1.374406274E-3
3.131872346E0,1.527118147E-3,1.374406274E-3,1.068982761E-3
3.134317763E0,1.527118147E-3,1.374406274E-3,-1.527118147E-4
3.136762242E0,1.527118147E-3,1.374406274E-3,-1.527118147E-4
3.139205992E0,3.054236295E-4,1.374406274E-3,-1.527118147E-4
3.141650627E0,3.054236295E-4,1.527118147E-4,-1.527118147E-4
3.144095940E0,3.054236295E-4,-3.512371797E-3,-1.374406274E-3
3.146540471E0,3.054236295E-4,-1.068982761E-3,-1.374406274E-3
3.148984221E0,3.054236295E-4,-2.290677279E-3,-1.374406274E-3
3.151428752E0,1.527118147E-3,-4.734066315E-3,-1.527118147E-4
3.153874169E0,3.054236295E-4,-2.290677279E-3,-1.527118147E-4
3.156318648E0,-4.581354558E-3,-1.068982761E-3,-2.596100792E-3
3.158762398E0,-2.137965523E-3,-1.068982761E-3,-2.596100792E-3
3.161207033E0,3.054236295E-4,-2.290677279E-3,-1.374406274E-3
3.163652346E0,1.527118147E-3,1.527118147E-4,-1.527118147E-4
3.166096877E0,3.054236295E-4,-1.068982761E-3,-1.374406274E-3
3.168540627E0,3.054236295E-4,-1.068982761E-3,-1.374406274E-3
3.170985158E0,1.527118147E-3,-1.068982761E-3,-1.527118147E-4
3.173430575E0,3.054236295E-4,1.527118147E-4,-1.527118147E-4
3.175875054E0,3.054236295E-4,-1.068982761E-3,-2.596100792E-3
3.178318804E0,3.054236295E-4,1.374406274E-3,-1.374406274E-3
3.180763440E0,3.054236295E-4,-1.068982761E-3,-1.374406274E-3
3.183208804E0,3.054236295E-4,-1.068982761E-3,1.068982761E-3
3.185653283E0,-9.162708884E-4,1.527118147E-4,-1.374406274E-3
3.188097033E0,1.527118147E-3,-2.290677279E-3,1.068982761E-3
3.190541669E0,3.054236295E-4,1.527118147E-4,-1.527118147E-4
3.192986981E0,1.527118147E-3,1.374406274E-3,2.290677279E-3
3.195431460E0,3.054236295E-4,1.374406274E-3,-1.527118147E-4
3.197875263E0,3.054236295E-4,-1.068982761E-3,-2.596100792E-3
3.200319794E0,3.054236295E-4,1.527118147E-4,-3.817795310E-3
3.202765210E0,3.054236295E-4,2.596100792E-3,-1.527118147E-4
3.205209690E0,3.054236295E-4,2.596100792E-3,-1.374406274E-3
3.207653440E0,3.054236295E-4,-1.068982761E-3,-1.374406274E-3
3.210098075E0,3.054236295E-4,-2.290677279E-3,-1.374406274E-3
3.212543388E0,3.054236295E-4,-2.290677279E-3,-2.596100792E-3
3.214987919E0,-9.162708884E-4,-1.068982761E-3,-1.527118147E-4
3.217431669E0,3.054236295E-4,-1.068982761E-3,1.068982761E-3
3.219876200E0,3.054236295E-4,1.527118147E-4,-1.527118147E-4
3.222321617E0,3.054236295E-4,-1.068982761E-3,-1.374406274E-3
3.224766096E0,1.527118147E-3,-1.068982761E-3,-1.527118147E-4
3.227209846E0,3.054236295E-4,-2.290677279E-3,-1.374406274E-3
3.229654481E0,-9.162708884E-4,-3.512371797E-3,-1.374406274E-3
3.232099794E0,1.527118147E-3,-1.068982761E-3,1.068982761E-3
3.234544325E0,-9.162708884E-4,1.527118147E-4,-1.527118147E-4
3.236988075E0,1.527118147E-3,1.527118147E-4,-1.374406274E-3
3.239432606E0,3.054236295E-4,1.527118147E-4,-2.596100792E-3
3.241878023E0,3.054236295E-4,1.527118147E-4,1.068982761E-3
3.244322502E0,1.527118147E-3,-2.290677279E-3,-1.527118147E-4
3.246766252E0,1.527118147E-3,1.527118147E-4,-1.527118147E-4
3.249210888E0,1.527118147E-3,1.527118147E-4,-2.596100792E-3
3.251656200E0,1.527118147E-3,1.374406274E-3,-1.527118147E-4
3.254100731E0,3.054236295E-4,1.374406274E-3,-1.527118147E-4
3.256544481E0,3.054236295E-4,1.374406274E-3,-1.374406274E-3
3.258989013E0,3.054236295E-4,-1.068982761E-3,-2.596100792E-3
3.261434429E0,-9.162708884E-4,-1.068982761E-3,-1.374406274E-3
3.263878908E0,-9.162708884E-4,-1.068982761E-3,-1.527118147E-4
3.266322658E0,-9.162708884E-4,-1.068982761E-3,-1.374406274E-3
3.268767294E0,3.054236295E-4,1.527118147E-4,-1.527118147E-4
3.271212658E0,3.054236295E-4,-1.068982761E-3,-1.527118147E-4
3.273657138E0,-9.162708884E-4,-1.068982761E-3,-1.527118147E-4
3.276100888E0,-9.162708884E-4,-2.290677279E-3,-1.527118147E-4
3.278545419E0,-9.162708884E-4,1.527118147E-4,1.068982761E-3
3.280990835E0,1.527118147E-3,-1.068982761E-3,-2.596100792E-3
3.283435315E0,-9.162708884E-4,1.527118147E-4,-1.527118147E-4
3.285879065E0,-2.137965523E-3,-1.068982761E-3,-1.527118147E-4
3.288323700E0,3.054236295E-4,1.527118147E-4,-1.527118147E-4
3.290769013E0,-3.359660041E-3,1.527118147E-4,-1.374406274E-3
3.293213544E0,3.054236295E-4,1.527118147E-4,-1.527118147E-4
3.295657294E0,3.054236295E-4,-2.290677279E-3,-1.527118147E-4
3.298101825E0,-9.162708884E-4,1.527118147E-4,-1.374406274E-3
3.300547242E0,3.054236295E-4,1.374406274E-3,-1.527118147E-4
3.302991721E0,3.054236295E-4,1.374406274E-3,-1.374406274E-3
3.305435523E0,1.527118147E-3,1.527118147E-4,1.068982761E-3
3.307880054E0,2.748812549E-3,1.527118147E-4,-1.527118147E-4
3.310325471E0,3.054236295E-4,1.527118147E-4,-2.596100792E-3
3.312769950E0,1.527118147E-3,1.527118147E-4,-1.374406274E-3
3.315213700E0,3.054236295E-4,1.527118147E-4,-1.527118147E-4
3.317658335E0,1.527118147E-3,1.527118147E-4,-1.374406274E-3
3.320103648E0,1.527118147E-3,1.374406274E-3,-2.596100792E-3
3.322548127E0,3.054236295E-4,-2.290677279E-3,-2.596100792E-3
3.324991929E0,3.054236295E-4,1.527118147E-4,-1.374406274E-3
3.327436460E0,3.054236295E-4,1.374406274E-3,1.068982761E-3
3.329881877E0,3.054236295E-4,1.374406274E-3,1.068982761E-3
3.332326356E0,3.054236295E-4,1.527118147E-4,1.068982761E-3
3.334770106E0,-9.162708884E-4,1.527118147E-4,-1.527118147E-4
3.337214742E0,3.054236295E-4,-1.068982761E-3,-1.374406274E-3
3.339660054E0,3.054236295E-4,1.374406274E-3,-1.527118147E-4
3.342104585E0,3.054236295E-4,-2.290677279E-3,-1.374406274E-3
3.344548335E0,3.054236295E-4,1.527118147E-4,-1.527118147E-4
3.346992867E0,-9.162708884E-4,1.374406274E-3,1.068982761E-3
3.349438283E0,3.054236295E-4,1.527118147E-4,-1.527118147E-4
3.351882763E0,3.054236295E-4,-2.290677279E-3,-1.374406274E-3
3.354326513E0,1.527118147E-3,-1.068982761E-3,-1.374406274E-3
3.356771148E0,3.054236295E-4,1.374406274E-3,-1.374406274E-3
3.359216460E0,3.054236295E-4,1.374406274E-3,-1.527118147E-4
3.361660992E0,3.054236295E-4,1.374406274E-3,-1.527118147E-4
3.364104742E0,2.748812549E-3,-1.068982761E-3,-1.527118147E-4
3.366549273E0,2.748812549E-3,1.527118147E-4,1.068982761E-3
3.368994690E0,-9.162708884E-4,1.374406274E-3,-1.527118147E-4
3.371439169E0,1.527118147E-3,-1.068982761E-3,-1.527118147E-4
3.373882971E0,1.527118147E-3,1.527118147E-4,-1.527118147E-4
3.376327502E0,3.054236295E-4,1.527118147E-4,-2.596100792E-3
3.378772919E0,-9.162708884E-4,1.374406274E-3,2.290677279E-3
3.381217398E0,-2.137965523E-3,2.596100792E-3,-1.527118147E-4
3.383661148E0,-9.162708884E-4,1.527118147E-4,-1.527118147E-4
3.386105679E0,-9.162708884E-4,-1.068982761E-3,-1.374406274E-3
3.388551096E0,2.748812549E-3,-1.068982761E-3,1.068982761E-3
3.390995575E0,1.527118147E-3,-1.068982761E-3,1.068982761E-3
3.393439377E0,-9.162708884E-4,-1.068982761E-3,-1.527118147E-4
3.395883908E0,3.054236295E-4,1.374406274E-3,-1.527118147E-4
3.398329325E0,3.054236295E-4,1.374406274E-3,-1.527118147E-4
3.400773804E0,3.054236295E-4,-1.068982761E-3,-1.374406274E-3
3.403217554E0,3.054236295E-4,-1.068982761E-3,-2.596100792E-3
3.405662085E0,3.054236295E-4,-1.068982761E-3,-1.374406274E-3
3.408107502E0,2.748812549E-3,1.527118147E-4,1.068982761E-3
3.410552033E0,1.527118147E-3,1.527118147E-4,-2.596100792E-3
3.412995783E0,1.527118147E-3,1.374406274E-3,-2.596100792E-3
3.415440315E0,3.054236295E-4,1.527118147E-4,-1.527118147E-4
3.417885731E0,1.527118147E-3,-2.290677279E-3,-1.527118147E-4
3.420330210E0,1.527118147E-3,-2.290677279E-3,-1.527118147E-4
3.422773960E0,3.054236295E-4,1.374406274E-3,-2.596100792E-3
3.425218596E0,-9.162708884E-4,1.527118147E-4,-1.374406274E-3
3.427663908E0,1.527118147E-3,1.527118147E-4,-1.527118147E-4
3.430108440E0,2.748812549E-3,1.527118147E-4,1.068982761E-3
3.432552190E0,3.054236295E-4,1.374406274E-3,-1.527118147E-4
3.434996721E0,1.527118147E-3,1.527118147E-4,-1.374406274E-3
3.437442138E0,-9.162708884E-4,1.374406274E-3,-1.374406274E-3
3.439886617E0,3.054236295E-4,-1.068982761E-3,-1.527118147E-4
3.442330367E0,3.054236295E-4,-1.068982761E-3,1.068982761E-3
3.444775002E0,3.054236295E-4,1.527118147E-4,-2.596100792E-3
3.447220315E0,1.527118147E-3,1.527118147E-4,1.068982761E-3
3.449664846E0,2.748812549E-3,1.527118147E-4,2.290677279E-3
3.452108596E0,3.054236295E-4,1.527118147E-4,-1.374406274E-3
3.454553127E0,3.054236295E-4,-1.068982761E-3,-1.374406274E-3
3.456998544E0,3.054236295E-4,1.374406274E-3,-2.596100792E-3
3.459443023E0,-9.162708884E-4,1.374406274E-3,-2.596100792E-3
3.461886773E0,3.054236295E-4,-1.068982761E-3,-1.374406274E-3
3.464331408E0,1.527118147E-3,1.527118147E-4,1.068982761E-3
3.466776773E0,1.527118147E-3,1.527118147E-4,1.068982761E-3
3.469221252E0,3.054236295E-4,-1.068982761E-3,-1.374406274E-3
3.471665002E0,3.054236295E-4,1.527118147E-4,-1.374406274E-3
3.474109533E0,2.748812549E-3,1.374406274E-3,-1.527118147E-4
3.476554950E0,1.527118147E-3,-1.068982761E-3,-1.527118147E-4
3.478999429E0,3.054236295E-4,1.374406274E-3,-1.527118147E-4
3.481443231E0,1.527118147E-3,1.527118147E-4,-1.527118147E-4
3.483887763E0,3.054236295E-4,1.527118147E-4,-1.374406274E-3
3.486333179E0,1.527118147E-3,1.527118147E-4,1.068982761E-3
3.488777658E0,1.527118147E-3,1.527118147E-4,-1.374406274E-3
3.491221408E0,3.054236295E-4,-1.068982761E-3,-1.374406274E-3
3.493665940E0,3.054236295E-4,-2.290677279E-3,-1.527118147E-4
3.496111356E0,3.054236295E-4,-1.068982761E-3,-1.527118147E-4
3.498555888E0,3.054236295E-4,1.527118147E-4,-1.374406274E-3
3.500999638E0,3.054236295E-4,1.374406274E-3,-3.817795310E-3
3.503444169E0,3.054236295E-4,1.527118147E-4,1.068982761E-3
3.505889585E0,3.054236295E-4,1.527118147E-4,1.068982761E-3
3.508334065E0,-9.162708884E-4,1.374406274E-3,-3.817795310E-3
3.510777815E0,3.054236295E-4,1.527118147E-4,-1.374406274E-3
3.513222450E0,1.527118147E-3,-1.068982761E-3,-1.527118147E-4
3.515667763E0,3.054236295E-4,1.527118147E-4,1.068982761E-3
3.518112294E0,3.054236295E-4,1.527118147E-4,-1.527118147E-4
3.520556044E0,1.527118147E-3,-1.068982761E-3,-1.527118147E-4
3.523000575E0,-9.162708884E-4,-1.068982761E-3,-1.374406274E-3
3.525445992E0,3.054236295E-4,1.527118147E-4,-1.527118147E-4
3.527890471E0,-9.162708884E-4,2.596100792E-3,-1.527118147E-4
3.530334221E0,1.527118147E-3,1.374406274E-3,-2.596100792E-3
3.532778856E0,3.054236295E-4,-1.068982761E-3,-1.527118147E-4
3.535224169E0,3.054236295E-4,-3.512371797E-3,-1.527118147E-4
3.537668700E0,-9.162708884E-4,-1.068982761E-3,-2.596100792E-3
3.540112450E0,3.054236295E-4,1.527118147E-4,-1.374406274E-3
3.542556981E0,1.527118147E-3,1.374406274E-3,-1.374406274E-3
3.545002398E0,1.527118147E-3,-1.068982761E-3,-1.527118147E-4
3.547446877E0,3.054236295E-4,1.527118147E-4,-1.374406274E-3
3.549890627E0,-9.162708884E-4,-1.068982761E-3,-1.527118147E-4
3.552335263E0,-9.162708884E-4,2.596100792E-3,1.068982761E-3
3.554780627E0,1.527118147E-3,1.374406274E-3,-1.527118147E-4
3.557225106E0,1.527118147E-3,1.527118147E-4,-1.374406274E-3
3.559668856E0,3.054236295E-4,-1.068982761E-3,-1.374406274E-3
3.562113388E0,3.054236295E-4,-2.290677279E-3,-1.527118147E-4
3.564558804E0,3.054236295E-4,1.527118147E-4,-1.374406274E-3
3.567003283E0,1.527118147E-3,1.527118147E-4,-1.374406274E-3
3.569447085E0,3.054236295E-4,1.527118147E-4,1.068982761E-3
3.571891617E0,3.054236295E-4,1.527118147E-4,2.290677279E-3
3.574337033E0,3.054236295E-4,-1.068982761E-3,1.068982761E-3
3.576781513E0,-9.162708884E-4,-1.068982761E-3,-1.527118147E-4
3.579225263E0,3.054236295E-4,-2.290677279E-3,1.068982761E-3
3.581669898E0,3.054236295E-4,-2.290677279E-3,1.068982761E-3
3.584115210E0,1.527118147E-3,1.527118147E-4,-2.596100792E-3
3.586559742E0,1.527118147E-3,1.527118147E-4,-1.527118147E-4
3.589003492E0,3.054236295E-4,1.527118147E-4,-1.527118147E-4
3.591448023E0,1.527118147E-3,1.527118147E-4,1.068982761E-3
3.593893440E0,3.054236295E-4,-1.068982761E-3,-1.374406274E-3
3.596337919E0,3.054236295E-4,1.527118147E-4,-1.374406274E-3
3.598781669E0,1.527118147E-3,1.527118147E-4,-2.596100792E-3
3.601226304E0,-9.162708884E-4,-1.068982761E-3,-3.817795310E-3
3.603671617E0,-9.162708884E-4,1.527118147E-4,-1.374406274E-3
3.606116148E0,1.527118147E-3,-2.290677279E-3,-1.527118147E-4
3.608559898E0,1.527118147E-3,-1.068982761E-3,-1.527118147E-4
3.611004429E0,3.054236295E-4,-2.290677279E-3,1.068982761E-3
3.613449846E0,-9.162708884E-4,-2.290677279E-3,2.290677279E-3
3.615894325E0,3.054236295E-4,1.527118147E-4,-1.527118147E-4
3.618338075E0,1.527118147E-3,-1.068982761E-3,-1.374406274E-3
3.620782710E0,1.527118147E-3,-1.068982761E-3,-1.527118147E-4
3.623228023E0,1.527118147E-3,-1.068982761E-3,-1.374406274E-3
3.625672554E0,-9.162708884E-4,1.374406274E-3,-1.527118147E-4
3.628116304E0,3.054236295E-4,-1.068982761E-3,-1.527118147E-4
3.630560940E0,1.527118147E-3,1.527118147E-4,-1.527118147E-4
3.633006252E0,3.054236295E-4,-2.290677279E-3,-1.527118147E-4
3.635450731E0,3.054236295E-4,-1.068982761E-3,-1.374406274E-3
3.637894533E0,3.054236295E-4,1.527118147E-4,-1.374406274E-3
3.640339065E0,3.054236295E-4,1.527118147E-4,-1.374406274E-3
3.642784481E0,3.054236295E-4,-1.068982761E-3,1.068982761E-3
3.645228960E0,-9.162708884E-4,1.527118147E-4,2.290677279E-3
3.647672710E0,-9.162708884E-4,-1.068982761E-3,-1.527118147E-4
3.650117346E0,-9.162708884E-4,-2.290677279E-3,-1.527118147E-4
3.652562658E0,3.054236295E-4,-1.068982761E-3,-1.527118147E-4
3.655007190E0,3.054236295E-4,1.374406274E-3,-1.527118147E-4
3.657450940E0,3.054236295E-4,1.527118147E-4,-1.527118147E-4
3.659895471E0,3.054236295E-4,-1.068982761E-3,-1.374406274E-3
3.662340888E0,3.054236295E-4,1.527118147E-4,-1.527118147E-4
3.664785367E0,-9.162708884E-4,-3.512371797E-3,-1.527118147E-4
3.667229117E0,-9.162708884E-4,-1.068982761E-3,-1.527118147E-4
3.669673752E0,-9.162708884E-4,-3.512371797E-3,1.068982761E-3
3.672119065E0,-9.162708884E-4,-1.068982761E-3,-1.527118147E-4
3.674563596E0,-9.162708884E-4,1.374406274E-3,-1.527118147E-4
3.677007346E0,3.054236295E-4,-1.068982761E-3,-1.527118147E-4
3.679451877E0,3.054236295E-4,-2.290677279E-3,-1.374406274E-3
3.681897294E0,3.054236295E-4,-1.068982761E-3,-1.374406274E-3
3.684341773E0,-9.162708884E-4,1.374406274E-3,-1.527118147E-4
3.686785523E0,-9.162708884E-4,1.527118147E-4,-1.374406274E-3
3.689230158E0,-9.162708884E-4,1.374406274E-3,-1.527118147E-4
3.691675523E0,3.054236295E-4,-1.068982761E-3,1.068982761E-3
3.694120002E0,3.054236295E-4,-2.290677279E-3,-2.596100792E-3
3.696563752E0,-9.162708884E-4,1.374406274E-3,-1.374406274E-3
3.699008283E0,1.527118147E-3,1.374406274E-3,-1.374406274E-3
3.701453700E0,1.527118147E-3,-1.068982761E-3,1.068982761E-3
3.703898179E0,3.054236295E-4,-1.068982761E-3,-1.527118147E-4
3.706341981E0,3.054236295E-4,-1.068982761E-3,1.068982761E-3
3.708786513E0,-9.162708884E-4,-1.068982761E-3,-1.527118147E-4
3.711231929E0,-9.162708884E-4,-1.068982761E-3,-1.527118147E-4
3.713676408E0,1.527118147E-3,-1.068982761E-3,-1.374406274E-3
3.716120158E0,3.054236295E-4,1.374406274E-3,-1.374406274E-3
3.718564794E0,3.054236295E-4,-1.068982761E-3,-1.527118147E-4
3.721010106E0,-9.162708884E-4,-1.068982761E-3,-1.374406274E-3
3.723454638E0,-9.162708884E-4,1.527118147E-4,-1.527118147E-4
3.725898388E0,3.054236295E-4,1.527118147E-4,-1.374406274E-3
3.728342919E0,-9.162708884E-4,-1.068982761E-3,-1.527118147E-4
3.730788335E0,1.527118147E-3,-1.068982761E-3,1.068982761E-3
3.733232815E0,1.527118147E-3,-2.290677279E-3,-1.374406274E-3
3.735676565E0,-9.162708884E-4,1.527118147E-4,-3.817795310E-3
3.738121200E0,1.527118147E-3,1.527118147E-4,-1.374406274E-3
3.740566513E0,2.748812549E-3,-1.068982761E-3,-1.374406274E-3
3.743011044E0,1.527118147E-3,1.374406274E-3,-1.374406274E-3
3.745454794E0,-9.162708884E-4,1.374406274E-3,-3.817795310E-3
3.747899325E0,-2.137965523E-3,1.374406274E-3,-2.596100792E-3
3.750344742E0,3.054236295E-4,1.527118147E-4,-1.527118147E-4
3.752789221E0,3.054236295E-4,1.527118147E-4,-1.527118147E-4
3.755232971E0,1.527118147E-3,1.527118147E-4,-1.527118147E-4
3.757677606E0,3.054236295E-4,-2.290677279E-3,1.068982761E-3
3.760122919E0,1.527118147E-3,-2.290677279E-3,2.290677279E-3
3.762567450E0,1.527118147E-3,-3.512371797E-3,-1.527118147E-4
3.765011200E0,1.527118147E-3,-1.068982761E-3,1.068982761E-3
3.767455731E0,-9.162708884E-4,-1.068982761E-3,-1.374406274E-3
3.769901148E0,-9.162708884E-4,-2.290677279E-3,-1.527118147E-4
3.772345627E0,-9.162708884E-4,-1.068982761E-3,-1.374406274E-3
3.774789429E0,3.054236295E-4,-1.068982761E-3,-1.527118147E-4
3.777233960E0,1.527118147E-3,-1.068982761E-3,1.068982761E-3
3.779679377E0,3.054236295E-4,-1.068982761E-3,-1.374406274E-3
3.782123856E0,3.054236295E-4,-1.068982761E-3,-1.527118147E-4
3.784567606E0,1.527118147E-3,1.527118147E-4,2.290677279E-3
3.787012242E0,3.054236295E-4,-1.068982761E-3,-1.527118147E-4
3.789457554E0,3.054236295E-4,1.527118147E-4,-1.527118147E-4
3.791902085E0,-2.137965523E-3,1.527118147E-4,-3.817795310E-3
3.794345835E0,-9.162708884E-4,1.527118147E-4,-2.596100792E-3
3.796790367E0,1.527118147E-3,-1.068982761E-3,-1.527118147E-4
3.799235783E0,3.054236295E-4,1.527118147E-4,-1.374406274E-3
3.801680263E0,3.054236295E-4,1.527118147E-4,-2.596100792E-3
3.804124013E0,-9.162708884E-4,-2.290677279E-3,-1.527118147E-4
3.806568648E0,-2.137965523E-3,-1.068982761E-3,-1.374406274E-3
3.809013960E0,-9.162708884E-4,1.527118147E-4,-2.596100792E-3
3.811458492E0,-2.137965523E-3,-1.068982761E-3,-1.374406274E-3
3.813902242E0,3.054236295E-4,-1.068982761E-3,1.068982761E-3
3.816346773E0,3.054236295E-4,-1.068982761E-3,1.068982761E-3
3.818792190E0,-9.162708884E-4,1.527118147E-4,1.068982761E-3
3.821236669E0,-9.162708884E-4,1.527118147E-4,-1.374406274E-3
3.823680419E0,3.054236295E-4,-1.068982761E-3,-1.527118147E-4
3.826125054E0,-9.162708884E-4,-1.068982761E-3,-1.527118147E-4
3.828570367E0,-9.162708884E-4,1.527118147E-4,-1.374406274E-3
3.831014898E0,1.527118147E-3,1.374406274E-3,-1.374406274E-3
3.833458648E0,1.527118147E-3,1.527118147E-4,-1.374406274E-3
3.835903179E0,3.054236295E-4,-1.068982761E-3,-1.374406274E-3
3.838348596E0,3.054236295E-4,-1.068982761E-3,-1.374406274E-3
3.840793127E0,3.054236295E-4,1.527118147E-4,-2.596100792E-3
3.843236877E0,3.054236295E-4,-1.068982761E-3,-1.527118147E-4
3.845681408E0,-9.162708884E-4,1.527118147E-4,-1.527118147E-4
3.848126825E0,3.054236295E-4,-1.068982761E-3,-2.596100792E-3
3.850571304E0,3.054236295E-4,-2.290677279E-3,-1.527118147E-4
3.853015054E0,3.054236295E-4,1.374406274E-3,-1.374406274E-3
3.855459690E0,-2.137965523E-3,1.374406274E-3,-1.374406274E-3
3.857905002E0,-9.162708884E-4,1.527118147E-4,-1.527118147E-4
3.860349533E0,-9.162708884E-4,-2.290677279E-3,-1.374406274E-3
3.862793283E0,-9.162708884E-4,1.527118147E-4,-1.374406274E-3
3.865237815E0,3.054236295E-4,1.527118147E-4,-2.596100792E-3
3.867683231E0,3.054236295E-4,-1.068982761E-3,-1.374406274E-3
3.870127710E0,1.527118147E-3,-1.068982761E-3,-1.527118147E-4
3.872571460E0,1.527118147E-3,-1.068982761E-3,2.290677279E-3
3.875016096E0,3.054236295E-4,1.527118147E-4,1.068982761E-3
3.877461408E0,1.527118147E-3,1.527118147E-4,-1.374406274E-3
3.879905940E0,-9.162708884E-4,1.527118147E-4,-2.596100792E-3
3.882349690E0,-9.162708884E-4,-1.068982761E-3,-1.527118147E-4
3.884794221E0,1.527118147E-3,1.527118147E-4,-1.527118147E-4
3.887239638E0,3.054236295E-4,1.527118147E-4,-1.527118147E-4
3.889684117E0,-9.162708884E-4,-1.068982761E-3,-1.527118147E-4
3.892127919E0,-9.162708884E-4,1.527118147E-4,-1.374406274E-3
3.894572450E0,3.054236295E-4,1.527118147E-4,-1.527118147E-4
3.897017867E0,-9.162708884E-4,1.374406274E-3,-1.527118147E-4
3.899462346E0,3.054236295E-4,-1.068982761E-3,-1.527118147E-4
3.901906096E0,3.054236295E-4,1.527118147E-4,1.068982761E-3
3.904350627E0,-9.162708884E-4,1.527118147E-4,-1.527118147E-4
3.906796044E0,-9.162708884E-4,-1.068982761E-3,-1.374406274E-3
3.909240575E0,3.054236295E-4,-1.068982761E-3,1.068982761E-3
3.911684325E0,-9.162708884E-4,1.527118147E-4,-1.527118147E-4
3.914128856E0,3.054236295E-4,-1.068982761E-3,-1.527118147E-4
3.916574273E0,3.054236295E-4,1.374406274E-3,-1.527118147E-4
3.919018752E0,-9.162708884E-4,1.374406274E-3,-1.527118147E-4
3.921462502E0,3.054236295E-4,-1.068982761E-3,-1.374406274E-3
3.923907138E0,3.054236295E-4,1.527118147E-4,1.068982761E-3
3.926352450E0,1.527118147E-3,-1.068982761E-3,2.290677279E-3
3.928796981E0,1.527118147E-3,-1.068982761E-3,-1.374406274E-3
3.931240731E0,-9.162708884E-4,-2.290677279E-3,1.068982761E-3
3.933685263E0,3.054236295E-4,-2.290677279E-3,-1.527118147E-4
3.936130679E0,1.527118147E-3,1.527118147E-4,-1.374406274E-3
3.938575158E0,3.054236295E-4,1.527118147E-4,-1.374406274E-3
3.941018908E0,-9.162708884E-4,1.374406274E-3,-1.374406274E-3
3.943463544E0,-9.162708884E-4,-1.068982761E-3,-1.374406274E-3
3.945908856E0,3.054236295E-4,-1.068982761E-3,1.068982761E-3
3.948353388E0,1.527118147E-3,-1.068982761E-3,1.068982761E-3
3.950797138E0,3.054236295E-4,1.527118147E-4,-1.527118147E-4
3.953241669E0,3.054236295E-4,1.527118147E-4,-1.527118147E-4
3.955687085E0,1.527118147E-3,1.527118147E-4,-1.527118147E-4
3.958131565E0,3.054236295E-4,1.527118147E-4,-1.527118147E-4
3.960575315E0,-9.162708884E-4,2.596100792E-3,1.068982761E-3
3.963019950E0,1.527118147E-3,1.374406274E-3,2.290677279E-3
3.965465315E0,3.054236295E-4,-1.068982761E-3,-1.527118147E-4
3.967909794E0,3.054236295E-4,-2.290677279E-3,-1.527118147E-4
3.970353544E0,3.054236295E-4,1.527118147E-4,-1.374406274E-3
3.972798075E0,3.054236295E-4,-1.068982761E-3,-2.596100792E-3
3.975243492E0,3.054236295E-4,-1.068982761E-3,-1.374406274E-3
3.977688023E0,-9.162708884E-4,-1.068982761E-3,-1.374406274E-3
3.980131773E0,3.054236295E-4,-2.290677279E-3,-2.596100792E-3
3.982576304E0,-9.162708884E-4,-1.068982761E-3,-1.374406274E-3
3.985021721E0,3.054236295E-4,1.374406274E-3,-1.527118147E-4
3.987466200E0,3.054236295E-4,1.527118147E-4,-1.527118147E-4
3.989909950E0,3.054236295E-4,-1.068982761E-3,-1.527118147E-4
3.992354585E0,-9.162708884E-4,-1.068982761E-3,-1.374406274E-3
3.994799898E0,3.054236295E-4,-1.068982761E-3,-1.374406274E-3
3.997244429E0,2.748812549E-3,-1.068982761E-3,-1.527118147E-4
3.999688179E0,3.054236295E-4,-2.290677279E-3,-1.374406274E-3
4.002132710E0,1.527118147E-3,-2.290677279E-3,-1.374406274E-3
4.004578127E0,3.054236295E-4,-2.290677279E-3,-2.596100792E-3
4.007022606E0,1.527118147E-3,-1.068982761E-3,1.068982761E-3
4.009466408E0,3.054236295E-4,1.527118147E-4,-1.527118147E-4
4.011910940E0,1.527118147E-3,1.527118147E-4,-1.374406274E-3
4.014356356E0,3.054236295E-4,-1.068982761E-3,-1.527118147E-4
4.016800835E0,3.054236295E-4,-1.068982761E-3,-1.374406274E-3
4.019244585E0,3.054236295E-4,-2.290677279E-3,-1.374406274E-3
4.021689221E0,1.527118147E-3,-2.290677279E-3,-1.527118147E-4
4.024134533E0,3.054236295E-4,-2.290677279E-3,-1.374406274E-3
4.026579065E0,-9.162708884E-4,1.527118147E-4,-1.374406274E-3
4.029022815E0,-9.162708884E-4,1.527118147E-4,-1.374406274E-3
4.031467346E0,-2.137965523E-3,1.527118147E-4,-1.527118147E-4
4.033912763E0,3.054236295E-4,-1.068982761E-3,-1.374406274E-3
4.036357242E0,3.054236295E-4,-2.290677279E-3,-1.374406274E-3
4.038800992E0,-9.162708884E-4,-1.068982761E-3,-1.374406274E-3
4.041245627E0,-9.162708884E-4,1.527118147E-4,-1.374406274E-3
4.043690940E0,-2.137965523E-3,1.374406274E-3,2.290677279E-3
4.046135471E0,3.054236295E-4,1.527118147E-4,-2.596100792E-3
4.048579221E0,1.527118147E-3,1.527118147E-4,-1.374406274E-3
4.051023752E0,3.054236295E-4,1.527118147E-4,-2.596100792E-3
4.053469169E0,-9.162708884E-4,1.374406274E-3,-2.596100792E-3
4.055913648E0,-9.162708884E-4,-1.068982761E-3,-1.527118147E-4
4.058357398E0,3.054236295E-4,1.527118147E-4,-1.527118147E-4
4.060802033E0,3.054236295E-4,-1.068982761E-3,-1.527118147E-4
4.063247346E0,-9.162708884E-4,-1.068982761E-3,-1.374406274E-3
4.065691877E0,3.054236295E-4,-2.290677279E-3,-1.374406274E-3
4.068135627E0,3.054236295E-4,-3.512371797E-3,-1.527118147E-4
4.070580158E0,-9.162708884E-4,-1.068982761E-3,-2.596100792E-3
4.073025575E0,3.054236295E-4,-1.068982761E-3,-1.527118147E-4
4.075470106E0,3.054236295E-4,1.374406274E-3,-1.527118147E-4
4.077913856E0,1.527118147E-3,-1.068982761E-3,-1.527118147E-4
4.080358388E0,3.054236295E-4,-1.068982761E-3,-1.527118147E-4
4.082803804E0,1.527118147E-3,1.527118147E-4,-1.374406274E-3
4.085248283E0,-9.162708884E-4,1.527118147E-4,-1.527118147E-4
4.087692033E0,3.054236295E-4,-1.068982761E-3,1.068982761E-3
4.090136669E0,3.054236295E-4,-1.068982761E-3,1.068982761E-3
4.092581981E0,1.527118147E-3,-1.068982761E-3,-1.374406274E-3
4.095026513E0,-9.162708884E-4,-1.068982761E-3,-1.374406274E-3
4.097470263E0,-9.162708884E-4,-1.068982761E-3,-1.527118147E-4
4.099914794E0,-9.162708884E-4,1.374406274E-3,-1.374406274E-3
4.102360210E0,-9.162708884E-4,-1.068982761E-3,-1.374406274E-3
4.104804690E0,2.748812549E-3,-4.734066315E-3,-1.527118147E-4
4.107248440E0,3.054236295E-4,1.527118147E-4,-1.374406274E-3
4.109693075E0,-9.162708884E-4,1.527118147E-4,-2.596100792E-3
4.112138440E0,3.054236295E-4,-2.290677279E-3,-1.374406274E-3
4.114582919E0,-9.162708884E-4,-1.068982761E-3,-3.817795310E-3
4.117026669E0,1.527118147E-3,-1.068982761E-3,-1.374406274E-3
4.119471200E0,1.527118147E-3,-2.290677279E-3,-1.527118147E-4
4.121916617E0,3.054236295E-4,-2.290677279E-3,1.068982761E-3
4.124361096E0,3.054236295E-4,1.527118147E-4,-1.527118147E-4
4.126804898E0,1.527118147E-3,-1.068982761E-3,-1.374406274E-3
4.129249429E0,3.054236295E-4,-1.068982761E-3,-1.527118147E-4
4.131694846E0,-9.162708884E-4,-1.068982761E-3,-1.374406274E-3
4.134139325E0,3.054236295E-4,1.527118147E-4,1.068982761E-3
4.136583075E0,3.054236295E-4,-3.512371797E-3,-1.527118147E-4
4.139027710E0,-9.162708884E-4,-1.068982761E-3,-2.596100792E-3
4.141473023E0,-9.162708884E-4,1.527118147E-4,-2.596100792E-3
4.143917554E0,3.054236295E-4,1.527118147E-4,-2.596100792E-3
4.146361304E0,-9.162708884E-4,-1.068982761E-3,-2.596100792E-3
4.148805835E0,1.527118147E-3,-2.290677279E-3,2.290677279E-3
4.151251252E0,3.054236295E-4,-1.068982761E-3,-2.596100792E-3
4.153695731E0,3.054236295E-4,1.527118147E-4,-1.374406274E-3
4.156139481E0,3.054236295E-4,1.527118147E-4,-1.527118147E-4
4.158584117E0,-9.162708884E-4,1.527118147E-4,1.068982761E-3
4.161029429E0,3.054236295E-4,-1.068982761E-3,-1.374406274E-3
4.163473960E0,3.054236295E-4,-1.068982761E-3,-1.374406274E-3
4.165917710E0,3.054236295E-4,-1.068982761E-3,-1.527118147E-4
4.168362242E0,-2.137965523E-3,-1.068982761E-3,1.068982761E-3
4.170807658E0,3.054236295E-4,1.374406274E-3,-1.527118147E-4
4.173252138E0,3.054236295E-4,-1.068982761E-3,-1.374406274E-3
4.175695940E0,1.527118147E-3,1.527118147E-4,-1.527118147E-4
4.178140471E0,1.527118147E-3,1.527118147E-4,-1.527118147E-4
4.180585888E0,1.527118147E-3,1.527118147E-4,-1.527118147E-4
4.183030367E0,3.054236295E-4,1.374406274E-3,-1.527118147E-4
4.185474117E0,1.527118147E-3,-1.068982761E-3,-1.527118147E-4
4.187918752E0,3.054236295E-4,-1.068982761E-3,1.068982761E-3
4.190364065E0,-9.162708884E-4,1.527118147E-4,-1.527118147E-4
4.192808596E0,-9.162708884E-4,1.527118147E-4,-2.596100792E-3
4.195252346E0,-9.162708884E-4,-1.068982761E-3,-2.596100792E-3
4.197696877E0,3.054236295E-4,-1.068982761E-3,1.068982761E-3
4.200142294E0,3.054236295E-4,1.527118147E-4,-1.527118147E-4
4.202586773E0,3.054236295E-4,1.527118147E-4,-2.596100792E-3
4.205030523E0,1.527118147E-3,1.527118147E-4,-1.527118147E-4
4.207475158E0,1.527118147E-3,1.527118147E-4,-1.527118147E-4
4.209920471E0,-9.162708884E-4,1.527118147E-4,-1.527118147E-4
4.212365002E0,3.054236295E-4,-1.068982761E-3,-1.374406274E-3
4.214808752E0,1.527118147E-3,-1.068982761E-3,-1.527118147E-4
4.217253283E0,-9.162708884E-4,-1.068982761E-3,-1.374406274E-3
4.219698700E0,-2.137965523E-3,1.527118147E-4,-1.374406274E-3
4.222143179E0,3.054236295E-4,1.527118147E-4,-1.374406274E-3
4.224586981E0,1.527118147E-3,1.527118147E-4,-1.374406274E-3
4.227031513E0,-9.162708884E-4,1.527118147E-4,-2.596100792E-3
4.229476929E0,-9.162708884E-4,-1.068982761E-3,2.290677279E-3
4.231921408E0,3.054236295E-4,1.527118147E-4,-2.596100792E-3
4.234365158E0,-9.162708884E-4,1.527118147E-4,-1.374406274E-3
4.236809794E0,1.527118147E-3,1.527118147E-4,-1.374406274E-3
4.239255106E0,3.054236295E-4,1.527118147E-4,-1.527118147E-4
4.241699638E0,3.054236295E-4,1.527118147E-4,1.068982761E-3
4.244143388E0,3.054236295E-4,1.527118147E-4,-1.527118147E-4
4.246587919E0,3.054236295E-4,1.374406274E-3,-1.374406274E-3
4.249033335E0,1.527118147E-3,1.527118147E-4,1.068982761E-3
4.251477815E0,-9.162708884E-4,2.596100792E-3,-1.527118147E-4
4.253921565E0,3.054236295E-4,-2.290677279E-3,-1.374406274E-3
4.256366200E0,1.527118147E-3,1.527118147E-4,1.068982761E-3
4.258811513E0,-9.162708884E-4,-1.068982761E-3,1.068982761E-3
4.261256044E0,-9.162708884E-4,2.596100792E-3,-1.374406274E-3
4.263699794E0,3.054236295E-4,1.527118147E-4,1.068982761E-3
4.266144325E0,-9.162708884E-4,-3.512371797E-3,-1.527118147E-4
4.268589742E0,-9.162708884E-4,-2.290677279E-3,-1.374406274E-3
4.271034221E0,-9.162708884E-4,1.527118147E-4,-1.374406274E-3
4.273478023E0,1.527118147E-3,-1.068982761E-3,1.068982761E-3
4.275922554E0,3.054236295E-4,-1.068982761E-3,-1.527118147E-4
4.278367971E0,3.054236295E-4,-2.290677279E-3,-1.374406274E-3
4.280812450E0,-9.162708884E-4,-1.068982761E-3,-1.527118147E-4
4.283256200E0,-9.162708884E-4,1.527118147E-4,1.068982761E-3
4.285700835E0,-9.162708884E-4,-1.068982761E-3,1.068982761E-3
4.288146148E0,-9.162708884E-4,-2.290677279E-3,-1.374406274E-3
4.290590679E0,1.527118147E-3,-1.068982761E-3,-1.374406274E-3
4.293034429E0,-9.162708884E-4,-1.068982761E-3,-1.527118147E-4
4.295478960E0,-9.162708884E-4,-1.068982761E-3,-1.374406274E-3
4.297924377E0,3.054236295E-4,-3.512371797E-3,-1.527118147E-4
4.300368856E0,-9.162708884E-4,-2.290677279E-3,-1.374406274E-3
4.302812606E0,3.054236295E-4,-1.068982761E-3,-2.596100792E-3
4.305257242E0,1.527118147E-3,-1.068982761E-3,-1.527118147E-4
4.307702554E0,3.054236295E-4,-1.068982761E-3,1.068982761E-3
4.310147085E0,3.054236295E-4,1.527118147E-4,-1.374406274E-3
4.312590835E0,1.527118147E-3,-2.290677279E-3,-1.527118147E-4
4.315035367E0,3.054236295E-4,-1.068982761E-3,2.290677279E-3
4.317480783E0,3.054236295E-4,1.374406274E-3,-1.374406274E-3
4.319925263E0,1.527118147E-3,1.527118147E-4,-1.527118147E-4
4.322369065E0,3.054236295E-4,1.374406274E-3,1.068982761E-3
4.324813596E0,3.054236295E-4,1.527118147E-4,1.068982761E-3
4.327259013E0,3.054236295E-4,1.527118147E-4,-2.596100792E-3
4.329703492E0,3.054236295E-4,-3.512371797E-3,-2.596100792E-3
4.332147242E0,-9.162708884E-4,-2.290677279E-3,-2.596100792E-3
4.334591877E0,1.527118147E-3,1.527118147E-4,-1.527118147E-4
4.337037190E0,3.054236295E-4,1.527118147E-4,-1.374406274E-3
4.339481721E0,3.054236295E-4,-1.068982761E-3,-1.374406274E-3
4.341925471E0,3.054236295E-4,-1.068982761E-3,-1.374406274E-3
4.344370002E0,-9.162708884E-4,1.527118147E-4,-1.527118147E-4
4.346815419E0,-9.162708884E-4,1.374406274E-3,-1.374406274E-3
4.349259898E0,-9.162708884E-4,1.527118147E-4,-2.596100792E-3
4.351703648E0,3.054236295E-4,-1.068982761E-3,-1.527118147E-4
4.354148283E0,3.054236295E-4,-1.068982761E-3,-1.527118147E-4
4.356593596E0,3.054236295E-4,1.527118147E-4,-1.527118147E-4
4.359038127E0,-2.137965523E-3,-1.068982761E-3,-2.596100792E-3
4.361481877E0,-9.162708884E-4,1.527118147E-4,-2.596100792E-3
4.363926408E0,-9.162708884E-4,1.527118147E-4,-1.374406274E-3
4.366371825E0,3.054236295E-4,-1.068982761E-3,1.068982761E-3
4.368816304E0,-9.162708884E-4,-2.290677279E-3,-1.527118147E-4
4.371260106E0,-9.162708884E-4,-1.068982761E-3,-1.527118147E-4
4.373704638E0,3.054236295E-4,-2.290677279E-3,-1.527118147E-4
4.376150054E0,-9.162708884E-4,-2.290677279E-3,-1.527118147E-4
4.378594533E0,3.054236295E-4,-1.068982761E-3,-1.374406274E-3
4.381038283E0,3.054236295E-4,-1.068982761E-3,-1.527118147E-4
4.383482919E0,1.527118147E-3,-1.068982761E-3,-1.527118147E-4
4.385928231E0,-9.162708884E-4,1.527118147E-4,-1.374406274E-3
4.388372763E0,3.054236295E-4,-1.068982761E-3,-1.527118147E-4
4.390816513E0,-9.162708884E-4,1.527118147E-4,-1.374406274E-3
4.393261044E0,3.054236295E-4,-2.290677279E-3,-1.527118147E-4
4.395706460E0,-2.137965523E-3,-1.068982761E-3,-1.527118147E-4
4.398150940E0,-2.137965523E-3,1.527118147E-4,-1.374406274E-3
4.400594690E0,-9.162708884E-4,1.527118147E-4,2.290677279E-3
4.403039325E0,-9.162708884E-4,1.527118147E-4,-1.374406274E-3
4.405484638E0,-9.162708884E-4,-1.068982761E-3,-1.374406274E-3
4.407929169E0,1.527118147E-3,-1.068982761E-3,-1.527118147E-4
4.410372919E0,3.054236295E-4,1.527118147E-4,-1.527118147E-4
4.412817450E0,1.527118147E-3,-2.290677279E-3,-1.374406274E-3
4.415262867E0,1.527118147E-3,1.374406274E-3,-1.527118147E-4
4.417707398E0,3.054236295E-4,-2.290677279E-3,1.068982761E-3
4.420151148E0,1.527118147E-3,-1.068982761E-3,-1.527118147E-4
4.422595679E0,1.527118147E-3,1.527118147E-4,-1.527118147E-4
4.425041096E0,3.054236295E-4,-1.068982761E-3,-1.374406274E-3
4.427485575E0,3.054236295E-4,-2.290677279E-3,-1.527118147E-4
4.429929325E0,3.054236295E-4,-2.290677279E-3,2.290677279E-3
4.432373960E0,-9.162708884E-4,-1.068982761E-3,-1.374406274E-3
4.434819273E0,-9.162708884E-4,1.527118147E-4,-2.596100792E-3
4.437263804E0,3.054236295E-4,1.527118147E-4,-1.374406274E-3
4.439707554E0,-9.162708884E-4,1.527118147E-4,-1.374406274E-3
4.442152085E0,3.054236295E-4,1.527118147E-4,2.290677279E-3
4.444597502E0,3.054236295E-4,1.527118147E-4,-1.374406274E-3
4.447041981E0,2.748812549E-3,1.527118147E-4,-2.596100792E-3
4.449485783E0,3.054236295E-4,1.374406274E-3,-1.527118147E-4
4.451930315E0,1.527118147E-3,-2.290677279E-3,-1.527118147E-4
4.454375731E0,-9.162708884E-4,-2.290677279E-3,-2.596100792E-3
4.456820210E0,3.054236295E-4,-2.290677279E-3,-1.374406274E-3
4.459263960E0,-9.162708884E-4,1.527118147E-4,1.068982761E-3
4.461708492E0,-2.137965523E-3,1.527118147E-4,1.068982761E-3
4.464153908E0,3.054236295E-4,-1.068982761E-3,-1.527118147E-4
4.466598388E0,3.054236295E-4,1.527118147E-4,-1.374406274E-3
4.469042190E0,-9.162708884E-4,-1.068982761E-3,-2.596100792E-3
4.471486721E0,3.054236295E-4,-1.068982761E-3,-1.527118147E-4
4.473932138E0,-9.162708884E-4,-1.068982761E-3,-2.596100792E-3
4.476376617E0,-9.162708884E-4,1.527118147E-4,-1.374406274E-3
4.478820367E0,3.054236295E-4,1.374406274E-3,1.068982761E-3
4.481265002E0,3.054236295E-4,-1.068982761E-3,1.068982761E-3
4.483710315E0,3.054236295E-4,-2.290677279E-3,-1.374406274E-3
4.486154846E0,3.054236295E-4,1.374406274E-3,-2.596100792E-3
4.488598596E0,3.054236295E-4,-1.068982761E-3,-1.374406274E-3
4.491043127E0,1.527118147E-3,-2.290677279E-3,2.290677279E-3
4.493488544E0,3.054236295E-4,-1.068982761E-3,-1.527118147E-4
4.495933023E0,3.054236295E-4,1.527118147E-4,-1.374406274E-3
4.498376825E0,3.054236295E-4,1.527118147E-4,-1.374406274E-3
4.500821356E0,2.748812549E-3,1.374406274E-3,1.068982761E-3
4.503266773E0,3.054236295E-4,1.374406274E-3,1.068982761E-3
4.505711252E0,1.527118147E-3,-1.068982761E-3,1.068982761E-3
4.508155002E0,-9.162708884E-4,-1.068982761E-3,1.068982761E-3
4.510599638E0,-9.162708884E-4,1.527118147E-4,2.290677279E-3
4.513044950E0,-9.162708884E-4,-1.068982761E-3,-1.527118147E-4
4.515489481E0,-9.162708884E-4,1.527118147E-4,-3.817795310E-3
4.517933231E0,-9.162708884E-4,-1.068982761E-3,-1.374406274E-3
4.520377763E0,-9.162708884E-4,1.527118147E-4,-1.527118147E-4
4.522823179E0,3.054236295E-4,-2.290677279E-3,1.068982761E-3
4.525267658E0,-2.137965523E-3,-1.068982761E-3,-2.596100792E-3
4.527711408E0,3.054236295E-4,1.374406274E-3,-1.527118147E-4
4.530156044E0,3.054236295E-4,-1.068982761E-3,-1.527118147E-4
4.532601356E0,1.527118147E-3,1.527118147E-4,1.068982761E-3
4.535045888E0,1.527118147E-3,-2.290677279E-3,-1.527118147E-4
4.537489638E0,-9.162708884E-4,-1.068982761E-3,1.068982761E-3
4.539934169E0,-9.162708884E-4,-2.290677279E-3,1.068982761E-3
4.542379585E0,1.527118147E-3,2.596100792E-3,2.290677279E-3
4.544824065E0,3.054236295E-4,-1.068982761E-3,-1.527118147E-4
4.547267867E0,-9.162708884E-4,-1.068982761E-3,-2.596100792E-3
4.549712398E0,-2.137965523E-3,-1.068982761E-3,-1.527118147E-4
4.552157815E0,3.054236295E-4,1.527118147E-4,1.068982761E-3
4.554602294E0,3.054236295E-4,-1.068982761E-3,-2.596100792E-3
4.557046044E0,-9.162708884E-4,1.527118147E-4,-1.527118147E-4
4.559490679E0,3.054236295E-4,-2.290677279E-3,-1.527118147E-4
4.561935992E0,3.054236295E-4,-3.512371797E-3,-1.527118147E-4
4.564380523E0,3.054236295E-4,1.527118147E-4,-1.374406274E-3
4.566824273E0,1.527118147E-3,1.527118147E-4,-1.527118147E-4
4.569268804E0,1.527118147E-3,1.527118147E-4,-1.527118147E-4
4.571714221E0,1.527118147E-3,1.527118147E-4,1.068982761E-3
4.574158700E0,3.054236295E-4,-1.068982761E-3,-2.596100792E-3
4.576602450E0,-9.162708884E-4,1.527118147E-4,-2.596100792E-3
4.579047085E0,3.054236295E-4,1.527118147E-4,-2.596100792E-3
4.581492450E0,3.054236295E-4,-1.068982761E-3,-2.596100792E-3
4.583936929E0,-9.162708884E-4,-1.068982761E-3,-1.527118147E-4
4.586380679E0,1.527118147E-3,1.374406274E-3,-1.527118147E-4
4.588825315E0,-3.359660041E-3,1.527118147E-4,-1.527118147E-4
4.591270627E0,-2.137965523E-3,1.374406274E-3,-2.596100792E-3
4.593715158E0,3.054236295E-4,-1.068982761E-3,-2.596100792E-3
4.596158908E0,3.054236295E-4,1.527118147E-4,-1.374406274E-3
4.598603440E0,-9.162708884E-4,-1.068982761E-3,-1.374406274E-3
4.601048856E0,3.054236295E-4,-1.068982761E-3,-1.527118147E-4
4.603493335E0,3.054236295E-4,-2.290677279E-3,-3.817795310E-3
4.605937085E0,-9.162708884E-4,-2.290677279E-3,-1.374406274E-3
4.608381721E0,1.527118147E-3,-1.068982761E-3,-1.527118147E-4
4.610827033E0,3.054236295E-4,-1.068982761E-3,1.068982761E-3
4.613271565E0,3.054236295E-4,1.527118147E-4,-2.596100792E-3
4.615715315E0,-9.162708884E-4,-1.068982761E-3,-1.527118147E-4
4.618159846E0,3.054236295E-4,-2.290677279E-3,-1.527118147E-4
4.620605263E0,3.054236295E-4,-2.290677279E-3,2.290677279E-3
4.623049742E0,-9.162708884E-4,1.527118147E-4,-1.527118147E-4
4.625493492E0,1.527118147E-3,-1.068982761E-3,-2.596100792E-3
4.627938127E0,3.054236295E-4,1.527118147E-4,-1.374406274E-3
4.630383492E0,-2.137965523E-3,-1.068982761E-3,-1.374406274E-3
4.632827971E0,3.054236295E-4,1.527118147E-4,-1.527118147E-4
4.635271721E0,-9.162708884E-4,1.527118147E-4,-2.596100792E-3
4.637716356E0,-9.162708884E-4,2.596100792E-3,-1.527118147E-4
4.640161669E0,-9.162708884E-4,1.527118147E-4,1.068982761E-3
4.642606200E0,1.527118147E-3,-1.068982761E-3,-1.374406274E-3
4.645049950E0,-9.162708884E-4,-2.290677279E-3,-1.374406274E-3
4.647494481E0,3.054236295E-4,-1.068982761E-3,1.068982761E-3
4.649939898E0,1.527118147E-3,1.527118147E-4,2.290677279E-3
4.652384377E0,1.527118147E-3,1.527118147E-4,1.068982761E-3
4.654828127E0,3.054236295E-4,1.374406274E-3,-1.374406274E-3
4.657272763E0,1.527118147E-3,-1.068982761E-3,-1.527118147E-4
4.659718075E0,3.054236295E-4,1.527118147E-4,2.290677279E-3
4.662162606E0,-2.137965523E-3,1.527118147E-4,-3.817795310E-3
4.664606356E0,-9.162708884E-4,-1.068982761E-3,-1.374406274E-3
4.667050888E0,-9.162708884E-4,-1.068982761E-3,-1.374406274E-3
4.669496304E0,3.054236295E-4,-1.068982761E-3,-1.527118147E-4
4.671940783E0,-2.137965523E-3,1.374406274E-3,-1.374406274E-3
4.674384585E0,-9.162708884E-4,1.527118147E-4,-1.527118147E-4
4.676829117E0,3.054236295E-4,-1.068982761E-3,-1.374406274E-3
4.679274533E0,3.054236295E-4,-3.512371797E-3,-1.374406274E-3
4.681719013E0,-9.162708884E-4,-1.068982761E-3,-1.374406274E-3
4.684162763E0,-3.359660041E-3,1.374406274E-3,-3.817795310E-3
4.686607398E0,-2.137965523E-3,2.596100792E-3,-1.374406274E-3
4.689052710E0,1.527118147E-3,-1.068982761E-3,-1.374406274E-3
4.691497242E0,-9.162708884E-4,1.527118147E-4,-1.374406274E-3
4.693940992E0,-9.162708884E-4,1.527118147E-4,-2.596100792E-3
4.696385523E0,3.054236295E-4,1.527118147E-4,-1.374406274E-3
4.698830940E0,-9.162708884E-4,-1.068982761E-3,-1.374406274E-3
4.701275419E0,3.054236295E-4,1.527118147E-4,-1.374406274E-3
4.703719221E0,3.054236295E-4,1.527118147E-4,-1.527118147E-4
4.706163752E0,3.054236295E-4,-1.068982761E-3,-1.527118147E-4
4.708609169E0,3.054236295E-4,1.527118147E-4,-1.374406274E-3
4.711053648E0,1.527118147E-3,-1.068982761E-3,-1.527118147E-4
4.713497398E0,3.054236295E-4,-1.068982761E-3,2.290677279E-3
4.715942033E0,3.054236295E-4,-2.290677279E-3,1.068982761E-3
4.718387346E0,-9.162708884E-4,1.527118147E-4,-1.374406274E-3
4.720831877E0,3.054236295E-4,1.527118147E-4,-1.527118147E-4
4.723275627E0,3.054236295E-4,1.374406274E-3,-1.374406274E-3
4.725720158E0,3.054236295E-4,-3.512371797E-3,-1.374406274E-3
4.728165575E0,-9.162708884E-4,-2.290677279E-3,-1.527118147E-4
4.730610054E0,3.054236295E-4,-1.068982761E-3,-3.817795310E-3
4.733053804E0,3.054236295E-4,-1.068982761E-3,-1.527118147E-4
4.735498440E0,-9.162708884E-4,1.527118147E-4,1.068982761E-3
4.737943752E0,3.054236295E-4,1.527118147E-4,-1.527118147E-4
4.740388283E0,3.054236295E-4,-2.290677279E-3,-1.374406274E-3
4.742832033E0,3.054236295E-4,-1.068982761E-3,1.068982761E-3
4.745276565E0,3.054236295E-4,-2.290677279E-3,-1.527118147E-4
4.747721981E0,-9.162708884E-4,1.527118147E-4,-1.527118147E-4
4.750166460E0,-9.162708884E-4,1.527118147E-4,-1.374406274E-3
4.752610263E0,-9.162708884E-4,1.527118147E-4,-1.527118147E-4
4.755054794E0,1.527118147E-3,-1.068982761E-3,-1.374406274E-3
4.757500210E0,1.527118147E-3,-1.068982761E-3,-1.374406274E-3
4.759944690E0,1.527118147E-3,-1.068982761E-3,1.068982761E-3
4.762388440E0,3.054236295E-4,1.527118147E-4,1.068982761E-3
4.764833075E0,3.054236295E-4,1.374406274E-3,-1.527118147E-4
4.767278388E0,-9.162708884E-4,-2.290677279E-3,-1.527118147E-4
4.769722919E0,3.054236295E-4,1.527118147E-4,-1.374406274E-3
4.772166669E0,3.054236295E-4,2.596100792E-3,-1.527118147E-4
4.774611200E0,-9.162708884E-4,-1.068982761E-3,1.068982761E-3
4.777056617E0,3.054236295E-4,1.527118147E-4,2.290677279E-3
4.779501096E0,-3.359660041E-3,1.527118147E-4,-2.596100792E-3
4.781944898E0,3.054236295E-4,6.261184346E-3,-1.374406274E-3
4.784389429E0,-2.137965523E-3,-1.068982761E-3,-1.374406274E-3
4.786834846E0,-3.359660041E-3,-3.512371797E-3,1.068982761E-3
4.789279325E0,-9.162708884E-4,1.527118147E-4,-1.527118147E-4
4.791723075E0,3.054236295E-4,-1.068982761E-3,-1.374406274E-3
4.794167710E0,3.054236295E-4,1.527118147E-4,-1.527118147E-4
4.796613023E0,3.054236295E-4,-1.068982761E-3,-1.527118147E-4
4.799057554E0,1.527118147E-3,-2.290677279E-3,-1.527118147E-4
4.801501304E0,1.527118147E-3,-2.290677279E-3,-1.374406274E-3
4.803945835E0,2.748812549E-3,1.527118147E-4,-1.374406274E-3
4.806391252E0,1.527118147E-3,1.527118147E-4,-1.374406274E-3
4.808835731E0,3.054236295E-4,1.527118147E-4,2.290677279E-3
4.811279481E0,2.748812549E-3,1.527118147E-4,-1.374406274E-3
4.813724117E0,1.527118147E-3,1.527118147E-4,-1.527118147E-4
4.816169429E0,3.054236295E-4,-1.068982761E-3,1.068982761E-3
4.818613960E0,3.054236295E-4,-3.512371797E-3,-1.374406274E-3
4.821058596E0,3.054236295E-4,1.527118147E-4,-1.374406274E-3
4.823502242E0,3.054236295E-4,1.527118147E-4,-1.527118147E-4
4.825947658E0,1.527118147E-3,-1.068982761E-3,-1.374406274E-3
4.828392138E0,3.054236295E-4,-2.290677279E-3,1.068982761E-3
4.830835940E0,-9.162708884E-4,-1.068982761E-3,-2.596100792E-3
4.833280471E0,-9.162708884E-4,-2.290677279E-3,-2.596100792E-3
4.835725888E0,-9.162708884E-4,1.374406274E-3,-1.374406274E-3
4.838170367E0,3.054236295E-4,-1.068982761E-3,-1.374406274E-3
4.840614117E0,1.527118147E-3,1.527118147E-4,-1.374406274E-3
4.843058752E0,1.527118147E-3,-1.068982761E-3,-1.374406274E-3
4.845504065E0,1.527118147E-3,1.527118147E-4,1.068982761E-3
4.847948596E0,3.054236295E-4,-1.068982761E-3,1.068982761E-3
4.850392346E0,3.054236295E-4,-1.068982761E-3,-1.527118147E-4
4.852836877E0,5.192201585E-3,-3.512371797E-3,1.068982761E-3
4.855282294E0,1.527118147E-3,-5.955760833E-3,-1.527118147E-4
4.857726773E0,2.748812549E-3,-2.290677279E-3,1.068982761E-3
4.860170523E0,3.054236295E-4,1.527118147E-4,1.068982761E-3
4.862615158E0,3.054236295E-4,-1.068982761E-3,-1.527118147E-4
4.865060523E0,1.527118147E-3,-1.068982761E-3,-1.527118147E-4
