"Time (s)","Acceleration x (m/s^2)","Acceleration y (m/s^2)","Acceleration z (m/s^2)","Absolute acceleration (m/s^2)"
2.003464000E-2,-1.118644550E-1,-7.178467698E-3,9.837791443E0,9.838430040E0
2.245854700E-2,-1.238285750E-1,-4.785645287E-3,9.830613136E0,9.831394156E0
2.488302600E-2,-1.166501045E-1,1.435693540E-2,9.835398674E0,9.836100876E0
2.730755700E-2,-1.118644550E-1,-2.392822644E-3,9.825826645E0,9.826463689E0
2.973182800E-2,-1.262213886E-1,9.571290575E-3,9.861719131E0,9.862531504E0
3.215604700E-2,-1.262213886E-1,7.178467698E-3,9.852148056E0,9.852959184E0
3.458042200E-2,-9.272187948E-2,2.153540403E-2,9.861719131E0,9.862178530E0
3.700432800E-2,-8.075776696E-2,2.392822644E-3,9.849755287E0,9.850086637E0
3.942901500E-2,-1.070788130E-1,1.435693540E-2,9.840184212E0,9.840777272E0
4.185427600E-2,-9.511470050E-2,2.392822644E-3,9.849755287E0,9.850214807E0
4.427844200E-2,-1.142572835E-1,-0.000000000E0,9.859326363E0,9.859988390E0
4.670297400E-2,-1.214357466E-1,1.914258115E-2,9.868897438E0,9.869663101E0
4.912787000E-2,-1.286142170E-1,4.785645287E-3,9.852148056E0,9.852988675E0
5.155271300E-2,-1.022931710E-1,-4.785645287E-3,9.837791443E0,9.838324414E0
5.397693200E-2,-1.214357466E-1,-2.632104978E-2,9.825826645E0,9.826612269E0
5.640115100E-2,-9.032905847E-2,2.392822644E-3,9.830613136E0,9.831028415E0
5.882568200E-2,-1.046859920E-1,4.785645287E-3,9.840184212E0,9.840742217E0
6.125000500E-2,-1.166501045E-1,4.785645287E-3,9.849755287E0,9.850447166E0
6.367370300E-2,-1.142572835E-1,9.571290575E-3,9.856933594E0,9.857600429E0
6.609750500E-2,-1.238285750E-1,1.196411345E-2,9.856933594E0,9.857718627E0
6.852109900E-2,-1.070788130E-1,2.153540403E-2,9.854540825E0,9.855146093E0
7.094557800E-2,-1.046859920E-1,-4.785645287E-3,9.830613136E0,9.831171685E0
7.337016100E-2,-1.070788130E-1,3.110669367E-2,9.830613136E0,9.831245503E0
7.579443200E-2,-1.190429255E-1,2.632104978E-2,9.847362518E0,9.848117210E0
7.821813000E-2,-8.554340899E-2,7.178467698E-3,9.840184212E0,9.840558649E0
8.064250500E-2,-9.750752151E-2,7.178467698E-3,9.823433876E0,9.823920417E0
8.306703600E-2,-1.094716340E-1,4.785645287E-3,9.847362518E0,9.847972152E0
8.549182800E-2,-1.046859920E-1,-7.178467698E-3,9.835398674E0,9.835958406E0
8.791662000E-2,-9.032905847E-2,-0.000000000E0,9.833005905E0,9.833420792E0
9.034021300E-2,-1.070788130E-1,1.435693540E-2,9.823433876E0,9.824027947E0
9.276464000E-2,-7.836493850E-2,1.435693540E-2,9.854540825E0,9.854862863E0
9.518912000E-2,-9.990034252E-2,3.349951655E-2,9.849755287E0,9.850318853E0
9.761375500E-2,-1.094716340E-1,1.914258115E-2,9.854540825E0,9.855167444E0
1.000383900E-1,-1.166501045E-1,7.178467698E-3,9.840184212E0,9.840878218E0
1.024621400E-1,-1.070788130E-1,-9.571290575E-3,9.842576981E0,9.843164080E0
1.048868800E-1,-1.094716340E-1,2.392822644E-3,9.864111900E0,9.864719628E0
1.073102650E-1,-1.166501045E-1,-4.785645287E-3,9.849755287E0,9.850447166E0
1.097339630E-1,-9.511470050E-2,-7.178467698E-3,9.856933594E0,9.857395103E0
1.121570880E-1,-1.094716340E-1,-9.571290575E-3,9.849755287E0,9.850368260E0
1.145808900E-1,-8.554340899E-2,-4.785645287E-3,9.837791443E0,9.838164516E0
1.170052130E-1,-9.750752151E-2,4.785645287E-3,9.852148056E0,9.852631726E0
1.194301090E-1,-1.166501045E-1,7.178467698E-3,9.837791443E0,9.838485618E0
1.218544840E-1,-1.046859920E-1,7.178467698E-3,9.842576981E0,9.843136304E0
1.242787550E-1,-1.118644550E-1,-1.674975827E-2,9.849755287E0,9.850404734E0
1.267031820E-1,-1.238285750E-1,4.785645287E-3,9.835398674E0,9.836179314E0
1.291269840E-1,-1.166501045E-1,-9.571290575E-3,9.854540825E0,9.855235853E0
1.315509420E-1,-1.166501045E-1,-1.674975827E-2,9.871291161E0,9.871994580E0
1.339753170E-1,-1.094716340E-1,-1.435693540E-2,9.847362518E0,9.847981454E0
1.363998490E-1,-1.094716340E-1,4.785645287E-3,9.842576981E0,9.843186911E0
1.388246920E-1,-1.118644550E-1,2.871387079E-2,9.828220367E0,9.828898907E0
1.412491200E-1,-9.032905847E-2,4.785645287E-3,9.833005905E0,9.833421956E0
1.436732340E-1,-1.070788130E-1,7.178467698E-3,9.835398674E0,9.835984164E0
1.460970880E-1,-1.118644550E-1,4.785645287E-3,9.842576981E0,9.843213813E0
1.485210470E-1,-8.793623000E-2,1.435693540E-2,9.852148056E0,9.852550950E0
1.509449010E-1,-1.022931710E-1,-1.435693540E-2,9.852148056E0,9.852689548E0
1.533688590E-1,-1.046859920E-1,-1.196411345E-2,9.825826645E0,9.826391584E0
1.557931820E-1,-1.070788130E-1,2.392822690E-2,9.844969749E0,9.845581131E0
1.582176610E-1,-1.046859920E-1,1.196411345E-2,9.837791443E0,9.838355694E0
1.606410990E-1,-1.070788130E-1,1.196411345E-2,9.835398674E0,9.835988821E0
1.630655780E-1,-9.990034252E-2,1.435693540E-2,9.861719131E0,9.862235569E0
1.654892240E-1,-1.094716340E-1,2.392822644E-3,9.854540825E0,9.855149143E0
1.679131820E-1,-9.750752151E-2,2.392822644E-3,9.830613136E0,9.831096993E0
1.703372450E-1,-1.022931710E-1,-0.000000000E0,9.840184212E0,9.840715889E0
1.727615670E-1,-1.022931710E-1,-0.000000000E0,9.837791443E0,9.838323250E0
1.751856300E-1,-1.046859920E-1,-9.571290575E-3,9.864111900E0,9.864672035E0
1.776098490E-1,-1.046859920E-1,-0.000000000E0,9.842576981E0,9.843133687E0
1.800336510E-1,-7.357929647E-2,2.153540403E-2,9.859326363E0,9.859624436E0
1.824568800E-1,-9.750752151E-2,4.785645287E-3,9.854540825E0,9.855024378E0
1.848805260E-1,-1.094716340E-1,-9.571290575E-3,9.830613136E0,9.831227303E0
1.873044320E-1,-9.990034252E-2,-0.000000000E0,9.847362518E0,9.847869244E0
1.897288590E-1,-9.750752151E-2,-0.000000000E0,9.847362518E0,9.847845261E0
1.921529220E-1,-1.166501045E-1,2.392822644E-3,9.818648338E0,9.819341534E0
1.945767240E-1,-1.214357466E-1,1.435693540E-2,9.856933594E0,9.857692054E0
1.970010990E-1,-1.046859920E-1,1.674975827E-2,9.830613136E0,9.831184789E0
1.994251610E-1,-9.990034252E-2,3.828516230E-2,9.849755287E0,9.850336291E0
2.018495360E-1,-9.750752151E-2,-9.571290575E-3,9.864111900E0,9.864598467E0
2.042737550E-1,-9.511470050E-2,9.571290575E-3,9.856933594E0,9.857397136E0
2.066982340E-1,-8.315058798E-2,-0.000000000E0,9.847362518E0,9.847713572E0
2.091231820E-1,-1.046859920E-1,-1.674975827E-2,9.854540825E0,9.855111089E0
2.115477650E-1,-1.214357466E-1,-1.196411345E-2,9.849755287E0,9.850511103E0
2.139725050E-1,-9.511470050E-2,4.785645287E-3,9.847362518E0,9.847823022E0
2.163968280E-1,-1.046859920E-1,-0.000000000E0,9.842576981E0,9.843133687E0
2.188212550E-1,-1.238285750E-1,-4.785645287E-3,9.828220367E0,9.829001577E0
2.212454740E-1,-1.142572835E-1,2.392822644E-3,9.837791443E0,9.838455210E0
2.236701090E-1,-1.142572835E-1,2.632104978E-2,9.844969749E0,9.845667925E0
2.260947450E-1,-9.990034252E-2,-2.392822690E-2,9.847362518E0,9.847898314E0
2.285190670E-1,-1.142572835E-1,-4.785645287E-3,9.842576981E0,9.843241298E0
2.309432860E-1,-7.597211748E-2,-1.435693540E-2,9.847362518E0,9.847666041E0
2.333679220E-1,-1.094716340E-1,-2.392822644E-3,9.844969749E0,9.845578659E0
2.357927650E-1,-1.142572835E-1,-9.571290575E-3,9.840184212E0,9.840852181E0
2.382178170E-1,-1.166501045E-1,9.571290575E-3,9.856933594E0,9.857628454E0
2.406422970E-1,-1.166501045E-1,2.153540403E-2,9.842576981E0,9.843291758E0
2.430674530E-1,-1.214357466E-1,4.785645287E-3,9.842576981E0,9.843327240E0
2.454923490E-1,-1.262213886E-1,7.178467698E-3,9.835398674E0,9.836211183E0
2.479163070E-1,-1.142572835E-1,-1.674975827E-2,9.837791443E0,9.838469177E0
2.503408380E-1,-9.511470050E-2,2.392822644E-3,9.852148056E0,9.852607465E0
2.527649530E-1,-9.750752151E-2,2.392822644E-3,9.849755287E0,9.850238203E0
2.551892760E-1,-9.990034252E-2,2.153540403E-2,9.849755287E0,9.850285431E0
2.576141200E-1,-9.990034252E-2,-1.674975827E-2,9.833005905E0,9.833527636E0
2.600382860E-1,-1.046859920E-1,2.392822644E-3,9.837791443E0,9.838348711E0
2.624625050E-1,-1.166501045E-1,-7.178467698E-3,9.849755287E0,9.850448619E0
2.648863070E-1,-1.166501045E-1,1.435693540E-2,9.840184212E0,9.840886072E0
2.673108380E-1,-1.166501045E-1,-0.000000000E0,9.852148056E0,9.852838604E0
2.697346400E-1,-1.094716340E-1,-0.000000000E0,9.840184212E0,9.840793127E0
2.721591720E-1,-1.070788130E-1,2.392822690E-2,9.842576981E0,9.843188510E0
2.745833380E-1,-1.142572835E-1,1.914258115E-2,9.828220367E0,9.828903131E0
2.770082860E-1,-1.022931710E-1,2.871387079E-2,9.849755287E0,9.850328299E0
2.794329220E-1,-1.022931710E-1,1.196411345E-2,9.837791443E0,9.838330524E0
2.818580260E-1,-8.793623000E-2,9.571290575E-3,9.842576981E0,9.842974449E0
2.842830260E-1,-9.990034252E-2,-7.178467698E-3,9.859326363E0,9.859835087E0
2.867075050E-1,-1.166501045E-1,-4.785645287E-3,9.837791443E0,9.838484163E0
2.891321400E-1,-1.046859920E-1,-2.392822644E-3,9.840184212E0,9.840741344E0
2.915562550E-1,-9.990034252E-2,7.178467698E-3,9.866504669E0,9.867013023E0
2.939803700E-1,-1.142572835E-1,7.178467698E-3,9.852148056E0,9.852813181E0
2.964050570E-1,-1.046859920E-1,-1.435693540E-2,9.844969749E0,9.845536788E0
2.988292760E-1,-1.214357466E-1,2.392822644E-3,9.847362518E0,9.848111541E0
3.012542760E-1,-1.214357466E-1,2.392822644E-3,9.816255569E0,9.817006966E0
3.036789110E-1,-9.750752151E-2,4.785645287E-3,9.844969749E0,9.845453773E0
3.061033380E-1,-1.286142170E-1,1.196411345E-2,9.842576981E0,9.843424525E0
3.085272970E-1,-1.046859920E-1,9.571290575E-3,9.847362518E0,9.847923605E0
3.109521400E-1,-9.032905847E-2,-2.392822644E-3,9.854540825E0,9.854955095E0
3.133764110E-1,-1.238285750E-1,-1.674975827E-2,9.844969749E0,9.845762715E0
3.158004740E-1,-7.597211748E-2,7.178467698E-3,9.830613136E0,9.830909313E0
3.182253170E-1,-1.166501045E-1,-1.435693540E-2,9.830613136E0,9.831315680E0
3.206496400E-1,-9.511470050E-2,-4.785645287E-3,9.861719131E0,9.862178965E0
3.230742240E-1,-9.750752151E-2,-1.196411345E-2,9.854540825E0,9.855030478E0
3.254989110E-1,-9.750752151E-2,2.392822644E-3,9.840184212E0,9.840667597E0
3.279228700E-1,-1.166501045E-1,-7.178467698E-3,9.847362518E0,9.848056019E0
3.303469840E-1,-1.142572835E-1,-2.392822644E-3,9.852148056E0,9.852810856E0
3.327715150E-1,-9.990034252E-2,2.392822690E-2,9.837791443E0,9.838327760E0
3.351957860E-1,-9.272187948E-2,1.196411345E-2,9.844969749E0,9.845413646E0
3.376199010E-1,-1.166501045E-1,7.178467698E-3,9.828220367E0,9.828915218E0
3.400441200E-1,-1.310070455E-1,9.571290575E-3,9.847362518E0,9.848238575E0
3.424690150E-1,-1.046859920E-1,7.178467698E-3,9.837791443E0,9.838351039E0
3.448936510E-1,-9.272187948E-2,-0.000000000E0,9.840184212E0,9.840621051E0
3.473185990E-1,-9.750752151E-2,-1.196411345E-2,9.837791443E0,9.838281930E0
3.497425050E-1,-9.511470050E-2,-2.392822644E-3,9.852148056E0,9.852607465E0
3.521666200E-1,-8.793623000E-2,-4.785645287E-3,9.842576981E0,9.842970959E0
3.545908380E-1,-1.166501045E-1,-2.392822644E-3,9.847362518E0,9.848053693E0
3.570155780E-1,-1.046859920E-1,-4.785645287E-3,9.823433876E0,9.823992833E0
3.594398490E-1,-9.272187948E-2,2.632104978E-2,9.856933594E0,9.857404832E0
3.618643280E-1,-1.286142170E-1,9.571290575E-3,9.871291161E0,9.872133630E0
3.642893280E-1,-1.070788130E-1,4.785645287E-3,9.854540825E0,9.855123725E0
3.667138070E-1,-8.793623000E-2,-1.674975827E-2,9.864111900E0,9.864518078E0
3.691380780E-1,-1.022931710E-1,2.153540403E-2,9.852148056E0,9.852702623E0
3.715617760E-1,-1.142572835E-1,9.571290575E-3,9.842576981E0,9.843244788E0
3.739859950E-1,-9.750752151E-2,-0.000000000E0,9.852148056E0,9.852630564E0
3.764105780E-1,-1.118644550E-1,4.785645287E-3,9.830613136E0,9.831250744E0
3.788346400E-1,-1.190429255E-1,4.785645287E-3,9.840184212E0,9.840905418E0
3.812590150E-1,-1.022931710E-1,1.674975827E-2,9.837791443E0,9.838337508E0
3.836837030E-1,-1.070788130E-1,-0.000000000E0,9.861719131E0,9.862300447E0
3.861073490E-1,-1.094716340E-1,-4.785645287E-3,9.859326363E0,9.859935257E0
3.885307340E-1,-1.022931710E-1,9.571290575E-3,9.844969749E0,9.845505821E0
3.909547450E-1,-1.070788130E-1,4.785645287E-3,9.852148056E0,9.852731098E0
3.933789110E-1,-1.022931710E-1,-7.178467698E-3,9.833005905E0,9.833540591E0
3.958029220E-1,-9.272187948E-2,9.571290575E-3,9.840184212E0,9.840625706E0
3.982265670E-1,-1.142572835E-1,2.871387079E-2,9.833005905E0,9.833711626E0
4.006504740E-1,-9.750752151E-2,-4.785645287E-3,9.828220367E0,9.828705215E0
4.030751610E-1,-1.118644550E-1,7.178467698E-3,9.852148056E0,9.852785723E0
4.054999530E-1,-1.357926875E-1,9.571290575E-3,9.837791443E0,9.838733238E0
4.079245360E-1,-1.190429255E-1,-9.571290575E-3,9.835398674E0,9.836123724E0
4.103487030E-1,-1.070788130E-1,7.178467698E-3,9.852148056E0,9.852732551E0
4.127726610E-1,-9.272187948E-2,1.196411345E-2,9.849755287E0,9.850198968E0
4.151966200E-1,-1.142572835E-1,4.785645287E-3,9.847362518E0,9.848026513E0
4.176207860E-1,-9.990034252E-2,2.392822690E-2,9.856933594E0,9.857468869E0
4.200445880E-1,-1.118644550E-1,2.153540403E-2,9.852148056E0,9.852806643E0
4.224679740E-1,-1.046859920E-1,1.914258115E-2,9.847362518E0,9.847937559E0
4.248918800E-1,-9.990034252E-2,7.178467698E-3,9.830613136E0,9.831123346E0
4.273156300E-1,-1.046859920E-1,1.914258115E-2,9.842576981E0,9.843152301E0
4.297397970E-1,-1.022931710E-1,-1.196411345E-2,9.844969749E0,9.845508438E0
4.321641200E-1,-1.166501045E-1,-2.392822690E-2,9.852148056E0,9.852867660E0
4.345881300E-1,-1.142572835E-1,-0.000000000E0,9.859326363E0,9.859988390E0
4.370127130E-1,-1.070788130E-1,-7.178467698E-3,9.828220367E0,9.828806285E0
4.394364630E-1,-8.793623000E-2,7.178467698E-3,9.828220367E0,9.828616378E0
4.418605780E-1,-1.214357466E-1,1.674975827E-2,9.854540825E0,9.855303246E0
4.442842760E-1,-1.022931710E-1,-2.392822644E-3,9.859326363E0,9.859857298E0
4.467080260E-1,-1.070788130E-1,9.571290575E-3,9.852148056E0,9.852734585E0
4.491321920E-1,-1.118644550E-1,1.435693540E-2,9.844969749E0,9.845615732E0
4.515561510E-1,-9.750752151E-2,1.674975827E-2,9.849755287E0,9.850252154E0
4.539804740E-1,-1.142572835E-1,1.674975827E-2,9.830613136E0,9.831291366E0
4.564046400E-1,-9.272187948E-2,2.392822644E-3,9.852148056E0,9.852584655E0
4.588280780E-1,-1.118644550E-1,2.871387079E-2,9.833005905E0,9.833684115E0
4.612526090E-1,-1.046859920E-1,2.392822644E-3,9.830613136E0,9.831170811E0
4.636772970E-1,-9.511470050E-2,3.828516230E-2,9.854540825E0,9.855074197E0
4.661012550E-1,-1.094716340E-1,1.914258115E-2,9.847362518E0,9.847989594E0
4.685256300E-1,-1.142572835E-1,4.785645287E-3,9.847362518E0,9.848026513E0
4.709503170E-1,-1.190429255E-1,-4.785645287E-3,9.847362518E0,9.848083199E0
4.733745880E-1,-1.094716340E-1,-2.392822644E-3,9.842576981E0,9.843186038E0
4.757988590E-1,-9.750752151E-2,-1.196411345E-2,9.868897438E0,9.869386379E0
4.782230780E-1,-1.046859920E-1,2.153540403E-2,9.847362518E0,9.847942501E0
4.806471920E-1,-1.046859920E-1,1.435693540E-2,9.821041107E0,9.821609527E0
4.830716200E-1,-1.046859920E-1,2.392822690E-2,9.849755287E0,9.850340651E0
4.854957860E-1,-9.990034252E-2,7.178467698E-3,9.844969749E0,9.845479215E0
4.879204220E-1,-1.070788130E-1,-0.000000000E0,9.852148056E0,9.852729936E0
4.903447450E-1,-9.511470050E-2,-1.196411345E-2,9.847362518E0,9.847829127E0
4.927684420E-1,-1.477568001E-1,2.392822644E-3,9.818648338E0,9.819760333E0
4.951920880E-1,-1.190429255E-1,1.914258115E-2,9.840184212E0,9.840922872E0
4.976149530E-1,-9.750752151E-2,1.435693540E-2,9.840184212E0,9.840677779E0
5.000385990E-1,-7.357929647E-2,1.674975827E-2,9.835398674E0,9.835688158E0
5.024629220E-1,-9.990034252E-2,-9.571290575E-3,9.837791443E0,9.838303317E0
5.048876610E-1,-1.262213886E-1,-7.178467698E-3,9.840184212E0,9.840996326E0
5.073112550E-1,-1.166501045E-1,1.196411345E-2,9.854540825E0,9.855238468E0
5.097345880E-1,-1.022931710E-1,-2.871387079E-2,9.840184212E0,9.840757781E0
5.121586510E-1,-1.118644550E-1,-2.392822644E-3,9.856933594E0,9.857568628E0
5.145825050E-1,-1.142572835E-1,1.674975827E-2,9.864111900E0,9.864787827E0
5.170067240E-1,-1.238285750E-1,-9.571290575E-3,9.861719131E0,9.862501171E0
5.194308380E-1,-1.094716340E-1,-1.435693540E-2,9.859326363E0,9.859944548E0
5.218545360E-1,-1.310070455E-1,1.914258115E-2,9.854540825E0,9.855430186E0
5.242786510E-1,-1.190429255E-1,2.153540403E-2,9.837791443E0,9.838535230E0
5.267026610E-1,-1.262213886E-1,2.153540403E-2,9.842576981E0,9.843409838E0
5.291275570E-1,-1.238285750E-1,-4.785645287E-3,9.849755287E0,9.850534789E0
5.315516200E-1,-9.990034252E-2,-4.785645287E-3,9.835398674E0,9.835907180E0
5.339757340E-1,-9.990034252E-2,4.785645287E-3,9.823433876E0,9.823943002E0
5.364006300E-1,-1.166501045E-1,4.785645287E-3,9.852148056E0,9.852839767E0
5.388244320E-1,-1.310070455E-1,-4.785645287E-3,9.844969749E0,9.845842530E0
5.412484420E-1,-9.750752151E-2,-7.178467698E-3,9.847362518E0,9.847847877E0
5.436722450E-1,-1.142572835E-1,-0.000000000E0,9.859326363E0,9.859988390E0
5.460954220E-1,-1.022931710E-1,3.828516230E-2,9.866504669E0,9.867109203E0
5.485201610E-1,-9.750752151E-2,2.392822690E-2,9.847362518E0,9.847874331E0
5.509446400E-1,-1.262213886E-1,1.674975827E-2,9.813862801E0,9.814688760E0
5.533693280E-1,-1.118644550E-1,-4.785645287E-3,9.847362518E0,9.847999042E0
5.557941720E-1,-9.990034252E-2,-4.785645287E-3,9.828220367E0,9.828729245E0
5.582183900E-1,-9.511470050E-2,-0.000000000E0,9.842576981E0,9.843036545E0
5.606420880E-1,-1.142572835E-1,9.571290575E-3,9.828220367E0,9.828889150E0
5.630664630E-1,-1.286142170E-1,-1.674975827E-2,9.849755287E0,9.850609189E0
5.654909420E-1,-1.190429255E-1,-2.392822690E-2,9.854540825E0,9.855288867E0
5.679151610E-1,-9.990034252E-2,2.392822644E-3,9.854540825E0,9.855047472E0
5.703392760E-1,-1.094716340E-1,-2.632104978E-2,9.828220367E0,9.828865267E0
5.727637030E-1,-1.238285750E-1,-9.571290575E-3,9.842576981E0,9.843360541E0
5.751877130E-1,-1.070788130E-1,2.392822644E-3,9.833005905E0,9.833589209E0
5.776115670E-1,-1.118644550E-1,-9.571290575E-3,9.840184212E0,9.840824690E0
5.800349010E-1,-1.046859920E-1,-0.000000000E0,9.866504669E0,9.867060025E0
5.824585990E-1,-8.793623000E-2,1.435693540E-2,9.849755287E0,9.850158279E0
5.848822970E-1,-1.022931710E-1,9.571290575E-3,9.835398674E0,9.835935267E0
5.873065670E-1,-1.046859920E-1,2.392822644E-3,9.844969749E0,9.845526611E0
5.897308380E-1,-1.094716340E-1,-2.392822644E-3,9.856933594E0,9.857541764E0
5.921549530E-1,-9.750752151E-2,3.349951655E-2,9.844969749E0,9.845509601E0
5.945802650E-1,-1.357926875E-1,1.196411345E-2,9.837791443E0,9.838735857E0
5.970049530E-1,-1.333998591E-1,-2.632104978E-2,9.842576981E0,9.843516137E0
5.994294840E-1,-1.142572835E-1,-1.196411345E-2,9.837791443E0,9.838462194E0
6.018532860E-1,-1.166501045E-1,7.178467698E-3,9.813862801E0,9.814558668E0
6.042774010E-1,-9.750752151E-2,4.785645287E-3,9.861719131E0,9.862202332E0
6.067015670E-1,-1.046859920E-1,1.674975827E-2,9.847362518E0,9.847933198E0
6.091260470E-1,-1.022931710E-1,7.178467698E-3,9.852148056E0,9.852681703E0
6.115512030E-1,-1.238285750E-1,1.674975827E-2,9.856933594E0,9.857725597E0
6.139757340E-1,-9.511470050E-2,9.571290575E-3,9.835398674E0,9.835863231E0
6.164000570E-1,-9.990034252E-2,2.392822644E-3,9.847362518E0,9.847869535E0
6.188244840E-1,-9.511470050E-2,-1.196411345E-2,9.856933594E0,9.857399749E0
6.212480780E-1,-1.094716340E-1,1.914258115E-2,9.861719131E0,9.862345294E0
6.236717240E-1,-1.190429255E-1,2.632104978E-2,9.861719131E0,9.862472725E0
6.260959950E-1,-1.022931710E-1,1.674975827E-2,9.854540825E0,9.855085962E0
6.285206300E-1,-9.750752151E-2,4.785645287E-3,9.844969749E0,9.845453773E0
6.309454740E-1,-1.070788130E-1,-1.196411345E-2,9.856933594E0,9.857522452E0
6.333702650E-1,-1.142572835E-1,4.785645287E-3,9.844969749E0,9.845633905E0
6.357949530E-1,-1.094716340E-1,1.196411345E-2,9.842576981E0,9.843193018E0
6.382188070E-1,-1.046859920E-1,1.914258115E-2,9.840184212E0,9.840759672E0
6.406429220E-1,-1.118644550E-1,-2.392822644E-3,9.849755287E0,9.850390784E0
6.430666200E-1,-1.286142170E-1,4.785645287E-3,9.854540825E0,9.855381240E0
6.454904220E-1,-1.357926875E-1,4.785645287E-3,9.840184212E0,9.841122287E0
6.479146400E-1,-1.046859920E-1,-2.392822644E-3,9.835398674E0,9.835956078E0
6.503393280E-1,-1.094716340E-1,7.178467698E-3,9.835398674E0,9.836010505E0
6.527641200E-1,-1.238285750E-1,-0.000000000E0,9.842576981E0,9.843355888E0
6.551883900E-1,-9.990034252E-2,4.785645287E-3,9.847362518E0,9.847870407E0
6.576130780E-1,-1.190429255E-1,4.785645287E-3,9.847362518E0,9.848083199E0
6.600375050E-1,-1.190429255E-1,1.196411345E-2,9.840184212E0,9.840911527E0
6.624615150E-1,-1.262213886E-1,2.392822690E-2,9.856933594E0,9.857770756E0
6.648865670E-1,-1.214357466E-1,1.196411345E-2,9.871291161E0,9.872045328E0
6.673111510E-1,-9.272187948E-2,-2.392822644E-3,9.852148056E0,9.852584655E0
6.697357860E-1,-1.238285750E-1,1.196411345E-2,9.840184212E0,9.840970581E0
6.721601090E-1,-1.142572835E-1,2.153540403E-2,9.830613136E0,9.831300684E0
6.745842240E-1,-9.990034252E-2,-0.000000000E0,9.844969749E0,9.845476598E0
6.770085990E-1,-1.094716340E-1,1.196411345E-2,9.833005905E0,9.833622543E0
6.794328700E-1,-9.990034252E-2,7.178467698E-3,9.835398674E0,9.835908635E0
6.818571400E-1,-9.272187948E-2,9.571290575E-3,9.847362518E0,9.847803690E0
6.842810990E-1,-1.190429255E-1,1.196411345E-2,9.833005905E0,9.833733751E0
6.867054220E-1,-1.094716340E-1,-1.196411345E-2,9.837791443E0,9.838407780E0
6.891300570E-1,-1.094716340E-1,4.785645287E-3,9.842576981E0,9.843186911E0
6.915551610E-1,-1.286142170E-1,4.785645287E-3,9.837791443E0,9.838633289E0
6.939794320E-1,-1.214357466E-1,-0.000000000E0,9.854540825E0,9.855289012E0
6.964031300E-1,-1.166501045E-1,2.392822690E-2,9.859326363E0,9.860045443E0
6.988271400E-1,-1.022931710E-1,4.785645287E-3,9.840184212E0,9.840717053E0
7.012510470E-1,-9.750752151E-2,-1.435693540E-2,9.840184212E0,9.840677779E0
7.036749010E-1,-9.511470050E-2,4.785645287E-3,9.844969749E0,9.845430365E0
7.060988070E-1,-1.286142170E-1,1.674975827E-2,9.840184212E0,9.841038944E0
7.085228170E-1,-9.750752151E-2,-2.392822644E-3,9.825826645E0,9.826310737E0
7.109472450E-1,-8.315058798E-2,-9.571290575E-3,9.859326363E0,9.859681636E0
7.133719320E-1,-8.793623000E-2,2.392822644E-3,9.844969749E0,9.845362760E0
7.157967760E-1,-1.190429255E-1,-2.392822644E-3,9.859326363E0,9.860045297E0
7.182209950E-1,-1.046859920E-1,7.178467698E-3,9.837791443E0,9.838351039E0
7.206446400E-1,-9.990034252E-2,9.571290575E-3,9.825826645E0,9.826339143E0
7.230688590E-1,-1.070788130E-1,-7.178467698E-3,9.847362518E0,9.847947297E0
7.254922970E-1,-1.190429255E-1,-1.435693540E-2,9.854540825E0,9.855270276E0
7.279158380E-1,-9.032905847E-2,-2.392822644E-3,9.835398674E0,9.835813751E0
7.303396920E-1,-9.990034252E-2,-1.435693540E-2,9.864111900E0,9.864628213E0
7.327644840E-1,-9.750752151E-2,2.392822644E-3,9.835398674E0,9.835882295E0
7.351888070E-1,-1.166501045E-1,4.785645287E-3,9.847362518E0,9.848054565E0
7.376134950E-1,-1.022931710E-1,1.674975827E-2,9.852148056E0,9.852693325E0
7.400374010E-1,-1.070788130E-1,-4.785645287E-3,9.842576981E0,9.843160590E0
7.424613590E-1,-8.554340899E-2,4.785645287E-3,9.847362518E0,9.847735229E0
7.448852650E-1,-1.046859920E-1,-1.196411345E-2,9.859326363E0,9.859889382E0
7.473090670E-1,-9.750752151E-2,4.785645287E-3,9.854540825E0,9.855024378E0
7.497336510E-1,-8.554340899E-2,-4.785645287E-3,9.849755287E0,9.850127908E0
7.521572450E-1,-1.070788130E-1,2.392822690E-2,9.849755287E0,9.850366371E0
7.545812030E-1,-1.118644550E-1,-2.392822690E-2,9.833005905E0,9.833671306E0
7.570053700E-1,-1.286142170E-1,-0.000000000E0,9.854540825E0,9.855380078E0
7.594294320E-1,-1.094716340E-1,4.785645287E-3,9.840184212E0,9.840794290E0
7.618533900E-1,-8.075776696E-2,1.196411345E-2,9.847362518E0,9.847700926E0
7.642780260E-1,-1.286142170E-1,2.153540403E-2,9.847362518E0,9.848225929E0
7.667025050E-1,-1.022931710E-1,2.392822690E-2,9.840184212E0,9.840744981E0
7.691271920E-1,-9.511470050E-2,7.178467698E-3,9.854540825E0,9.855002446E0
7.715512550E-1,-9.990034252E-2,-9.571290575E-3,9.852148056E0,9.852659185E0
7.739754220E-1,-1.238285750E-1,2.392822644E-3,9.852148056E0,9.852926497E0
7.763995880E-1,-1.094716340E-1,9.571290575E-3,9.833005905E0,9.833619922E0
7.788240150E-1,-9.272187948E-2,-2.392822644E-3,9.844969749E0,9.845406667E0
7.812477650E-1,-1.022931710E-1,-1.674975827E-2,9.859326363E0,9.859871235E0
7.836722970E-1,-9.032905847E-2,9.571290575E-3,9.852148056E0,9.852566786E0
7.860963070E-1,-1.214357466E-1,-0.000000000E0,9.844969749E0,9.845718664E0
7.885208900E-1,-1.142572835E-1,1.196411345E-2,9.852148056E0,9.852817830E0
7.909453170E-1,-1.190429255E-1,-2.392822644E-3,9.844969749E0,9.845689733E0
7.933701610E-1,-1.022931710E-1,9.571290575E-3,9.859326363E0,9.859861654E0
7.957944840E-1,-9.511470050E-2,1.435693540E-2,9.849755287E0,9.850224979E0
7.982191200E-1,-1.142572835E-1,7.178467698E-3,9.837791443E0,9.838457538E0
8.006435470E-1,-1.118644550E-1,1.674975827E-2,9.852148056E0,9.852797345E0
8.030682860E-1,-1.166501045E-1,-0.000000000E0,9.852148056E0,9.852838604E0
8.054925050E-1,-1.070788130E-1,-1.435693540E-2,9.842576981E0,9.843169897E0
8.079167240E-1,-1.046859920E-1,2.392822690E-2,9.861719131E0,9.862303785E0
8.103417240E-1,-1.046859920E-1,2.632104978E-2,9.844969749E0,9.845561504E0
8.127658380E-1,-1.022931710E-1,4.785645287E-3,9.833005905E0,9.833539135E0
8.151897450E-1,-9.032905847E-2,9.571290575E-3,9.842576981E0,9.842996117E0
8.176146400E-1,-9.990034252E-2,2.392822644E-3,9.842576981E0,9.843084243E0
8.200388070E-1,-1.238285750E-1,9.571290575E-3,9.856933594E0,9.857716013E0
8.224627130E-1,-1.238285750E-1,-4.785645287E-3,9.856933594E0,9.857712528E0
8.248857340E-1,-1.118644550E-1,2.153540403E-2,9.828220367E0,9.828880558E0
8.273098490E-1,-1.190429255E-1,4.785645287E-3,9.849755287E0,9.850475792E0
8.297335470E-1,-1.381855011E-1,4.785645287E-3,9.852148056E0,9.853118260E0
8.321582860E-1,-1.094716340E-1,1.914258115E-2,9.856933594E0,9.857560061E0
8.345831820E-1,-1.118644550E-1,7.178467698E-3,9.854540825E0,9.855178337E0
8.370068800E-1,-1.022931710E-1,-9.571290575E-3,9.852148056E0,9.852683737E0
8.394307340E-1,-9.511470050E-2,-7.178467698E-3,9.818648338E0,9.819111647E0
8.418548490E-1,-1.214357466E-1,1.196411345E-2,9.849755287E0,9.850511103E0
8.442790670E-1,-1.262213886E-1,7.178467698E-3,9.852148056E0,9.852959184E0
8.467035470E-1,-1.094716340E-1,7.178467698E-3,9.844969749E0,9.845580985E0
8.491282860E-1,-1.070788130E-1,-2.392822644E-3,9.816255569E0,9.816839868E0
8.515529740E-1,-9.990034252E-2,-0.000000000E0,9.849755287E0,9.850261890E0
8.539764630E-1,-8.554340899E-2,1.196411345E-2,9.830613136E0,9.830992597E0
8.564003170E-1,-9.990034252E-2,1.674975827E-2,9.844969749E0,9.845490846E0
8.588246400E-1,-9.990034252E-2,-1.435693540E-2,9.847362518E0,9.847879709E0
8.612488590E-1,-1.094716340E-1,-2.392822644E-3,9.833005905E0,9.833615556E0
8.636733900E-1,-1.118644550E-1,-0.000000000E0,9.835398674E0,9.836034807E0
8.660975050E-1,-1.190429255E-1,2.153540403E-2,9.825826645E0,9.826571337E0
8.685221400E-1,-1.166501045E-1,7.178467698E-3,9.821041107E0,9.821736466E0
8.709464630E-1,-1.214357466E-1,-4.785645287E-3,9.840184212E0,9.840934654E0
8.733706820E-1,-1.166501045E-1,2.392822690E-2,9.864111900E0,9.864830632E0
8.757940670E-1,-1.142572835E-1,9.571290575E-3,9.842576981E0,9.843244788E0
8.782181820E-1,-1.190429255E-1,2.392822644E-3,9.842576981E0,9.843297139E0
8.806426610E-1,-1.166501045E-1,1.674975827E-2,9.837791443E0,9.838497257E0
8.830669840E-1,-1.046859920E-1,-4.785645287E-3,9.844969749E0,9.845527483E0
8.854906820E-1,-1.046859920E-1,7.178467698E-3,9.835398674E0,9.835958406E0
8.879150050E-1,-1.262213886E-1,-1.196411345E-2,9.828220367E0,9.829038130E0
8.903389110E-1,-1.070788130E-1,2.392822644E-3,9.833005905E0,9.833589209E0
8.927625570E-1,-1.286142170E-1,4.785645287E-3,9.844969749E0,9.845810982E0
8.951857860E-1,-1.022931710E-1,-2.392822644E-3,9.844969749E0,9.845501459E0
8.976092760E-1,-1.142572835E-1,4.785645287E-3,9.835398674E0,9.836063476E0
9.000327650E-1,-9.990034252E-2,-7.178467698E-3,9.847362518E0,9.847871860E0
9.024568800E-1,-9.511470050E-2,7.178467698E-3,9.849755287E0,9.850217132E0
9.048805780E-1,-1.022931710E-1,9.571290575E-3,9.854540825E0,9.855076376E0
9.073053700E-1,-9.990034252E-2,4.785645287E-3,9.835398674E0,9.835907180E0
9.097293800E-1,-9.990034252E-2,7.178467698E-3,9.828220367E0,9.828730701E0
9.121534950E-1,-1.070788130E-1,-7.178467698E-3,9.828220367E0,9.828806285E0
9.145776090E-1,-1.166501045E-1,1.196411345E-2,9.835398674E0,9.836097675E0
9.170017240E-1,-1.190429255E-1,-7.178467698E-3,9.852148056E0,9.852869839E0
9.194259420E-1,-1.094716340E-1,2.871387079E-2,9.825826645E0,9.826478402E0
9.218506300E-1,-8.793623000E-2,9.571290575E-3,9.835398674E0,9.835796433E0
9.242747450E-1,-1.094716340E-1,7.178467698E-3,9.837791443E0,9.838403125E0
9.266993280E-1,-9.511470050E-2,-0.000000000E0,9.849755287E0,9.850214517E0
9.291243800E-1,-1.166501045E-1,-0.000000000E0,9.842576981E0,9.843268200E0
9.315483900E-1,-9.272187948E-2,7.178467698E-3,9.844969749E0,9.845408993E0
9.339726090E-1,-1.262213886E-1,9.571290575E-3,9.833005905E0,9.833820650E0
9.363969840E-1,-9.750752151E-2,1.435693540E-2,9.837791443E0,9.838285131E0
9.388215150E-1,-1.190429255E-1,1.674975827E-2,9.854540825E0,9.855274052E0
9.412462030E-1,-9.750752151E-2,-1.435693540E-2,9.849755287E0,9.850248375E0
9.436700570E-1,-1.118644550E-1,-0.000000000E0,9.835398674E0,9.836034807E0
9.460941200E-1,-9.511470050E-2,-0.000000000E0,9.847362518E0,9.847821859E0
9.485181820E-1,-7.836493850E-2,-0.000000000E0,9.849755287E0,9.850067019E0
9.509424530E-1,-1.190429255E-1,1.914258115E-2,9.856933594E0,9.857670999E0
9.533667760E-1,-1.022931710E-1,4.785645287E-3,9.842576981E0,9.843109692E0
9.557906300E-1,-1.022931710E-1,7.178467698E-3,9.849755287E0,9.850289064E0
9.582148490E-1,-9.272187948E-2,-1.435693540E-2,9.825826645E0,9.826274611E0
9.606388590E-1,-9.032905847E-2,-4.785645287E-3,9.837791443E0,9.838207292E0
9.630632340E-1,-1.070788130E-1,-2.392822644E-3,9.847362518E0,9.847944972E0
9.654877130E-1,-9.032905847E-2,-0.000000000E0,9.849755287E0,9.850169468E0
9.679121920E-1,-1.046859920E-1,1.196411345E-2,9.844969749E0,9.845533590E0
9.703365670E-1,-9.990034252E-2,-0.000000000E0,9.854540825E0,9.855047181E0
9.727607860E-1,-1.094716340E-1,-1.674975827E-2,9.842576981E0,9.843199999E0
9.751854220E-1,-1.381855011E-1,1.674975827E-2,9.833005905E0,9.833991098E0
9.776105780E-1,-9.511470050E-2,1.674975827E-2,9.844969749E0,9.845443450E0
9.800344840E-1,-9.990034252E-2,-4.785645287E-3,9.842576981E0,9.843085116E0
9.824583900E-1,-1.238285750E-1,-2.392822644E-3,9.866504669E0,9.867281978E0
9.848824530E-1,-9.750752151E-2,2.392822644E-3,9.854540825E0,9.855023506E0
9.873062030E-1,-1.094716340E-1,4.785645287E-3,9.842576981E0,9.843186911E0
9.897306820E-1,-1.022931710E-1,7.178467698E-3,9.842576981E0,9.843111146E0
9.921551610E-1,-8.554340899E-2,9.571290575E-3,9.852148056E0,9.852524073E0
9.945789630E-1,-1.118644550E-1,1.196411345E-2,9.844969749E0,9.845612534E0
9.970031820E-1,-1.166501045E-1,2.392822644E-3,9.830613136E0,9.831305488E0
9.994270360E-1,-1.142572835E-1,9.571290575E-3,9.833005905E0,9.833674362E0
1.001850474E0,-1.190429255E-1,-0.000000000E0,9.823433876E0,9.824155146E0
1.004274536E0,-9.990034252E-2,4.785645287E-3,9.835398674E0,9.835907180E0
1.006698963E0,-9.990034252E-2,-2.392822644E-3,9.840184212E0,9.840691598E0
1.009123390E0,-8.793623000E-2,-0.000000000E0,9.837791443E0,9.838184449E0
1.011548130E0,-8.315058798E-2,7.178467698E-3,9.847362518E0,9.847716188E0
1.013972557E0,-9.750752151E-2,1.196411345E-2,9.856933594E0,9.857423128E0
1.016397036E0,-1.046859920E-1,2.153540403E-2,9.847362518E0,9.847942501E0
1.018821411E0,-9.990034252E-2,7.178467698E-3,9.840184212E0,9.840693925E0
1.021245526E0,-8.554340899E-2,7.178467698E-3,9.821041107E0,9.821416274E0
1.023669484E0,-1.094716340E-1,7.178467698E-3,9.854540825E0,9.855151467E0
1.026093807E0,-1.214357466E-1,-1.196411345E-2,9.837791443E0,9.838548178E0
1.028518286E0,-1.118644550E-1,-4.785645287E-3,9.840184212E0,9.840821199E0
1.030941828E0,-1.142572835E-1,-2.392822644E-3,9.840184212E0,9.840847818E0
1.033364953E0,-9.511470050E-2,1.674975827E-2,9.847362518E0,9.847836104E0
1.035788703E0,-8.315058798E-2,9.571290575E-3,9.847362518E0,9.847718223E0
1.038211984E0,-9.032905847E-2,4.785645287E-3,9.840184212E0,9.840599959E0
1.040636411E0,-1.166501045E-1,-0.000000000E0,9.866504669E0,9.867194213E0
1.043060422E0,-1.238285750E-1,-4.785645287E-3,9.852148056E0,9.852927369E0
1.045484588E0,-1.094716340E-1,-4.785645287E-3,9.816255569E0,9.816867135E0
1.047908651E0,-1.286142170E-1,-0.000000000E0,9.842576981E0,9.843417254E0
1.050332922E0,-9.750752151E-2,7.178467698E-3,9.840184212E0,9.840669925E0
1.052757036E0,-1.262213886E-1,9.571290575E-3,9.849755287E0,9.850568647E0
1.055180942E0,-1.214357466E-1,2.392822644E-3,9.849755287E0,9.850504128E0
1.057604120E0,-9.750752151E-2,1.914258115E-2,9.847362518E0,9.847863866E0
1.060027765E0,-1.094716340E-1,4.785645287E-3,9.852148056E0,9.852757394E0
1.062452036E0,-9.272187948E-2,1.196411345E-2,9.840184212E0,9.840628324E0
1.064876672E0,-1.022931710E-1,7.178467698E-3,9.825826645E0,9.826361721E0
1.067300890E0,-1.046859920E-1,4.785645287E-3,9.852148056E0,9.852705384E0
1.069725422E0,-1.310070455E-1,4.785645287E-3,9.854540825E0,9.855412757E0
1.072150578E0,-1.022931710E-1,-4.785645287E-3,9.804291725E0,9.804826517E0
1.074574692E0,-1.022931710E-1,-1.914258115E-2,9.861719131E0,9.862268226E0
1.076998963E0,-1.070788130E-1,1.435693540E-2,9.856933594E0,9.857525646E0
1.079423390E0,-1.022931710E-1,1.674975827E-2,9.821041107E0,9.821588104E0
1.081847297E0,-1.070788130E-1,-1.435693540E-2,9.849755287E0,9.850347771E0
1.084270786E0,-1.094716340E-1,-2.392822644E-3,9.856933594E0,9.857541764E0
1.086695057E0,-1.022931710E-1,-0.000000000E0,9.849755287E0,9.850286448E0
1.089119901E0,-1.286142170E-1,-1.435693540E-2,9.840184212E0,9.841035162E0
1.091544328E0,-1.046859920E-1,2.632104978E-2,9.844969749E0,9.845561504E0
1.093968807E0,-1.118644550E-1,2.392822644E-3,9.854540825E0,9.855176013E0
1.096393495E0,-9.032905847E-2,4.785645287E-3,9.856933594E0,9.857348635E0
1.098817297E0,-9.990034252E-2,2.392822644E-3,9.861719131E0,9.862225410E0
1.101241359E0,-1.118644550E-1,-2.392822644E-3,9.847362518E0,9.847998170E0
1.103665682E0,-1.214357466E-1,-2.392822644E-3,9.835398674E0,9.836148608E0
1.106090526E0,-1.166501045E-1,-0.000000000E0,9.844969749E0,9.845660801E0
1.108514849E0,-1.190429255E-1,-2.392822644E-3,9.842576981E0,9.843297139E0
1.110939224E0,-7.836493850E-2,4.785645287E-3,9.840184212E0,9.840497411E0
1.113364067E0,-8.315058798E-2,7.178467698E-3,9.864111900E0,9.864464969E0
1.115788182E0,-1.046859920E-1,9.571290575E-3,9.847362518E0,9.847923605E0
1.118213547E0,-1.070788130E-1,1.435693540E-2,9.825826645E0,9.826420572E0
1.120638234E0,-1.118644550E-1,9.571290575E-3,9.866504669E0,9.867143439E0
1.123062245E0,-9.990034252E-2,-0.000000000E0,9.859326363E0,9.859832473E0
1.125486411E0,-1.070788130E-1,2.392822644E-3,9.852148056E0,9.852730226E0
1.127910734E0,-1.286142170E-1,2.392822644E-3,9.835398674E0,9.836239852E0
1.130334692E0,-9.990034252E-2,-4.785645287E-3,9.840184212E0,9.840692471E0
1.132758807E0,-1.070788130E-1,-1.196411345E-2,9.847362518E0,9.847951948E0
1.135183651E0,-1.238285750E-1,2.392822690E-2,9.868897438E0,9.869703274E0
1.137608338E0,-1.166501045E-1,2.392822644E-3,9.854540825E0,9.855231496E0
1.140032505E0,-1.142572835E-1,-1.674975827E-2,9.830613136E0,9.831291366E0
1.142456932E0,-1.142572835E-1,-2.392822644E-3,9.842576981E0,9.843240425E0
1.144881203E0,-1.333998591E-1,1.674975827E-2,9.837791443E0,9.838710106E0
1.147305422E0,-9.511470050E-2,2.153540403E-2,9.852148056E0,9.852630710E0
1.149729692E0,-1.286142170E-1,1.196411345E-2,9.837791443E0,9.838639399E0
1.152154172E0,-1.190429255E-1,-4.785645287E-3,9.837791443E0,9.838512824E0
1.154578703E0,-1.070788130E-1,-1.435693540E-2,9.864111900E0,9.864703522E0
1.157002661E0,-1.094716340E-1,-0.000000000E0,9.852148056E0,9.852756231E0
1.159426567E0,-1.070788130E-1,9.571290575E-3,9.828220367E0,9.828808324E0
1.161850890E0,-1.142572835E-1,-2.392822690E-2,9.828220367E0,9.828913616E0
1.164275578E0,-1.118644550E-1,-1.196411345E-2,9.849755287E0,9.850397759E0
1.166700213E0,-1.166501045E-1,-0.000000000E0,9.833005905E0,9.833697798E0
1.169124640E0,-1.190429255E-1,-1.435693540E-2,9.816255569E0,9.816987865E0
1.171549120E0,-1.286142170E-1,9.571290575E-3,9.825826645E0,9.826673012E0
1.173972974E0,-9.750752151E-2,2.632104978E-2,9.856933594E0,9.857451009E0
1.176396828E0,-1.381855011E-1,1.914258115E-2,9.840184212E0,9.841173050E0
1.178821515E0,-7.836493850E-2,3.589234129E-2,9.837791443E0,9.838169027E0
1.181245422E0,-1.046859920E-1,2.392822690E-2,9.847362518E0,9.847948024E0
1.183669484E0,-8.793623000E-2,-9.571290575E-3,9.847362518E0,9.847759794E0
1.186093807E0,-9.511470050E-2,1.674975827E-2,9.825826645E0,9.826301268E0
1.188516828E0,-8.315058798E-2,9.571290575E-3,9.837791443E0,9.838147493E0
1.190940422E0,-1.118644550E-1,2.871387079E-2,9.847362518E0,9.848039739E0
1.193364901E0,-9.750752151E-2,-4.785645287E-3,9.837791443E0,9.838275819E0
1.195789380E0,-9.750752151E-2,-4.785645287E-3,9.849755287E0,9.850239075E0
1.198213442E0,-1.142572835E-1,-2.392822644E-3,9.847362518E0,9.848025641E0
1.200637817E0,-1.142572835E-1,1.674975827E-2,9.847362518E0,9.848039594E0
1.203062661E0,-8.075776696E-2,2.871387079E-2,9.854540825E0,9.854913555E0
1.205486984E0,-1.333998591E-1,1.196411345E-2,9.847362518E0,9.848273312E0
1.207911515E0,-1.357926875E-1,1.196411345E-2,9.840184212E0,9.841128396E0
1.210335109E0,-1.094716340E-1,1.435693540E-2,9.854540825E0,9.855159310E0
1.212759380E0,-8.315058798E-2,9.571290575E-3,9.835398674E0,9.835754811E0
1.215183442E0,-7.836493850E-2,2.392822644E-3,9.849755287E0,9.850067310E0
1.217608026E0,-1.070788130E-1,-0.000000000E0,9.842576981E0,9.843159426E0
1.220032245E0,-1.142572835E-1,4.785645287E-3,9.849755287E0,9.850419120E0
1.222456672E0,-1.118644550E-1,-2.392822644E-3,9.854540825E0,9.855176013E0
1.224881359E0,-9.990034252E-2,1.196411345E-2,9.864111900E0,9.864625021E0
1.227305578E0,-8.315058798E-2,1.674975827E-2,9.823433876E0,9.823800064E0
1.229729953E0,-9.511470050E-2,1.435693540E-2,9.833005905E0,9.833476397E0
1.232154797E0,-1.070788130E-1,-1.196411345E-2,9.847362518E0,9.847951948E0
1.234579380E0,-1.190429255E-1,1.196411345E-2,9.818648338E0,9.819377249E0
1.237003859E0,-9.990034252E-2,7.178467698E-3,9.837791443E0,9.838301280E0
1.239428807E0,-9.750752151E-2,4.785645287E-3,9.859326363E0,9.859809681E0
1.241853442E0,-9.511470050E-2,-1.196411345E-2,9.852148056E0,9.852614438E0
1.244277922E0,-1.238285750E-1,-4.785645287E-3,9.849755287E0,9.850534789E0
1.246702036E0,-1.070788130E-1,7.178467698E-3,9.864111900E0,9.864695686E0
1.249126203E0,-9.511470050E-2,-1.674975827E-2,9.852148056E0,9.852621412E0
1.251550109E0,-1.190429255E-1,-9.571290575E-3,9.835398674E0,9.836123724E0
1.253974536E0,-9.272187948E-2,-7.178467698E-3,9.859326363E0,9.859764967E0
1.256399120E0,-1.142572835E-1,-2.392822644E-3,9.840184212E0,9.840847818E0
1.258823859E0,-1.094716340E-1,-2.392822644E-3,9.852148056E0,9.852756522E0
1.261248286E0,-1.094716340E-1,-2.392822644E-3,9.854540825E0,9.855149143E0
1.263672661E0,-8.075776696E-2,2.392822644E-3,9.849755287E0,9.850086637E0
1.266096411E0,-9.750752151E-2,-2.392822644E-3,9.847362518E0,9.847845552E0
1.268520213E0,-1.118644550E-1,2.871387079E-2,9.856933594E0,9.857610157E0
1.270944640E0,-1.118644550E-1,4.785645287E-3,9.849755287E0,9.850391656E0
1.273369120E0,-7.836493850E-2,-1.435693540E-2,9.847362518E0,9.847684791E0
1.275793651E0,-1.166501045E-1,4.067798331E-2,9.825826645E0,9.826603238E0
1.278217453E0,-1.022931710E-1,-2.392822644E-3,9.852148056E0,9.852679379E0
1.280641515E0,-8.075776696E-2,4.785645287E-3,9.856933594E0,9.857265574E0
1.283065057E0,-1.070788130E-1,2.392822644E-3,9.842576981E0,9.843159717E0
1.285489015E0,-9.272187948E-2,-0.000000000E0,9.856933594E0,9.857369691E0
1.287913390E0,-9.032905847E-2,9.571290575E-3,9.864111900E0,9.864530122E0
1.290338338E0,-1.238285750E-1,-4.785645287E-3,9.854540825E0,9.855319949E0
1.292762088E0,-9.032905847E-2,1.435693540E-2,9.856933594E0,9.857357929E0
1.295185213E0,-1.022931710E-1,7.178467698E-3,9.876076698E0,9.876609052E0
1.297608911E0,-9.032905847E-2,2.392822644E-3,9.861719131E0,9.862133101E0
1.300032922E0,-9.272187948E-2,7.178467698E-3,9.861719131E0,9.862157629E0
1.302456724E0,-9.032905847E-2,2.392822644E-3,9.835398674E0,9.835813751E0
1.304881047E0,-8.554340899E-2,9.571290575E-3,9.844969749E0,9.845346040E0
1.307305265E0,-1.118644550E-1,2.153540403E-2,9.840184212E0,9.840843600E0
1.309729380E0,-1.046859920E-1,1.435693540E-2,9.864111900E0,9.864677839E0
1.312152974E0,-1.118644550E-1,1.196411345E-2,9.840184212E0,9.840827309E0
1.314576203E0,-1.190429255E-1,-2.392822644E-3,9.842576981E0,9.843297139E0
1.316999849E0,-1.094716340E-1,7.178467698E-3,9.837791443E0,9.838403125E0
1.319423755E0,-1.022931710E-1,1.914258115E-2,9.830613136E0,9.831163968E0
1.321847088E0,-9.511470050E-2,9.571290575E-3,9.816255569E0,9.816721032E0
1.324270942E0,-1.094716340E-1,4.785645287E-3,9.835398674E0,9.836009049E0
1.326694797E0,-8.315058798E-2,1.914258115E-2,9.864111900E0,9.864480931E0
1.329117713E0,-9.272187948E-2,4.785645287E-3,9.844969749E0,9.845407539E0
1.331541463E0,-8.554340899E-2,-9.571290575E-3,9.835398674E0,9.835775331E0
1.333965370E0,-9.511470050E-2,2.392822644E-3,9.847362518E0,9.847822150E0
1.336388703E0,-1.142572835E-1,2.392822690E-2,9.844969749E0,9.845661819E0
1.338812661E0,-9.990034252E-2,-4.785645287E-3,9.840184212E0,9.840692471E0
1.341236724E0,-1.142572835E-1,1.196411345E-2,9.840184212E0,9.840854800E0
1.343660786E0,-1.166501045E-1,1.196411345E-2,9.840184212E0,9.840882872E0
1.346084692E0,-1.238285750E-1,-2.392822644E-3,9.842576981E0,9.843356179E0
1.348509015E0,-1.118644550E-1,1.435693540E-2,9.847362518E0,9.848008344E0
1.350933338E0,-9.990034252E-2,2.392822644E-3,9.861719131E0,9.862225410E0
1.353356984E0,-9.990034252E-2,-2.153540403E-2,9.854540825E0,9.855070711E0
1.355781307E0,-1.238285750E-1,-1.435693540E-2,9.847362518E0,9.848151512E0
1.358205161E0,-9.511470050E-2,2.392822644E-3,9.856933594E0,9.857392779E0
1.360630161E0,-1.070788130E-1,4.785645287E-3,9.842576981E0,9.843160590E0
1.363053859E0,-9.272187948E-2,2.392822690E-2,9.852148056E0,9.852613421E0
1.365477609E0,-9.750752151E-2,2.392822690E-2,9.861719131E0,9.862230199E0
1.367901620E0,-9.990034252E-2,1.196411345E-2,9.837791443E0,9.838305936E0
1.370325630E0,-1.166501045E-1,-1.674975827E-2,9.849755287E0,9.850460244E0
1.372748807E0,-9.990034252E-2,-4.785645287E-3,9.830613136E0,9.831121890E0
1.375173130E0,-1.118644550E-1,7.178467698E-3,9.852148056E0,9.852785723E0
1.377597401E0,-9.511470050E-2,-2.871387079E-2,9.861719131E0,9.862219604E0
1.380021463E0,-1.118644550E-1,-1.674975827E-2,9.833005905E0,9.833656458E0
1.382445526E0,-9.990034252E-2,-0.000000000E0,9.835398674E0,9.835906016E0
1.384869640E0,-8.554340899E-2,2.392822690E-2,9.849755287E0,9.850155809E0
1.387294224E0,-1.142572835E-1,4.785645287E-3,9.833005905E0,9.833670869E0
1.389717870E0,-9.272187948E-2,-0.000000000E0,9.840184212E0,9.840621051E0
1.392141411E0,-1.070788130E-1,9.571290575E-3,9.844969749E0,9.845556706E0
1.394564901E0,-8.315058798E-2,1.196411345E-2,9.833005905E0,9.833364749E0
1.396988338E0,-1.094716340E-1,-1.196411345E-2,9.859326363E0,9.859941354E0
1.399412036E0,-9.032905847E-2,1.674975827E-2,9.840184212E0,9.840613051E0
1.401836411E0,-8.793623000E-2,1.196411345E-2,9.844969749E0,9.845369739E0
1.404260734E0,-1.262213886E-1,1.435693540E-2,9.835398674E0,9.836219042E0
1.406684276E0,-1.046859920E-1,1.435693540E-2,9.828220367E0,9.828788372E0
1.409107192E0,-8.793623000E-2,9.571290575E-3,9.837791443E0,9.838189105E0
1.411530370E0,-1.094716340E-1,1.914258115E-2,9.859326363E0,9.859952677E0
1.413954120E0,-1.214357466E-1,1.435693540E-2,9.849755287E0,9.850514300E0
1.416377609E0,-1.214357466E-1,-0.000000000E0,9.844969749E0,9.845718664E0
1.418801359E0,-1.094716340E-1,1.914258115E-2,9.847362518E0,9.847989594E0
1.421225213E0,-1.022931710E-1,4.785645287E-3,9.840184212E0,9.840717053E0
1.423648911E0,-1.046859920E-1,1.674975827E-2,9.849755287E0,9.850325829E0
1.426072817E0,-1.094716340E-1,1.196411345E-2,9.852148056E0,9.852763495E0
1.428496724E0,-9.272187948E-2,-4.785645287E-3,9.856933594E0,9.857370852E0
1.430920109E0,-9.750752151E-2,-0.000000000E0,9.828220367E0,9.828704050E0
1.433343599E0,-1.022931710E-1,2.392822644E-3,9.861719131E0,9.862249938E0
1.435766984E0,-9.990034252E-2,2.871387079E-2,9.835398674E0,9.835947928E0
1.438190578E0,-1.333998591E-1,9.571290575E-3,9.828220367E0,9.829130314E0
1.440614432E0,-1.310070455E-1,-2.392822644E-3,9.835398674E0,9.836271430E0
1.443038130E0,-1.262213886E-1,-1.674975827E-2,9.856933594E0,9.857755945E0
1.445461359E0,-1.166501045E-1,-3.349951655E-2,9.842576981E0,9.843325205E0
1.447885213E0,-1.022931710E-1,-0.000000000E0,9.854540825E0,9.855071728E0
1.450309692E0,-1.094716340E-1,1.435693540E-2,9.842576981E0,9.843196218E0
1.452733599E0,-1.142572835E-1,1.914258115E-2,9.842576981E0,9.843258748E0
1.455158078E0,-1.238285750E-1,2.392822644E-3,9.844969749E0,9.845748758E0
1.457582140E0,-1.286142170E-1,1.435693540E-2,9.840184212E0,9.841035162E0
1.460005682E0,-1.190429255E-1,2.871387079E-2,9.837791443E0,9.838553561E0
1.462429380E0,-1.190429255E-1,-2.392822644E-3,9.854540825E0,9.855260109E0
1.464853286E0,-1.070788130E-1,-2.392822644E-3,9.854540825E0,9.855122854E0
1.467277088E0,-1.070788130E-1,-1.674975827E-2,9.847362518E0,9.847958925E0
1.469700370E0,-1.166501045E-1,2.392822644E-3,9.847362518E0,9.848053693E0
1.472124276E0,-1.070788130E-1,-0.000000000E0,9.830613136E0,9.831196291E0
1.474547974E0,-1.214357466E-1,7.178467698E-3,9.842576981E0,9.843328695E0
1.476971411E0,-1.046859920E-1,1.435693540E-2,9.859326363E0,9.859892576E0
1.479395109E0,-1.046859920E-1,-4.785645287E-3,9.864111900E0,9.864668552E0
1.481818390E0,-9.511470050E-2,-2.392822644E-3,9.840184212E0,9.840644179E0
1.484242245E0,-1.190429255E-1,2.392822644E-3,9.852148056E0,9.852867515E0
1.486666203E0,-1.022931710E-1,-7.178467698E-3,9.871291161E0,9.871823773E0
1.489090370E0,-1.022931710E-1,-1.196411345E-2,9.864111900E0,9.864649543E0
1.491514484E0,-8.315058798E-2,-2.392822644E-3,9.828220367E0,9.828572396E0
1.493939015E0,-1.022931710E-1,-9.571290575E-3,9.854540825E0,9.855076376E0
1.496363078E0,-8.793623000E-2,-9.571290575E-3,9.825826645E0,9.826224791E0
1.498787401E0,-9.750752151E-2,2.392822644E-3,9.840184212E0,9.840667597E0
1.501211203E0,-9.272187948E-2,2.871387079E-2,9.847362518E0,9.847840900E0
1.503635370E0,-9.272187948E-2,-9.571290575E-3,9.849755287E0,9.850196352E0
1.506059640E0,-9.032905847E-2,2.392822690E-2,9.849755287E0,9.850198532E0
1.508483703E0,-1.142572835E-1,4.785645287E-3,9.823433876E0,9.824099488E0
1.510908078E0,-1.190429255E-1,2.153540403E-2,9.854540825E0,9.855283348E0
1.513332245E0,-1.118644550E-1,2.392822690E-2,9.852148056E0,9.852812164E0
1.515756620E0,-1.166501045E-1,1.196411345E-2,9.847362518E0,9.848060670E0
1.518180942E0,-1.166501045E-1,1.435693540E-2,9.840184212E0,9.840886072E0
1.520605317E0,-1.190429255E-1,2.392822690E-2,9.852148056E0,9.852896280E0
1.523029224E0,-1.166501045E-1,1.674975827E-2,9.842576981E0,9.843282452E0
1.525453495E0,-9.750752151E-2,3.349951655E-2,9.847362518E0,9.847902239E0
1.527877870E0,-1.022931710E-1,9.571290575E-3,9.847362518E0,9.847898460E0
1.530302140E0,-1.142572835E-1,9.571290575E-3,9.856933594E0,9.857600429E0
1.532727349E0,-9.511470050E-2,-1.435693540E-2,9.856933594E0,9.857402944E0
1.535151151E0,-8.554340899E-2,9.571290575E-3,9.859326363E0,9.859702105E0
1.537575370E0,-1.022931710E-1,7.178467698E-3,9.840184212E0,9.840718508E0
1.539999172E0,-1.262213886E-1,1.196411345E-2,9.847362518E0,9.848178692E0
1.542423390E0,-1.070788130E-1,4.785645287E-3,9.828220367E0,9.828804829E0
1.544847817E0,-1.142572835E-1,7.178467698E-3,9.842576981E0,9.843242752E0
1.547271984E0,-9.272187948E-2,4.785645287E-3,9.859326363E0,9.859763515E0
1.549696203E0,-9.272187948E-2,-9.571290575E-3,9.854540825E0,9.854981676E0
1.552120526E0,-1.166501045E-1,-7.178467698E-3,9.856933594E0,9.857626421E0
1.554545578E0,-1.142572835E-1,7.178467698E-3,9.847362518E0,9.848027966E0
1.556969588E0,-1.262213886E-1,1.674975827E-2,9.842576981E0,9.843400531E0
1.559393807E0,-1.142572835E-1,-0.000000000E0,9.830613136E0,9.831277097E0
1.561818495E0,-1.022931710E-1,2.392822644E-3,9.835398674E0,9.835930901E0
1.564242713E0,-1.070788130E-1,2.153540403E-2,9.825826645E0,9.826433682E0
1.566667297E0,-1.046859920E-1,7.178467698E-3,9.840184212E0,9.840743671E0
1.569091776E0,-1.286142170E-1,-0.000000000E0,9.852148056E0,9.852987513E0
1.571516463E0,-1.142572835E-1,2.632104978E-2,9.852148056E0,9.852845723E0
1.573940057E0,-1.190429255E-1,4.785645287E-3,9.837791443E0,9.838512824E0
1.576364380E0,-1.190429255E-1,1.435693540E-2,9.842576981E0,9.843307318E0
1.578788703E0,-1.142572835E-1,4.785645287E-3,9.852148056E0,9.852811728E0
1.581212817E0,-8.075776696E-2,-0.000000000E0,9.842576981E0,9.842908281E0
1.583636984E0,-1.046859920E-1,9.571290575E-3,9.864111900E0,9.864672035E0
1.586060786E0,-1.118644550E-1,4.785645287E-3,9.854540825E0,9.855176885E0
1.588484849E0,-8.554340899E-2,-4.785645287E-3,9.842576981E0,9.842949873E0
1.590909588E0,-9.750752151E-2,-2.392822644E-3,9.825826645E0,9.826310737E0
1.593333703E0,-1.214357466E-1,-7.178467698E-3,9.842576981E0,9.843328695E0
1.595758234E0,-9.990034252E-2,7.178467698E-3,9.849755287E0,9.850264505E0
1.598182713E0,-9.990034252E-2,-0.000000000E0,9.861719131E0,9.862225119E0
1.600606620E0,-8.075776696E-2,-7.178467698E-3,9.864111900E0,9.864445090E0
1.603030526E0,-9.511470050E-2,-9.571290575E-3,9.842576981E0,9.843041198E0
1.605454432E0,-1.166501045E-1,-4.785645287E-3,9.842576981E0,9.843269364E0
1.607878338E0,-8.075776696E-2,9.571290575E-3,9.830613136E0,9.830949500E0
1.610302245E0,-8.554340899E-2,4.785645287E-3,9.842576981E0,9.842949873E0
1.612726047E0,-9.750752151E-2,1.435693540E-2,9.849755287E0,9.850248375E0
1.615149901E0,-8.315058798E-2,1.435693540E-2,9.852148056E0,9.852509399E0
1.617574484E0,-1.094716340E-1,1.196411345E-2,9.861719131E0,9.862333974E0
1.619998234E0,-9.511470050E-2,2.392822644E-3,9.837791443E0,9.838251522E0
1.622421672E0,-9.511470050E-2,-9.571290575E-3,9.854540825E0,9.855004479E0
1.624845213E0,-9.272187948E-2,-9.571290575E-3,9.854540825E0,9.854981676E0
1.627268963E0,-1.070788130E-1,2.632104978E-2,9.864111900E0,9.864728189E0
1.629692870E0,-1.310070455E-1,-2.392822644E-3,9.852148056E0,9.853019329E0
1.632116828E0,-1.022931710E-1,1.674975827E-2,9.828220367E0,9.828766964E0
1.634540109E0,-6.640082598E-2,-0.000000000E0,9.856933594E0,9.857157244E0
1.636963807E0,-1.022931710E-1,3.349951655E-2,9.842576981E0,9.843165534E0
1.639387817E0,-1.046859920E-1,-0.000000000E0,9.821041107E0,9.821599034E0
1.641812401E0,-1.070788130E-1,2.153540403E-2,9.818648338E0,9.819255819E0
1.644236515E0,-9.032905847E-2,2.392822690E-2,9.847362518E0,9.847805871E0
1.646660213E0,-1.094716340E-1,2.632104978E-2,9.871291161E0,9.871933246E0
1.649083911E0,-8.793623000E-2,1.196411345E-2,9.852148056E0,9.852547754E0
1.651508442E0,-9.990034252E-2,7.178467698E-3,9.833005905E0,9.833515991E0
1.653932713E0,-1.262213886E-1,2.392822644E-3,9.856933594E0,9.857742005E0
1.656356724E0,-8.315058798E-2,4.785645287E-3,9.854540825E0,9.854892784E0
1.658780682E0,-1.118644550E-1,2.153540403E-2,9.816255569E0,9.816916565E0
1.661205213E0,-1.166501045E-1,1.435693540E-2,9.835398674E0,9.836100876E0
1.663629588E0,-1.022931710E-1,2.392822690E-2,9.866504669E0,9.867063942E0
1.666053338E0,-1.118644550E-1,-4.785645287E-3,9.856933594E0,9.857569499E0
1.668477974E0,-1.142572835E-1,2.392822644E-3,9.830613136E0,9.831277388E0
1.670902713E0,-1.142572835E-1,-7.178467698E-3,9.849755287E0,9.850420573E0
1.673327505E0,-8.793623000E-2,1.674975827E-2,9.854540825E0,9.854947397E0
1.675751672E0,-1.118644550E-1,2.392822644E-3,9.847362518E0,9.847998170E0
1.678175422E0,-1.070788130E-1,9.571290575E-3,9.864111900E0,9.864697718E0
1.680599015E0,-1.118644550E-1,4.785645287E-3,9.861719131E0,9.862354728E0
1.683022609E0,-1.214357466E-1,2.153540403E-2,9.825826645E0,9.826600616E0
1.685446359E0,-9.750752151E-2,2.632104978E-2,9.852148056E0,9.852665722E0
1.687870265E0,-1.022931710E-1,-4.785645287E-3,9.861719131E0,9.862250809E0
1.690293703E0,-1.166501045E-1,1.674975827E-2,9.828220367E0,9.828926869E0
1.692717765E0,-9.511470050E-2,-9.571290575E-3,9.811470032E0,9.811935721E0
1.695142297E0,-7.836493850E-2,9.571290575E-3,9.847362518E0,9.847678977E0
1.697566151E0,-9.990034252E-2,-0.000000000E0,9.852148056E0,9.852654536E0
1.699989797E0,-1.142572835E-1,-4.785645287E-3,9.837791443E0,9.838456083E0
1.702413547E0,-1.166501045E-1,4.785645287E-3,9.837791443E0,9.838484163E0
1.704837401E0,-1.046859920E-1,1.435693540E-2,9.835398674E0,9.835966264E0
1.707260734E0,-9.272187948E-2,9.571290575E-3,9.854540825E0,9.854981676E0
1.709684901E0,-1.022931710E-1,-2.392822644E-3,9.868897438E0,9.869427859E0
1.712108911E0,-1.022931710E-1,7.178467698E-3,9.864111900E0,9.864644900E0
1.714533026E0,-1.190429255E-1,2.392822644E-3,9.849755287E0,9.850474921E0
1.716956984E0,-6.879365444E-2,1.435693540E-2,9.823433876E0,9.823685246E0
1.719380890E0,-1.262213886E-1,-4.785645287E-3,9.847362518E0,9.848172587E0
1.721805213E0,-8.554340899E-2,-0.000000000E0,9.828220367E0,9.828592639E0
1.724229328E0,-9.511470050E-2,-2.392822644E-3,9.854540825E0,9.855000122E0
1.726653703E0,-1.238285750E-1,1.674975827E-2,9.852148056E0,9.852940444E0
1.729077713E0,-1.094716340E-1,4.785645287E-3,9.842576981E0,9.843186911E0
1.731501620E0,-1.142572835E-1,-9.571290575E-3,9.842576981E0,9.843244788E0
1.733926099E0,-1.166501045E-1,-9.571290575E-3,9.840184212E0,9.840880254E0
1.736350526E0,-7.357929647E-2,-1.435693540E-2,9.840184212E0,9.840469773E0
1.738774276E0,-8.315058798E-2,7.178467698E-3,9.859326363E0,9.859679603E0
1.741198390E0,-1.022931710E-1,-1.674975827E-2,9.861719131E0,9.862263872E0
1.743621672E0,-1.094716340E-1,1.196411345E-2,9.866504669E0,9.867119213E0
1.746045838E0,-8.315058798E-2,-0.000000000E0,9.856933594E0,9.857284306E0
1.748470370E0,-1.070788130E-1,-1.196411345E-2,9.849755287E0,9.850344574E0
1.750895109E0,-8.554340899E-2,-7.178467698E-3,9.847362518E0,9.847736683E0
1.753319276E0,-1.118644550E-1,2.392822644E-3,9.847362518E0,9.847998170E0
1.755743234E0,-1.190429255E-1,2.392822644E-3,9.837791443E0,9.838511951E0
1.758167505E0,-8.315058798E-2,-9.571290575E-3,9.844969749E0,9.845325540E0
1.760590942E0,-8.554340899E-2,-9.571290575E-3,9.847362518E0,9.847738718E0
1.763015161E0,-9.990034252E-2,9.571290575E-3,9.835398674E0,9.835910673E0
1.765438390E0,-8.793623000E-2,1.435693540E-2,9.844969749E0,9.845372937E0
1.767861880E0,-1.118644550E-1,-2.392822644E-3,9.840184212E0,9.840820327E0
1.770286099E0,-9.032905847E-2,1.196411345E-2,9.837791443E0,9.838213402E0
1.772710578E0,-1.142572835E-1,4.785645287E-3,9.835398674E0,9.836063476E0
1.775135213E0,-1.142572835E-1,9.571290575E-3,9.837791443E0,9.838459575E0
1.777559276E0,-1.166501045E-1,1.196411345E-2,9.837791443E0,9.838490273E0
1.779983703E0,-1.022931710E-1,7.178467698E-3,9.837791443E0,9.838325869E0
1.782407765E0,-9.272187948E-2,-0.000000000E0,9.849755287E0,9.850191702E0
1.784831359E0,-1.094716340E-1,-4.785645287E-3,9.833005905E0,9.833616429E0
1.787254901E0,-1.166501045E-1,-2.392822690E-2,9.840184212E0,9.840904691E0
1.789679067E0,-1.166501045E-1,-4.785645287E-3,9.849755287E0,9.850447166E0
1.792102713E0,-1.262213886E-1,2.392822644E-3,9.844969749E0,9.845779143E0
1.794526567E0,-1.022931710E-1,1.674975827E-2,9.876076698E0,9.876620647E0
1.796950890E0,-1.262213886E-1,1.196411345E-2,9.830613136E0,9.831430700E0
1.799375005E0,-1.046859920E-1,-7.178467698E-3,9.830613136E0,9.831173141E0
1.801799432E0,-9.511470050E-2,-0.000000000E0,9.859326363E0,9.859785146E0
1.804224067E0,-1.166501045E-1,-1.196411345E-2,9.847362518E0,9.848060670E0
1.806647922E0,-1.046859920E-1,-1.674975827E-2,9.833005905E0,9.833577418E0
1.809072401E0,-9.750752151E-2,1.674975827E-2,9.830613136E0,9.831110970E0
1.811496828E0,-1.094716340E-1,-1.674975827E-2,9.859326363E0,9.859948322E0
1.813920682E0,-1.022931710E-1,1.674975827E-2,9.854540825E0,9.855085962E0
1.816344745E0,-1.166501045E-1,1.435693540E-2,9.835398674E0,9.836100876E0
1.818768651E0,-9.272187948E-2,1.674975827E-2,9.864111900E0,9.864561900E0
1.821192661E0,-9.990034252E-2,2.153540403E-2,9.852148056E0,9.852678071E0
1.823616828E0,-1.094716340E-1,1.435693540E-2,9.859326363E0,9.859944548E0
1.826040942E0,-1.381855011E-1,-4.785645287E-3,9.849755287E0,9.850725727E0
1.828465890E0,-1.142572835E-1,2.153540403E-2,9.856933594E0,9.857619305E0
1.830889901E0,-1.118644550E-1,9.571290575E-3,9.835398674E0,9.836039464E0
1.833313755E0,-1.046859920E-1,2.632104978E-2,9.866504669E0,9.867095132E0
1.835737297E0,-1.118644550E-1,2.153540403E-2,9.849755287E0,9.850414034E0
1.838160630E0,-1.118644550E-1,4.785645287E-3,9.852148056E0,9.852784270E0
1.840584640E0,-1.046859920E-1,2.392822644E-3,9.847362518E0,9.847919245E0
1.843009015E0,-9.990034252E-2,2.392822690E-2,9.842576981E0,9.843113037E0
1.845433026E0,-9.750752151E-2,2.153540403E-2,9.837791443E0,9.838298225E0
1.847857088E0,-8.793623000E-2,7.178467698E-3,9.859326363E0,9.859721124E0
1.850281203E0,-1.022931710E-1,2.392822644E-3,9.866504669E0,9.867035219E0
1.852705005E0,-1.070788130E-1,-2.392822644E-3,9.837791443E0,9.838374463E0
1.855128078E0,-1.286142170E-1,1.196411345E-2,9.854540825E0,9.855387340E0
1.857552297E0,-1.310070455E-1,4.785645287E-3,9.847362518E0,9.848235086E0
1.859975161E0,-1.166501045E-1,2.392822644E-3,9.840184212E0,9.840875891E0
1.862398859E0,-9.990034252E-2,7.178467698E-3,9.818648338E0,9.819159170E0
1.864823703E0,-1.070788130E-1,1.674975827E-2,9.825826645E0,9.826424359E0
1.867248390E0,-9.990034252E-2,-0.000000000E0,9.859326363E0,9.859832473E0
1.869672557E0,-1.022931710E-1,4.785645287E-3,9.849755287E0,9.850287611E0
1.872096515E0,-1.190429255E-1,7.178467698E-3,9.854540825E0,9.855262433E0
1.874520370E0,-1.046859920E-1,-7.178467698E-3,9.847362518E0,9.847921570E0
1.876944901E0,-9.511470050E-2,2.871387079E-2,9.852148056E0,9.852649015E0
1.879369224E0,-1.046859920E-1,4.785645287E-3,9.849755287E0,9.850312750E0
1.881793442E0,-1.262213886E-1,7.178467698E-3,9.840184212E0,9.840996326E0
1.884217817E0,-1.166501045E-1,3.110669367E-2,9.849755287E0,9.850495119E0
1.886642088E0,-9.990034252E-2,1.914258115E-2,9.847362518E0,9.847887849E0
1.889065995E0,-9.990034252E-2,1.435693540E-2,9.854540825E0,9.855057639E0
1.891490109E0,-7.597211748E-2,4.785645287E-3,9.847362518E0,9.847656738E0
1.893913963E0,-9.272187948E-2,9.571290575E-3,9.840184212E0,9.840625706E0
1.896338078E0,-1.046859920E-1,-0.000000000E0,9.861719131E0,9.862274757E0
1.898762661E0,-1.166501045E-1,-1.435693540E-2,9.835398674E0,9.836100876E0
1.901188182E0,-9.511470050E-2,-9.571290575E-3,9.849755287E0,9.850219167E0
1.903612453E0,-9.990034252E-2,1.674975827E-2,9.849755287E0,9.850276131E0
1.906036620E0,-1.381855011E-1,4.785645287E-3,9.847362518E0,9.848333194E0
1.908461307E0,-9.272187948E-2,1.196411345E-2,9.842576981E0,9.843020985E0
1.910885734E0,-8.315058798E-2,-0.000000000E0,9.835398674E0,9.835750154E0
1.913309484E0,-1.046859920E-1,4.785645287E-3,9.835398674E0,9.835956951E0
1.915732922E0,-1.214357466E-1,-2.392822644E-3,9.842576981E0,9.843326368E0
1.918157140E0,-1.286142170E-1,-2.392822644E-3,9.844969749E0,9.845810109E0
1.920581099E0,-1.022931710E-1,-1.674975827E-2,9.856933594E0,9.857478598E0
1.923004901E0,-1.046859920E-1,9.571290575E-3,9.859326363E0,9.859886769E0
1.925429588E0,-1.070788130E-1,-7.178467698E-3,9.873683929E0,9.874267150E0
1.927853703E0,-1.118644550E-1,2.392822644E-3,9.856933594E0,9.857568628E0
1.930277974E0,-9.990034252E-2,2.392822690E-2,9.847362518E0,9.847898314E0
1.932702505E0,-1.094716340E-1,-1.196411345E-2,9.856933594E0,9.857548734E0
1.935127088E0,-1.166501045E-1,-0.000000000E0,9.861719131E0,9.862409010E0
1.937552036E0,-1.094716340E-1,7.178467698E-3,9.840184212E0,9.840795745E0
1.939976567E0,-1.094716340E-1,7.178467698E-3,9.852148056E0,9.852758846E0
1.942400890E0,-9.750752151E-2,3.110669367E-2,9.859326363E0,9.859857589E0
1.944825265E0,-8.075776696E-2,2.153540403E-2,9.844969749E0,9.845324523E0
1.947249276E0,-1.094716340E-1,1.196411345E-2,9.859326363E0,9.859941354E0
1.949672609E0,-1.429711580E-1,-2.392822644E-3,9.854540825E0,9.855578184E0
1.952096672E0,-1.310070455E-1,-1.196411345E-2,9.833005905E0,9.833885860E0
1.954521463E0,-1.238285750E-1,4.785645287E-3,9.849755287E0,9.850534789E0
1.956945526E0,-9.990034252E-2,2.871387079E-2,9.852148056E0,9.852696376E0
1.959370474E0,-1.094716340E-1,4.785645287E-3,9.852148056E0,9.852757394E0
1.961794432E0,-9.272187948E-2,7.178467698E-3,9.830613136E0,9.831053022E0
1.964218390E0,-6.879365444E-2,-9.571290575E-3,9.861719131E0,9.861963719E0
1.966642036E0,-9.750752151E-2,2.632104978E-2,9.852148056E0,9.852665722E0
1.969066151E0,-1.166501045E-1,7.178467698E-3,9.837791443E0,9.838485618E0
1.971490265E0,-1.118644550E-1,9.571290575E-3,9.842576981E0,9.843217304E0
1.973913911E0,-1.046859920E-1,-0.000000000E0,9.852148056E0,9.852704221E0
1.976337974E0,-1.262213886E-1,7.178467698E-3,9.852148056E0,9.852959184E0
1.978761411E0,-1.142572835E-1,2.392822690E-2,9.844969749E0,9.845661819E0
1.981185265E0,-8.793623000E-2,-0.000000000E0,9.854540825E0,9.854933163E0
1.983608755E0,-9.032905847E-2,1.435693540E-2,9.861719131E0,9.862143260E0
1.986032817E0,-9.511470050E-2,4.785645287E-3,9.849755287E0,9.850215679E0
1.988456359E0,-9.990034252E-2,-2.392822644E-3,9.842576981E0,9.843084243E0
1.990880370E0,-8.554340899E-2,-1.435693540E-2,9.842576981E0,9.842959180E0
1.993303911E0,-8.554340899E-2,1.435693540E-2,9.861719131E0,9.862100589E0
1.995728390E0,-1.070788130E-1,1.196411345E-2,9.849755287E0,9.850344574E0
1.998153026E0,-9.511470050E-2,2.392822644E-3,9.854540825E0,9.855000122E0
2.000577557E0,-1.022931710E-1,2.153540403E-2,9.835398674E0,9.835954186E0
2.003001255E0,-1.022931710E-1,9.571290575E-3,9.849755287E0,9.850291098E0
2.005425005E0,-1.070788130E-1,-4.785645287E-3,9.835398674E0,9.835982709E0
2.007848547E0,-1.310070455E-1,2.871387079E-2,9.830613136E0,9.831527957E0
2.010273286E0,-9.990034252E-2,-7.178467698E-3,9.847362518E0,9.847871860E0
2.012697297E0,-8.793623000E-2,1.435693540E-2,9.854540825E0,9.854943621E0
2.015121099E0,-7.357929647E-2,2.153540403E-2,9.842576981E0,9.842875561E0
2.017544953E0,-9.750752151E-2,2.392822690E-2,9.847362518E0,9.847874331E0
2.019969120E0,-1.238285750E-1,1.196411345E-2,9.854540825E0,9.855326049E0
2.022393026E0,-9.990034252E-2,2.153540403E-2,9.833005905E0,9.833536952E0
2.024817349E0,-9.990034252E-2,-0.000000000E0,9.835398674E0,9.835906016E0
2.027241828E0,-1.094716340E-1,7.178467698E-3,9.825826645E0,9.826439071E0
2.029665682E0,-1.238285750E-1,2.153540403E-2,9.816255569E0,9.817060186E0
2.032090265E0,-9.990034252E-2,2.392822644E-3,9.856933594E0,9.857440118E0
2.034514015E0,-1.046859920E-1,-0.000000000E0,9.828220367E0,9.828777887E0
2.036938286E0,-1.190429255E-1,1.674975827E-2,9.847362518E0,9.848096280E0
2.039361672E0,-1.046859920E-1,-2.392822644E-3,9.842576981E0,9.843133978E0
2.041785422E0,-9.750752151E-2,-0.000000000E0,9.823433876E0,9.823917795E0
2.044209588E0,-1.118644550E-1,-2.392822644E-3,9.842576981E0,9.843212941E0
2.046634276E0,-9.272187948E-2,1.435693540E-2,9.830613136E0,9.831060884E0
2.049058859E0,-1.310070455E-1,1.435693540E-2,9.842576981E0,9.843459279E0
2.051483078E0,-1.070788130E-1,-2.871387079E-2,9.844969749E0,9.845593925E0
2.053906984E0,-1.190429255E-1,-1.674975827E-2,9.866504669E0,9.867237007E0
2.056330942E0,-1.166501045E-1,-1.674975827E-2,9.852148056E0,9.852852842E0
2.058754588E0,-1.142572835E-1,1.674975827E-2,9.849755287E0,9.850432199E0
2.061178390E0,-1.046859920E-1,1.914258115E-2,9.835398674E0,9.835974414E0
2.063602088E0,-1.118644550E-1,-0.000000000E0,9.830613136E0,9.831249579E0
2.066025630E0,-1.190429255E-1,4.785645287E-3,9.866504669E0,9.867223951E0
2.068449380E0,-9.990034252E-2,-2.153540403E-2,9.854540825E0,9.855070711E0
2.070873390E0,-9.990034252E-2,-0.000000000E0,9.840184212E0,9.840691307E0
2.073297140E0,-1.022931710E-1,-4.785645287E-3,9.830613136E0,9.831146496E0
2.075721099E0,-9.750752151E-2,-7.178467698E-3,9.835398674E0,9.835884623E0
2.078144745E0,-9.511470050E-2,9.571290575E-3,9.849755287E0,9.850219167E0
2.080568599E0,-1.286142170E-1,-1.674975827E-2,9.842576981E0,9.843431505E0
2.082992192E0,-9.750752151E-2,9.571290575E-3,9.840184212E0,9.840671961E0
2.085415890E0,-9.990034252E-2,2.632104978E-2,9.844969749E0,9.845511782E0
2.087839745E0,-1.118644550E-1,7.178467698E-3,9.849755287E0,9.850393109E0
2.090263651E0,-9.032905847E-2,3.110669367E-2,9.856933594E0,9.857396555E0
2.092687453E0,-1.118644550E-1,2.153540403E-2,9.840184212E0,9.840843600E0
2.095111203E0,-7.836493850E-2,1.674975827E-2,9.849755287E0,9.850081260E0
2.097535213E0,-1.094716340E-1,2.153540403E-2,9.849755287E0,9.850387151E0
2.099959276E0,-9.990034252E-2,4.785645287E-3,9.861719131E0,9.862226281E0
2.102383078E0,-9.990034252E-2,-2.392822644E-3,9.864111900E0,9.864618056E0
2.104806567E0,-8.793623000E-2,1.674975827E-2,9.835398674E0,9.835806038E0
2.107231255E0,-1.070788130E-1,9.571290575E-3,9.847362518E0,9.847949332E0
2.109656359E0,-9.511470050E-2,-0.000000000E0,9.825826645E0,9.826286993E0
2.112080942E0,-1.118644550E-1,-2.392822644E-3,9.852148056E0,9.852783399E0
2.114505786E0,-1.046859920E-1,9.571290575E-3,9.852148056E0,9.852708870E0
2.116930161E0,-1.118644550E-1,-2.392822644E-3,9.825826645E0,9.826463689E0
2.119354276E0,-1.238285750E-1,9.571290575E-3,9.844969749E0,9.845753120E0
2.121778286E0,-1.142572835E-1,1.435693540E-2,9.861719131E0,9.862391448E0
2.124201724E0,-1.118644550E-1,-9.571290575E-3,9.837791443E0,9.838432077E0
2.126626203E0,-1.142572835E-1,-9.571290575E-3,9.852148056E0,9.852815215E0
2.129050474E0,-1.022931710E-1,2.153540403E-2,9.849755287E0,9.850309989E0
2.131474953E0,-7.836493850E-2,-7.178467698E-3,9.842576981E0,9.842891558E0
2.133898911E0,-9.990034252E-2,-7.178467698E-3,9.844969749E0,9.845479215E0
2.136322505E0,-9.990034252E-2,1.674975827E-2,9.859326363E0,9.859846700E0
2.138746984E0,-8.793623000E-2,1.435693540E-2,9.842576981E0,9.842980266E0
2.141171255E0,-1.166501045E-1,-9.571290575E-3,9.852148056E0,9.852843253E0
2.143595213E0,-1.190429255E-1,-4.785645287E-3,9.847362518E0,9.848083199E0
2.146019224E0,-1.022931710E-1,7.178467698E-3,9.840184212E0,9.840718508E0
2.148443078E0,-1.070788130E-1,1.196411345E-2,9.868897438E0,9.869485582E0
2.150866880E0,-1.142572835E-1,-0.000000000E0,9.840184212E0,9.840847527E0
2.153290838E0,-1.238285750E-1,-1.196411345E-2,9.849755287E0,9.850540892E0
2.155715317E0,-9.750752151E-2,-0.000000000E0,9.847362518E0,9.847845261E0
2.158138755E0,-1.166501045E-1,1.674975827E-2,9.866504669E0,9.867208429E0
2.160562192E0,-1.070788130E-1,7.178467698E-3,9.842576981E0,9.843162044E0
2.162986203E0,-1.214357466E-1,-2.392822644E-3,9.835398674E0,9.836148608E0
2.165410474E0,-1.070788130E-1,2.153540403E-2,9.849755287E0,9.850360849E0
2.167834640E0,-8.554340899E-2,-2.392822644E-3,9.847362518E0,9.847734357E0
2.170259224E0,-1.118644550E-1,4.785645287E-3,9.859326363E0,9.859962114E0
2.172683547E0,-1.046859920E-1,7.178467698E-3,9.866504669E0,9.867062637E0
2.175108338E0,-1.094716340E-1,-7.178467698E-3,9.840184212E0,9.840795745E0
2.177532505E0,-9.990034252E-2,-9.571290575E-3,9.828220367E0,9.828732740E0
2.179956932E0,-1.142572835E-1,2.392822644E-3,9.830613136E0,9.831277388E0
2.182381411E0,-1.214357466E-1,3.349951655E-2,9.842576981E0,9.843383081E0
2.184805005E0,-1.094716340E-1,-0.000000000E0,9.825826645E0,9.826436449E0
2.187228859E0,-8.075776696E-2,-2.392822644E-3,9.859326363E0,9.859657391E0
2.189653130E0,-7.118647546E-2,1.435693540E-2,9.888040543E0,9.888307206E0
2.192077349E0,-1.046859920E-1,-9.571290575E-3,9.871291161E0,9.871850887E0
2.194501620E0,-9.750752151E-2,7.178467698E-3,9.847362518E0,9.847847877E0
2.196925942E0,-9.272187948E-2,1.914258115E-2,9.830613136E0,9.831069038E0
2.199349745E0,-1.142572835E-1,-0.000000000E0,9.842576981E0,9.843240135E0
2.201773703E0,-1.022931710E-1,2.871387079E-2,9.849755287E0,9.850328299E0
2.204198078E0,-1.022931710E-1,2.153540403E-2,9.849755287E0,9.850309989E0
2.206622922E0,-1.190429255E-1,1.435693540E-2,9.854540825E0,9.855270276E0
2.209047245E0,-8.554340899E-2,-0.000000000E0,9.849755287E0,9.850126745E0
2.211470995E0,-1.166501045E-1,-4.785645287E-3,9.864111900E0,9.864802772E0
2.213895317E0,-1.046859920E-1,1.435693540E-2,9.844969749E0,9.845536788E0
2.216319328E0,-8.315058798E-2,1.196411345E-2,9.856933594E0,9.857291567E0
2.218742609E0,-1.118644550E-1,2.392822690E-2,9.835398674E0,9.836063913E0
2.221166359E0,-1.190429255E-1,4.785645287E-3,9.830613136E0,9.831335044E0
2.223590942E0,-8.793623000E-2,7.178467698E-3,9.840184212E0,9.840579741E0
2.226015005E0,-9.990034252E-2,2.392822644E-3,9.854540825E0,9.855047472E0
2.228438599E0,-1.262213886E-1,-2.392822644E-3,9.847362518E0,9.848171715E0
2.230862557E0,-1.190429255E-1,9.571290575E-3,9.842576981E0,9.843301501E0
2.233287765E0,-9.750752151E-2,1.196411345E-2,9.837791443E0,9.838281930E0
2.235712140E0,-1.262213886E-1,2.632104978E-2,9.847362518E0,9.848206598E0
2.238136567E0,-1.238285750E-1,2.153540403E-2,9.854540825E0,9.855342316E0
2.240560109E0,-1.070788130E-1,-9.571290575E-3,9.825826645E0,9.826414745E0
2.242984692E0,-9.511470050E-2,-7.178467698E-3,9.854540825E0,9.855002446E0
2.245408234E0,-1.214357466E-1,1.196411345E-2,9.835398674E0,9.836155593E0
2.247832245E0,-1.166501045E-1,2.632104978E-2,9.842576981E0,9.843303392E0
2.250256307E0,-1.190429255E-1,-7.178467698E-3,9.828220367E0,9.828943908E0
2.252680370E0,-1.070788130E-1,-9.571290575E-3,9.844969749E0,9.845556706E0
2.255104015E0,-8.554340899E-2,-4.785645287E-3,9.844969749E0,9.845342551E0
2.257527713E0,-1.070788130E-1,-2.392822644E-3,9.833005905E0,9.833589209E0
2.259951776E0,-9.990034252E-2,9.571290575E-3,9.847362518E0,9.847873895E0
2.262375370E0,-1.046859920E-1,7.178467698E-3,9.842576981E0,9.843136304E0
2.264799224E0,-1.214357466E-1,1.435693540E-2,9.830613136E0,9.831373627E0
2.267223338E0,-1.142572835E-1,-1.914258115E-2,9.854540825E0,9.855221765E0
2.269647765E0,-1.070788130E-1,4.785645287E-3,9.844969749E0,9.845553217E0
2.272071620E0,-8.315058798E-2,9.571290575E-3,9.837791443E0,9.838147493E0
2.274495057E0,-9.990034252E-2,9.571290575E-3,9.847362518E0,9.847873895E0
2.276919224E0,-1.046859920E-1,2.392822690E-2,9.830613136E0,9.831199640E0
2.279342713E0,-1.214357466E-1,-9.571290575E-3,9.840184212E0,9.840938145E0
2.281766411E0,-1.070788130E-1,7.178467698E-3,9.840184212E0,9.840769417E0
2.284190526E0,-9.511470050E-2,7.178467698E-3,9.859326363E0,9.859787759E0
2.286614745E0,-9.750752151E-2,2.392822690E-2,9.861719131E0,9.862230199E0
2.289038911E0,-1.046859920E-1,-7.178467698E-3,9.852148056E0,9.852706836E0
2.291462401E0,-1.070788130E-1,-0.000000000E0,9.861719131E0,9.862300447E0
2.293886411E0,-1.094716340E-1,1.196411345E-2,9.837791443E0,9.838407780E0
2.296310474E0,-1.022931710E-1,1.435693540E-2,9.868897438E0,9.869438011E0
2.298734328E0,-9.511470050E-2,2.392822644E-3,9.847362518E0,9.847822150E0
2.301158442E0,-1.070788130E-1,1.196411345E-2,9.847362518E0,9.847951948E0
2.303582609E0,-1.238285750E-1,1.435693540E-2,9.837791443E0,9.838581204E0
2.306006307E0,-1.022931710E-1,2.392822644E-3,9.828220367E0,9.828752983E0
2.308430578E0,-1.166501045E-1,-0.000000000E0,9.852148056E0,9.852838604E0
2.310854120E0,-8.554340899E-2,-2.392822644E-3,9.844969749E0,9.845341679E0
2.313277870E0,-9.990034252E-2,1.435693540E-2,9.849755287E0,9.850272352E0
2.315701567E0,-1.214357466E-1,9.571290575E-3,9.847362518E0,9.848115902E0
2.318125786E0,-1.142572835E-1,9.571290575E-3,9.833005905E0,9.833674362E0
2.320549953E0,-9.990034252E-2,2.392822690E-2,9.849755287E0,9.850290953E0
2.322974328E0,-1.118644550E-1,2.392822644E-3,9.859326363E0,9.859961243E0
2.325398338E0,-1.022931710E-1,-1.674975827E-2,9.840184212E0,9.840730144E0
2.327822505E0,-1.118644550E-1,-1.196411345E-2,9.859326363E0,9.859968211E0
2.330246463E0,-9.990034252E-2,1.914258115E-2,9.852148056E0,9.852673131E0
2.332670630E0,-1.022931710E-1,4.785645287E-3,9.852148056E0,9.852680250E0
2.335094692E0,-9.272187948E-2,1.674975827E-2,9.849755287E0,9.850205943E0
2.337519172E0,-9.511470050E-2,7.178467698E-3,9.847362518E0,9.847824476E0
2.339943547E0,-9.032905847E-2,-7.178467698E-3,9.847362518E0,9.847779417E0
2.342367922E0,-1.190429255E-1,4.785645287E-3,9.842576981E0,9.843298011E0
2.344792245E0,-1.022931710E-1,-7.178467698E-3,9.861719131E0,9.862252261E0
2.347216620E0,-1.118644550E-1,9.571290575E-3,9.837791443E0,9.838432077E0
2.349641463E0,-1.070788130E-1,2.392822644E-3,9.854540825E0,9.855122854E0
2.352066307E0,-9.272187948E-2,7.178467698E-3,9.847362518E0,9.847801655E0
2.354490682E0,-9.272187948E-2,2.153540403E-2,9.856933594E0,9.857393215E0
2.356915317E0,-1.022931710E-1,9.571290575E-3,9.844969749E0,9.845505821E0
2.359339380E0,-1.190429255E-1,-3.589234129E-2,9.835398674E0,9.836184553E0
2.361763390E0,-1.046859920E-1,-2.392822644E-3,9.830613136E0,9.831170811E0
2.364187609E0,-8.554340899E-2,2.632104978E-2,9.876076698E0,9.876482239E0
2.366612036E0,-1.166501045E-1,2.632104978E-2,9.861719131E0,9.862444133E0
2.369036151E0,-1.118644550E-1,7.178467698E-3,9.854540825E0,9.855178337E0
2.371460265E0,-9.750752151E-2,2.871387079E-2,9.849755287E0,9.850279764E0
2.373884484E0,-9.272187948E-2,-2.392822644E-3,9.847362518E0,9.847799330E0
2.376308651E0,-9.990034252E-2,2.392822644E-3,9.849755287E0,9.850262180E0
2.378732557E0,-1.070788130E-1,-2.392822644E-3,9.840184212E0,9.840767090E0
2.381156515E0,-1.142572835E-1,1.914258115E-2,9.849755287E0,9.850436558E0
2.383580734E0,-1.166501045E-1,1.196411345E-2,9.840184212E0,9.840882872E0
2.386003911E0,-1.429711580E-1,1.196411345E-2,9.856933594E0,9.857977671E0
2.388427401E0,-1.214357466E-1,9.571290575E-3,9.840184212E0,9.840938145E0
2.390851567E0,-1.070788130E-1,-9.571290575E-3,9.837791443E0,9.838378828E0
2.393275526E0,-1.118644550E-1,9.571290575E-3,9.859326363E0,9.859965598E0
2.395699067E0,-9.990034252E-2,1.435693540E-2,9.861719131E0,9.862235569E0
2.398122922E0,-9.032905847E-2,2.392822644E-3,9.852148056E0,9.852562427E0
2.400546984E0,-1.238285750E-1,2.392822690E-2,9.833005905E0,9.833814682E0
2.402971255E0,-8.315058798E-2,7.178467698E-3,9.842576981E0,9.842930822E0
2.405395734E0,-1.166501045E-1,4.785645287E-3,9.856933594E0,9.857624969E0
2.407820161E0,-9.511470050E-2,7.178467698E-3,9.849755287E0,9.850217132E0
2.410244432E0,-9.750752151E-2,-2.392822644E-3,9.833005905E0,9.833489644E0
2.412669067E0,-1.022931710E-1,1.674975827E-2,9.844969749E0,9.845515416E0
2.415093651E0,-1.070788130E-1,4.785645287E-3,9.854540825E0,9.855123725E0
2.417517922E0,-1.094716340E-1,1.435693540E-2,9.830613136E0,9.831233127E0
2.419942297E0,-1.046859920E-1,7.178467698E-3,9.842576981E0,9.843136304E0
2.422367036E0,-1.022931710E-1,1.196411345E-2,9.833005905E0,9.833545249E0
2.424791047E0,-8.315058798E-2,-9.571290575E-3,9.835398674E0,9.835754811E0
2.427215213E0,-9.750752151E-2,-2.392822644E-3,9.825826645E0,9.826310737E0
2.429639380E0,-1.070788130E-1,-9.571290575E-3,9.852148056E0,9.852734585E0
2.432063911E0,-1.262213886E-1,2.392822690E-2,9.837791443E0,9.838630234E0
2.434488026E0,-9.272187948E-2,-4.785645287E-3,9.854540825E0,9.854978190E0
2.436911984E0,-1.022931710E-1,-7.178467698E-3,9.852148056E0,9.852681703E0
2.439336047E0,-1.070788130E-1,-1.435693540E-2,9.844969749E0,9.845562521E0
2.441760682E0,-9.750752151E-2,-2.153540403E-2,9.852148056E0,9.852654100E0
2.444185005E0,-1.166501045E-1,-7.178467698E-3,9.854540825E0,9.855233820E0
2.446608547E0,-1.022931710E-1,-0.000000000E0,9.844969749E0,9.845501169E0
2.449032401E0,-1.046859920E-1,9.571290575E-3,9.844969749E0,9.845530973E0
2.451457661E0,-1.022931710E-1,-2.392822690E-2,9.837791443E0,9.838352348E0
2.453882140E0,-1.142572835E-1,2.392822644E-3,9.852148056E0,9.852810856E0
2.456306672E0,-1.142572835E-1,1.674975827E-2,9.854540825E0,9.855217408E0
2.458731411E0,-1.214357466E-1,-1.196411345E-2,9.835398674E0,9.836155593E0
2.461155370E0,-1.214357466E-1,-7.178467698E-3,9.847362518E0,9.848113867E0
2.463579849E0,-1.022931710E-1,2.392822644E-3,9.852148056E0,9.852679379E0
2.466003859E0,-9.990034252E-2,2.153540403E-2,9.835398674E0,9.835929591E0
2.468427765E0,-1.094716340E-1,4.785645287E-3,9.842576981E0,9.843186911E0
2.470851880E0,-1.022931710E-1,1.435693540E-2,9.849755287E0,9.850296911E0
2.473275422E0,-1.070788130E-1,2.392822644E-3,9.866504669E0,9.867085993E0
2.475699380E0,-1.238285750E-1,1.674975827E-2,9.837791443E0,9.838584987E0
2.478124432E0,-1.070788130E-1,4.785645287E-3,9.859326363E0,9.859908980E0
2.480549484E0,-1.357926875E-1,-0.000000000E0,9.852148056E0,9.853083831E0
2.482974067E0,-8.554340899E-2,2.392822644E-3,9.866504669E0,9.866875787E0
2.485398130E0,-9.032905847E-2,2.392822644E-3,9.847362518E0,9.847777091E0
2.487822036E0,-8.554340899E-2,1.674975827E-2,9.837791443E0,9.838177611E0
2.490246099E0,-1.214357466E-1,-2.392822644E-3,9.852148056E0,9.852896715E0
2.492670630E0,-1.094716340E-1,9.571290575E-3,9.864111900E0,9.864723981E0
2.495094849E0,-9.990034252E-2,-2.392822644E-3,9.833005905E0,9.833513662E0
2.497518651E0,-1.094716340E-1,-2.392822644E-3,9.852148056E0,9.852756522E0
2.499942765E0,-1.142572835E-1,2.392822644E-3,9.837791443E0,9.838455210E0
2.502367297E0,-1.070788130E-1,-4.785645287E-3,9.849755287E0,9.850338471E0
2.504791672E0,-1.046859920E-1,-9.571290575E-3,9.837791443E0,9.838353076E0
2.507216255E0,-1.118644550E-1,4.785645287E-3,9.825826645E0,9.826464563E0
2.509640890E0,-1.166501045E-1,-1.196411345E-2,9.854540825E0,9.855238468E0
2.512064953E0,-9.990034252E-2,-4.785645287E-3,9.847362518E0,9.847870407E0
2.514488807E0,-1.214357466E-1,1.196411345E-2,9.840184212E0,9.840940763E0
2.516912713E0,-1.190429255E-1,9.571290575E-3,9.852148056E0,9.852871873E0
2.519336515E0,-1.190429255E-1,-1.435693540E-2,9.840184212E0,9.840914727E0
2.521761411E0,-1.118644550E-1,1.196411345E-2,9.840184212E0,9.840827309E0
2.524185213E0,-1.166501045E-1,-9.571290575E-3,9.830613136E0,9.831309856E0
2.526609640E0,-1.022931710E-1,-1.914258115E-2,9.830613136E0,9.831163968E0
2.529034484E0,-1.238285750E-1,-4.785645287E-3,9.849755287E0,9.850534789E0
2.531459172E0,-1.262213886E-1,2.392822644E-3,9.837791443E0,9.838601427E0
2.533883703E0,-1.166501045E-1,-1.196411345E-2,9.849755287E0,9.850453269E0
2.536307661E0,-8.793623000E-2,7.178467698E-3,9.854540825E0,9.854935778E0
2.538731567E0,-9.750752151E-2,2.392822644E-3,9.859326363E0,9.859808810E0
2.541155526E0,-8.793623000E-2,4.785645287E-3,9.861719131E0,9.862112345E0
2.543579172E0,-1.094716340E-1,-4.785645287E-3,9.837791443E0,9.838401670E0
2.546003390E0,-9.990034252E-2,2.153540403E-2,9.837791443E0,9.838322231E0
2.548428078E0,-7.597211748E-2,9.571290575E-3,9.844969749E0,9.845267530E0
2.550852036E0,-9.511470050E-2,9.571290575E-3,9.830613136E0,9.831077919E0
2.553276724E0,-9.511470050E-2,9.571290575E-3,9.840184212E0,9.840648542E0
2.555701672E0,-1.310070455E-1,2.632104978E-2,9.840184212E0,9.841091452E0
2.558126567E0,-1.046859920E-1,-4.785645287E-3,9.835398674E0,9.835956951E0
2.560551047E0,-1.070788130E-1,-1.914258115E-2,9.833005905E0,9.833607550E0
2.562975474E0,-1.190429255E-1,-4.785645287E-3,9.840184212E0,9.840905418E0
2.565399432E0,-1.118644550E-1,1.435693540E-2,9.844969749E0,9.845615732E0
2.567823442E0,-9.511470050E-2,-2.392822644E-3,9.849755287E0,9.850214807E0
2.570247192E0,-9.750752151E-2,-4.785645287E-3,9.849755287E0,9.850239075E0
2.572671203E0,-1.238285750E-1,2.392822644E-3,9.837791443E0,9.838571020E0
2.575095370E0,-1.094716340E-1,3.349951655E-2,9.842576981E0,9.843242752E0
2.577518547E0,-9.990034252E-2,-7.178467698E-3,9.840184212E0,9.840693925E0
2.579942245E0,-9.511470050E-2,-2.392822644E-3,9.840184212E0,9.840644179E0
2.582366776E0,-1.190429255E-1,2.392822690E-2,9.823433876E0,9.824184286E0
2.584791047E0,-1.214357466E-1,4.785645287E-3,9.842576981E0,9.843327240E0
2.587214432E0,-1.118644550E-1,-7.178467698E-3,9.861719131E0,9.862356180E0
2.589637974E0,-1.094716340E-1,-4.785645287E-3,9.859326363E0,9.859935257E0
2.592061620E0,-9.990034252E-2,4.785645287E-3,9.856933594E0,9.857440989E0
2.594485317E0,-1.190429255E-1,-1.196411345E-2,9.844969749E0,9.845696711E0
2.596909849E0,-9.272187948E-2,-2.392822644E-3,9.852148056E0,9.852584655E0
2.599334536E0,-9.750752151E-2,-7.178467698E-3,9.849755287E0,9.850240528E0
2.601759328E0,-1.333998591E-1,-2.392822690E-2,9.859326363E0,9.860257827E0
2.604183703E0,-1.046859920E-1,-2.392822690E-2,9.861719131E0,9.862303785E0
2.606608234E0,-1.214357466E-1,1.196411345E-2,9.842576981E0,9.843333348E0
2.609032453E0,-1.070788130E-1,7.178467698E-3,9.828220367E0,9.828806285E0
2.611456411E0,-1.046859920E-1,1.674975827E-2,9.852148056E0,9.852718459E0
2.613880995E0,-1.070788130E-1,1.674975827E-2,9.842576981E0,9.843173678E0
2.616304745E0,-1.094716340E-1,-0.000000000E0,9.842576981E0,9.843185747E0
2.618728807E0,-1.214357466E-1,1.435693540E-2,9.837791443E0,9.838551379E0
2.621152922E0,-1.070788130E-1,-1.196411345E-2,9.818648338E0,9.819239492E0
2.623577505E0,-9.272187948E-2,-7.178467698E-3,9.852148056E0,9.852586980E0
2.626002036E0,-9.990034252E-2,4.785645287E-3,9.859326363E0,9.859833635E0
2.628425838E0,-9.511470050E-2,-2.392822644E-3,9.840184212E0,9.840644179E0
2.630850005E0,-1.046859920E-1,1.196411345E-2,9.828220367E0,9.828785168E0
2.633273651E0,-1.214357466E-1,2.871387079E-2,9.833005905E0,9.833797652E0
2.635697870E0,-8.554340899E-2,1.674975827E-2,9.821041107E0,9.821427934E0
2.638122974E0,-1.118644550E-1,9.571290575E-3,9.859326363E0,9.859965598E0
2.640547349E0,-8.554340899E-2,2.392822644E-3,9.847362518E0,9.847734357E0
2.642971672E0,-1.118644550E-1,1.435693540E-2,9.844969749E0,9.845615732E0
2.645395838E0,-1.166501045E-1,9.571290575E-3,9.861719131E0,9.862413654E0
2.647819692E0,-1.070788130E-1,2.392822644E-3,9.847362518E0,9.847944972E0
2.650243703E0,-1.286142170E-1,4.785645287E-3,9.816255569E0,9.817099262E0
2.652667870E0,-1.070788130E-1,-2.153540403E-2,9.835398674E0,9.836005120E0
2.655092349E0,-9.511470050E-2,-0.000000000E0,9.840184212E0,9.840643888E0
2.657516307E0,-1.118644550E-1,1.674975827E-2,9.854540825E0,9.855189957E0
2.659940890E0,-1.022931710E-1,4.546362907E-2,9.861719131E0,9.862354438E0
2.662365005E0,-1.022931710E-1,7.178467698E-3,9.842576981E0,9.843111146E0
2.664789432E0,-9.272187948E-2,1.914258115E-2,9.835398674E0,9.835854353E0
2.667213807E0,-1.094716340E-1,1.435693540E-2,9.852148056E0,9.852766692E0
2.669637765E0,-1.118644550E-1,4.785645287E-3,9.840184212E0,9.840821199E0
2.672062192E0,-1.166501045E-1,7.178467698E-3,9.842576981E0,9.843270818E0
2.674487140E0,-1.142572835E-1,1.674975827E-2,9.823433876E0,9.824112601E0
2.676911255E0,-1.046859920E-1,-0.000000000E0,9.830613136E0,9.831170520E0
2.679335474E0,-1.094716340E-1,-1.435693540E-2,9.856933594E0,9.857551929E0
2.681760161E0,-1.070788130E-1,1.196411345E-2,9.837791443E0,9.838381446E0
2.684184692E0,-9.990034252E-2,-9.571290575E-3,9.868897438E0,9.869407699E0
2.686609276E0,-9.272187948E-2,1.674975827E-2,9.856933594E0,9.857383921E0
2.689033130E0,-1.046859920E-1,-0.000000000E0,9.830613136E0,9.831170520E0
2.691456255E0,-1.022931710E-1,-0.000000000E0,9.844969749E0,9.845501169E0
2.693879588E0,-1.070788130E-1,7.178467698E-3,9.859326363E0,9.859910432E0
2.696303130E0,-9.990034252E-2,2.153540403E-2,9.854540825E0,9.855070711E0
2.698726672E0,-1.142572835E-1,9.571290575E-3,9.849755287E0,9.850422608E0
2.701150942E0,-1.046859920E-1,1.674975827E-2,9.847362518E0,9.847933198E0
2.703575578E0,-9.511470050E-2,9.571290575E-3,9.844969749E0,9.845433855E0
2.705999328E0,-1.094716340E-1,2.392822690E-2,9.823433876E0,9.824072970E0
2.708423755E0,-9.511470050E-2,4.067798331E-2,9.852148056E0,9.852691146E0
2.710848442E0,-1.070788130E-1,1.435693540E-2,9.844969749E0,9.845562521E0
2.713272036E0,-9.511470050E-2,2.392822644E-3,9.852148056E0,9.852607465E0
2.715696307E0,-8.793623000E-2,-7.178467698E-3,9.852148056E0,9.852543105E0
2.718119849E0,-1.381855011E-1,4.785645287E-3,9.844969749E0,9.845940661E0
2.720543547E0,-1.238285750E-1,-4.785645287E-3,9.835398674E0,9.836179314E0
2.722967401E0,-1.070788130E-1,-4.785645287E-3,9.842576981E0,9.843160590E0
2.725390682E0,-1.022931710E-1,1.196411345E-2,9.856933594E0,9.857471628E0
2.727814640E0,-1.070788130E-1,2.153540403E-2,9.840184212E0,9.840790363E0
2.730238442E0,-1.046859920E-1,2.392822644E-3,9.840184212E0,9.840741344E0
2.732662192E0,-1.046859920E-1,-0.000000000E0,9.844969749E0,9.845526320E0
2.735086567E0,-9.032905847E-2,2.392822644E-3,9.854540825E0,9.854955095E0
2.737511203E0,-7.357929647E-2,7.178467698E-3,9.883255005E0,9.883531501E0
2.739935995E0,-1.238285750E-1,3.349951655E-2,9.859326363E0,9.860160854E0
2.742360057E0,-1.094716340E-1,-4.785645287E-3,9.852148056E0,9.852757394E0
2.744784224E0,-9.750752151E-2,9.571290575E-3,9.837791443E0,9.838279311E0
2.747208286E0,-9.272187948E-2,4.785645287E-3,9.837791443E0,9.838229552E0
2.749632713E0,-1.046859920E-1,2.153540403E-2,9.842576981E0,9.843157245E0
2.752056515E0,-1.310070455E-1,-0.000000000E0,9.842576981E0,9.843448809E0
2.754481099E0,-1.022931710E-1,1.674975827E-2,9.833005905E0,9.833552236E0
2.756905161E0,-9.511470050E-2,1.435693540E-2,9.833005905E0,9.833476397E0
2.759329172E0,-1.118644550E-1,-1.196411345E-2,9.835398674E0,9.836042084E0
2.761754015E0,-1.118644550E-1,-1.435693540E-2,9.835398674E0,9.836045285E0
2.764178026E0,-1.142572835E-1,1.196411345E-2,9.823433876E0,9.824105607E0
2.766602453E0,-9.990034252E-2,3.110669367E-2,9.859326363E0,9.859881542E0
2.769026620E0,-9.511470050E-2,1.674975827E-2,9.847362518E0,9.847836104E0
2.771450265E0,-1.022931710E-1,2.632104978E-2,9.864111900E0,9.864677403E0
2.773873599E0,-1.190429255E-1,-4.785645287E-3,9.835398674E0,9.836120231E0
2.776297765E0,-1.046859920E-1,-1.435693540E-2,9.854540825E0,9.855107313E0
2.778721932E0,-1.286142170E-1,2.871387079E-2,9.835398674E0,9.836281471E0
2.781146255E0,-9.990034252E-2,1.196411345E-2,9.847362518E0,9.847876511E0
2.783570734E0,-1.022931710E-1,-1.914258115E-2,9.828220367E0,9.828771333E0
2.785994536E0,-1.022931710E-1,2.392822690E-2,9.844969749E0,9.845530246E0
2.788418078E0,-9.750752151E-2,2.392822690E-2,9.833005905E0,9.833518465E0
2.790842453E0,-1.094716340E-1,4.785645287E-3,9.844969749E0,9.845579531E0
2.793266567E0,-1.262213886E-1,-1.674975827E-2,9.823433876E0,9.824259031E0
2.795691099E0,-1.094716340E-1,4.785645287E-3,9.837791443E0,9.838401670E0
2.798115109E0,-8.315058798E-2,-2.392822644E-3,9.847362518E0,9.847713862E0
2.800539276E0,-1.286142170E-1,-1.914258115E-2,9.854540825E0,9.855398669E0
2.802963859E0,-1.190429255E-1,-0.000000000E0,9.856933594E0,9.857652413E0
2.805387765E0,-1.094716340E-1,-2.392822644E-3,9.861719131E0,9.862327007E0
2.807811515E0,-9.272187948E-2,-1.196411345E-2,9.864111900E0,9.864554935E0
2.810235630E0,-1.214357466E-1,1.914258115E-2,9.856933594E0,9.857700186E0
2.812659224E0,-1.333998591E-1,-1.196411345E-2,9.847362518E0,9.848273312E0
2.815083078E0,-1.070788130E-1,1.196411345E-2,9.866504669E0,9.867092956E0
2.817506776E0,-1.070788130E-1,1.674975827E-2,9.835398674E0,9.835995806E0
2.819930578E0,-1.118644550E-1,-7.178467698E-3,9.854540825E0,9.855178337E0
2.822354901E0,-1.118644550E-1,-7.178467698E-3,9.837791443E0,9.838430040E0
2.824779120E0,-9.511470050E-2,1.674975827E-2,9.844969749E0,9.845443450E0
2.827202609E0,-8.315058798E-2,1.914258115E-2,9.840184212E0,9.840554140E0
2.829627245E0,-9.750752151E-2,1.914258115E-2,9.854540825E0,9.855041807E0
2.832052036E0,-1.070788130E-1,1.674975827E-2,9.842576981E0,9.843173678E0
2.834475942E0,-1.142572835E-1,1.435693540E-2,9.835398674E0,9.836072790E0
2.836900161E0,-9.511470050E-2,4.785645287E-3,9.837791443E0,9.838252395E0
2.839324536E0,-1.094716340E-1,1.914258115E-2,9.835398674E0,9.836026512E0
2.841748390E0,-1.046859920E-1,3.110669367E-2,9.842576981E0,9.843182839E0
2.844173078E0,-7.836493850E-2,1.674975827E-2,9.842576981E0,9.842903191E0
2.846597609E0,-8.315058798E-2,-2.392822690E-2,9.844969749E0,9.845349966E0
2.849022192E0,-1.118644550E-1,9.571290575E-3,9.844969749E0,9.845609917E0
2.851445786E0,-1.118644550E-1,-1.196411345E-2,9.859326363E0,9.859968211E0
2.853869849E0,-9.511470050E-2,9.571290575E-3,9.842576981E0,9.843041198E0
2.856293651E0,-1.022931710E-1,-7.178467698E-3,9.861719131E0,9.862252261E0
2.858717192E0,-1.238285750E-1,9.571290575E-3,9.830613136E0,9.831397650E0
2.861141255E0,-1.142572835E-1,-2.392822644E-3,9.856933594E0,9.857596072E0
2.863565057E0,-9.272187948E-2,1.914258115E-2,9.852148056E0,9.852602961E0
2.865989692E0,-9.990034252E-2,1.674975827E-2,9.844969749E0,9.845490846E0
2.868413911E0,-1.046859920E-1,2.392822644E-3,9.854540825E0,9.855097146E0
2.870838234E0,-1.118644550E-1,-9.571290575E-3,9.823433876E0,9.824075447E0
2.873262349E0,-1.238285750E-1,4.785645287E-3,9.833005905E0,9.833786735E0
2.875686359E0,-1.094716340E-1,1.674975827E-2,9.840184212E0,9.840807381E0
2.878110213E0,-1.070788130E-1,2.153540403E-2,9.842576981E0,9.843182984E0
2.880534797E0,-9.272187948E-2,-0.000000000E0,9.864111900E0,9.864547680E0
2.882959224E0,-1.262213886E-1,2.392822644E-3,9.859326363E0,9.860134578E0
2.885383651E0,-1.094716340E-1,9.571290575E-3,9.842576981E0,9.843190401E0
2.887807713E0,-1.094716340E-1,1.914258115E-2,9.835398674E0,9.836026512E0
2.890231724E0,-9.511470050E-2,1.196411345E-2,9.840184212E0,9.840651161E0
2.892655734E0,-1.094716340E-1,-0.000000000E0,9.837791443E0,9.838400506E0
2.895079432E0,-7.836493850E-2,2.392822644E-3,9.873683929E0,9.873995196E0
2.897503911E0,-9.990034252E-2,1.196411345E-2,9.859326363E0,9.859839732E0
2.899928703E0,-1.166501045E-1,-4.785645287E-3,9.861719131E0,9.862410171E0
2.902353026E0,-1.214357466E-1,1.435693540E-2,9.847362518E0,9.848121716E0
2.904777453E0,-9.511470050E-2,-0.000000000E0,9.837791443E0,9.838251231E0
2.907201463E0,-7.597211748E-2,1.435693540E-2,9.844969749E0,9.845273346E0
2.909625890E0,-8.315058798E-2,-2.392822644E-3,9.854540825E0,9.854891913E0
2.912049536E0,-1.166501045E-1,-1.196411345E-2,9.840184212E0,9.840882872E0
2.914473755E0,-8.554340899E-2,-0.000000000E0,9.837791443E0,9.838163352E0
2.916897609E0,-1.070788130E-1,1.914258115E-2,9.837791443E0,9.838392795E0
2.919321567E0,-1.142572835E-1,1.196411345E-2,9.833005905E0,9.833676983E0
2.921746203E0,-1.070788130E-1,1.196411345E-2,9.847362518E0,9.847951948E0
2.924170682E0,-9.272187948E-2,-4.785645287E-3,9.854540825E0,9.854978190E0
2.926595265E0,-9.511470050E-2,2.153540403E-2,9.835398674E0,9.835882149E0
2.929019536E0,-1.046859920E-1,4.785645287E-3,9.837791443E0,9.838349584E0
2.931443651E0,-9.511470050E-2,-2.392822644E-3,9.856933594E0,9.857392779E0
2.933867661E0,-1.094716340E-1,-2.392822690E-2,9.830613136E0,9.831251763E0
2.936291672E0,-1.142572835E-1,-9.571290575E-3,9.854540825E0,9.855207822E0
2.938716047E0,-1.190429255E-1,-1.196411345E-2,9.861719131E0,9.862444858E0
2.941139640E0,-1.070788130E-1,-0.000000000E0,9.840184212E0,9.840766799E0
2.943563390E0,-1.118644550E-1,1.435693540E-2,9.837791443E0,9.838437897E0
2.945987245E0,-1.022931710E-1,2.871387079E-2,9.854540825E0,9.855113558E0
2.948411047E0,-1.022931710E-1,9.571290575E-3,9.840184212E0,9.840720544E0
2.950835682E0,-1.214357466E-1,1.196411345E-2,9.833005905E0,9.833763009E0
2.953259276E0,-1.022931710E-1,1.674975827E-2,9.849755287E0,9.850300689E0
2.955684328E0,-9.272187948E-2,1.196411345E-2,9.847362518E0,9.847806307E0
2.958109224E0,-9.750752151E-2,4.785645287E-3,9.833005905E0,9.833490517E0
2.960532870E0,-1.190429255E-1,2.392822644E-3,9.844969749E0,9.845689733E0
2.962956724E0,-1.142572835E-1,2.392822644E-3,9.864111900E0,9.864773897E0
2.965380265E0,-1.166501045E-1,-1.196411345E-2,9.830613136E0,9.831312477E0
2.967803911E0,-1.286142170E-1,-2.392822644E-3,9.833005905E0,9.833847287E0
2.970228182E0,-1.286142170E-1,2.392822644E-3,9.840184212E0,9.841024980E0
2.972652505E0,-9.272187948E-2,2.153540403E-2,9.840184212E0,9.840644615E0
2.975077192E0,-1.238285750E-1,1.196411345E-2,9.854540825E0,9.855326049E0
2.977501307E0,-1.070788130E-1,9.571290575E-3,9.844969749E0,9.845556706E0
2.979925370E0,-1.142572835E-1,2.392822644E-3,9.844969749E0,9.845633033E0
2.982349901E0,-1.118644550E-1,4.785645287E-3,9.823433876E0,9.824071950E0
2.984773755E0,-1.262213886E-1,-4.785645287E-3,9.849755287E0,9.850565159E0
2.987198130E0,-1.166501045E-1,-9.571290575E-3,9.823433876E0,9.824131105E0
2.989622140E0,-1.094716340E-1,-1.196411345E-2,9.835398674E0,9.836015161E0
2.992045838E0,-1.190429255E-1,4.785645287E-3,9.830613136E0,9.831335044E0
2.994469640E0,-9.990034252E-2,-1.196411345E-2,9.830613136E0,9.831128005E0
2.996892765E0,-1.094716340E-1,7.178467698E-3,9.852148056E0,9.852758846E0
2.999316776E0,-9.990034252E-2,-7.178467698E-3,9.833005905E0,9.833515991E0
3.001740838E0,-8.554340899E-2,-4.785645287E-3,9.842576981E0,9.842949873E0
3.004165057E0,-1.070788130E-1,7.178467698E-3,9.833005905E0,9.833591538E0
3.006588703E0,-1.118644550E-1,-0.000000000E0,9.828220367E0,9.828856965E0
3.009012974E0,-1.214357466E-1,1.196411345E-2,9.830613136E0,9.831370424E0
3.011437140E0,-1.094716340E-1,1.674975827E-2,9.849755287E0,9.850377851E0
3.013861099E0,-1.070788130E-1,2.153540403E-2,9.837791443E0,9.838397741E0
3.016285265E0,-1.094716340E-1,2.392822644E-3,9.859326363E0,9.859934386E0
3.018708547E0,-1.214357466E-1,-4.785645287E-3,9.828220367E0,9.828971723E0
3.021132505E0,-7.836493850E-2,4.785645287E-3,9.849755287E0,9.850068182E0
3.023556984E0,-8.793623000E-2,-4.785645287E-3,9.847362518E0,9.847756305E0
3.025981307E0,-1.238285750E-1,7.178467698E-3,9.849755287E0,9.850536242E0
3.028405161E0,-1.310070455E-1,2.392822644E-3,9.835398674E0,9.836271430E0
3.030828390E0,-1.166501045E-1,3.828516230E-2,9.837791443E0,9.838557489E0
3.033252922E0,-1.118644550E-1,2.392822690E-2,9.861719131E0,9.862382595E0
3.035677192E0,-1.046859920E-1,2.632104978E-2,9.854540825E0,9.855132004E0
3.038101828E0,-1.166501045E-1,4.785645287E-3,9.842576981E0,9.843269364E0
3.040525942E0,-1.142572835E-1,2.392822644E-3,9.833005905E0,9.833669996E0
3.042950265E0,-1.166501045E-1,-0.000000000E0,9.844969749E0,9.845660801E0
3.045374797E0,-9.032905847E-2,-9.571290575E-3,9.866504669E0,9.866922790E0
3.047798911E0,-9.032905847E-2,-2.392822644E-3,9.844969749E0,9.845384423E0
3.050222505E0,-9.511470050E-2,2.392822644E-3,9.852148056E0,9.852607465E0
3.052646724E0,-9.511470050E-2,-2.392822644E-3,9.830613136E0,9.831073551E0
3.055070474E0,-9.990034252E-2,4.785645287E-3,9.840184212E0,9.840692471E0
3.057494797E0,-7.836493850E-2,4.785645287E-3,9.842576981E0,9.842890103E0
3.059918755E0,-8.315058798E-2,2.392822644E-3,9.830613136E0,9.830965079E0
3.062342349E0,-8.554340899E-2,-4.785645287E-3,9.854540825E0,9.854913264E0
3.064766411E0,-1.118644550E-1,1.435693540E-2,9.849755287E0,9.850400956E0
3.067190890E0,-9.032905847E-2,-4.785645287E-3,9.861719131E0,9.862133971E0
3.069615057E0,-1.166501045E-1,2.392822644E-3,9.837791443E0,9.838483290E0
3.072038911E0,-9.272187948E-2,4.785645287E-3,9.866504669E0,9.866941504E0
3.074462609E0,-8.793623000E-2,1.674975827E-2,9.840184212E0,9.840591377E0
3.076886463E0,-1.262213886E-1,4.785645287E-3,9.818648338E0,9.819460776E0
3.079310786E0,-1.214357466E-1,7.178467698E-3,9.837791443E0,9.838543523E0
3.081734067E0,-8.315058798E-2,9.571290575E-3,9.847362518E0,9.847718223E0
3.084157713E0,-1.070788130E-1,-7.178467698E-3,9.842576981E0,9.843162044E0
3.086581203E0,-1.142572835E-1,1.914258115E-2,9.837791443E0,9.838473542E0
3.089004172E0,-1.118644550E-1,1.914258115E-2,9.837791443E0,9.838446044E0
3.091427453E0,-1.166501045E-1,9.571290575E-3,9.830613136E0,9.831309856E0
3.093851359E0,-1.190429255E-1,-0.000000000E0,9.840184212E0,9.840904254E0
3.096275370E0,-1.070788130E-1,4.785645287E-3,9.861719131E0,9.862301608E0
3.098698963E0,-1.166501045E-1,2.392822644E-3,9.856933594E0,9.857624097E0
3.101122349E0,-7.357929647E-2,-0.000000000E0,9.828220367E0,9.828495790E0
3.103546255E0,-8.793623000E-2,4.785645287E-3,9.825826645E0,9.826221295E0
3.105970213E0,-1.046859920E-1,1.196411345E-2,9.842576981E0,9.843140958E0
3.108393859E0,-1.046859920E-1,2.392822644E-3,9.847362518E0,9.847919245E0
3.110817870E0,-1.166501045E-1,1.435693540E-2,9.847362518E0,9.848063867E0
3.113241515E0,-1.190429255E-1,4.785645287E-3,9.833005905E0,9.833727638E0
3.115665526E0,-9.990034252E-2,-7.178467698E-3,9.837791443E0,9.838301280E0
3.118089484E0,-9.990034252E-2,-1.435693540E-2,9.842576981E0,9.843094423E0
3.120512349E0,-1.190429255E-1,4.785645287E-3,9.835398674E0,9.836120231E0
3.122936463E0,-1.118644550E-1,2.153540403E-2,9.833005905E0,9.833665774E0
3.125360317E0,-1.477568001E-1,-0.000000000E0,9.833005905E0,9.834115985E0
3.127783286E0,-9.990034252E-2,1.196411345E-2,9.821041107E0,9.821556478E0
3.130207297E0,-9.272187948E-2,7.178467698E-3,9.847362518E0,9.847801655E0
3.132630995E0,-1.166501045E-1,4.785645287E-3,9.868897438E0,9.869587975E0
3.135054484E0,-1.262213886E-1,1.196411345E-2,9.852148056E0,9.852963833E0
3.137478130E0,-9.272187948E-2,2.392822644E-3,9.861719131E0,9.862155307E0
3.139901932E0,-9.272187948E-2,-7.178467698E-3,9.840184212E0,9.840623669E0
3.142325630E0,-1.094716340E-1,9.571290575E-3,9.844969749E0,9.845583021E0
3.144748963E0,-9.511470050E-2,1.674975827E-2,9.833005905E0,9.833480182E0
3.147172453E0,-9.272187948E-2,-0.000000000E0,9.842576981E0,9.843013714E0
3.149596932E0,-1.142572835E-1,1.196411345E-2,9.844969749E0,9.845640011E0
3.152020995E0,-1.046859920E-1,4.785645287E-3,9.825826645E0,9.826385465E0
3.154445578E0,-1.142572835E-1,7.178467698E-3,9.833005905E0,9.833672325E0
3.156869484E0,-9.750752151E-2,-0.000000000E0,9.847362518E0,9.847845261E0
3.159292453E0,-1.214357466E-1,1.435693540E-2,9.833005905E0,9.833766211E0
3.161716307E0,-1.262213886E-1,2.153540403E-2,9.849755287E0,9.850587537E0
3.164139901E0,-1.046859920E-1,2.392822644E-3,9.854540825E0,9.855097146E0
3.166563911E0,-1.142572835E-1,-4.785645287E-3,9.837791443E0,9.838456083E0
3.168987817E0,-1.118644550E-1,2.153540403E-2,9.818648338E0,9.819309172E0
3.171411672E0,-9.990034252E-2,3.110669367E-2,9.854540825E0,9.855096274E0
3.173835474E0,-1.022931710E-1,-1.196411345E-2,9.852148056E0,9.852686352E0
3.176259015E0,-1.070788130E-1,-2.392822644E-3,9.830613136E0,9.831196582E0
3.178682817E0,-7.597211748E-2,7.178467698E-3,9.852148056E0,9.852443586E0
3.181106932E0,-9.032905847E-2,1.196411345E-2,9.844969749E0,9.845391401E0
3.183531099E0,-9.990034252E-2,1.674975827E-2,9.842576981E0,9.843098204E0
3.185955526E0,-9.272187948E-2,7.178467698E-3,9.852148056E0,9.852586980E0
3.188379588E0,-1.022931710E-1,1.914258115E-2,9.847362518E0,9.847912413E0
3.190804120E0,-1.022931710E-1,7.178467698E-3,9.835398674E0,9.835933230E0
3.193227765E0,-1.333998591E-1,2.392822644E-3,9.849755287E0,9.850658885E0
3.195651307E0,-9.032905847E-2,-0.000000000E0,9.821041107E0,9.821456499E0
3.198074640E0,-8.315058798E-2,2.392822644E-3,9.833005905E0,9.833357762E0
3.200499224E0,-1.022931710E-1,1.435693540E-2,9.830613136E0,9.831155815E0
3.202923130E0,-1.070788130E-1,9.571290575E-3,9.842576981E0,9.843164080E0
3.205347245E0,-8.793623000E-2,-1.196411345E-2,9.840184212E0,9.840584395E0
3.207771620E0,-1.022931710E-1,9.571290575E-3,9.837791443E0,9.838327905E0
3.210195005E0,-9.750752151E-2,-4.785645287E-3,9.847362518E0,9.847846424E0
3.212618859E0,-9.750752151E-2,2.153540403E-2,9.854540825E0,9.855046746E0
3.215042661E0,-1.118644550E-1,1.435693540E-2,9.835398674E0,9.836045285E0
3.217466099E0,-1.118644550E-1,1.196411345E-2,9.859326363E0,9.859968211E0
3.219890213E0,-1.357926875E-1,7.178467698E-3,9.864111900E0,9.865049152E0
3.222313963E0,-1.094716340E-1,1.435693540E-2,9.866504669E0,9.867122405E0
3.224737453E0,-1.166501045E-1,-1.435693540E-2,9.861719131E0,9.862419460E0
3.227161099E0,-1.190429255E-1,-7.178467698E-3,9.852148056E0,9.852869839E0
3.229584849E0,-1.022931710E-1,1.435693540E-2,9.842576981E0,9.843118999E0
3.232008390E0,-1.118644550E-1,1.674975827E-2,9.844969749E0,9.845619512E0
3.234432245E0,-9.272187948E-2,4.785645287E-3,9.852148056E0,9.852585527E0
3.236856776E0,-9.750752151E-2,-0.000000000E0,9.861719131E0,9.862201171E0
3.239281463E0,-9.511470050E-2,2.392822690E-2,9.840184212E0,9.840672979E0
3.241705786E0,-1.190429255E-1,1.196411345E-2,9.833005905E0,9.833733751E0
3.244129849E0,-1.214357466E-1,7.178467698E-3,9.828220367E0,9.828973179E0
3.246553911E0,-9.272187948E-2,4.785645287E-3,9.837791443E0,9.838229552E0
3.248977192E0,-9.990034252E-2,-7.178467698E-3,9.849755287E0,9.850264505E0
3.251401724E0,-9.511470050E-2,-0.000000000E0,9.854540825E0,9.854999831E0
3.253825578E0,-8.075776696E-2,-2.153540403E-2,9.825826645E0,9.826182109E0
3.256249120E0,-1.094716340E-1,1.914258115E-2,9.840184212E0,9.840811745E0
3.258672870E0,-1.166501045E-1,1.196411345E-2,9.844969749E0,9.845668071E0
3.261097192E0,-7.118647546E-2,1.196411345E-2,9.859326363E0,9.859590609E0
3.263520630E0,-8.315058798E-2,-0.000000000E0,9.859326363E0,9.859676990E0
3.265944276E0,-1.142572835E-1,-7.178467698E-3,9.837791443E0,9.838457538E0
3.268367713E0,-1.022931710E-1,-2.392822644E-3,9.835398674E0,9.835930901E0
3.270791672E0,-1.118644550E-1,-4.785645287E-3,9.842576981E0,9.843213813E0
3.273215734E0,-1.070788130E-1,2.392822690E-2,9.844969749E0,9.845581131E0
3.275640057E0,-8.075776696E-2,1.674975827E-2,9.833005905E0,9.833351794E0
3.278064276E0,-1.022931710E-1,4.785645287E-3,9.844969749E0,9.845502332E0
3.280488442E0,-1.022931710E-1,1.196411345E-2,9.828220367E0,9.828759974E0
3.282912870E0,-1.118644550E-1,-9.571290575E-3,9.837791443E0,9.838432077E0
3.285337297E0,-9.750752151E-2,1.674975827E-2,9.847362518E0,9.847859505E0
3.287761463E0,-9.032905847E-2,-0.000000000E0,9.840184212E0,9.840598796E0
3.290184953E0,-8.793623000E-2,1.196411345E-2,9.835398674E0,9.835799052E0
3.292609484E0,-1.094716340E-1,2.392822644E-3,9.854540825E0,9.855149143E0
3.295033286E0,-9.511470050E-2,4.785645287E-3,9.840184212E0,9.840645051E0
3.297457661E0,-9.511470050E-2,9.571290575E-3,9.864111900E0,9.864575105E0
3.299882088E0,-9.511470050E-2,-0.000000000E0,9.868897438E0,9.869355777E0
3.302306151E0,-9.990034252E-2,-2.392822644E-3,9.856933594E0,9.857440118E0
3.304730005E0,-1.142572835E-1,-7.178467698E-3,9.847362518E0,9.848027966E0
3.307153911E0,-1.190429255E-1,-7.178467698E-3,9.854540825E0,9.855262433E0
3.309577974E0,-1.070788130E-1,1.914258115E-2,9.844969749E0,9.845570663E0
3.312002922E0,-1.070788130E-1,2.153540403E-2,9.854540825E0,9.855146093E0
3.314427192E0,-1.022931710E-1,-1.196411345E-2,9.856933594E0,9.857471628E0
3.316851620E0,-1.094716340E-1,-4.785645287E-3,9.844969749E0,9.845579531E0
3.319275682E0,-1.094716340E-1,1.435693540E-2,9.840184212E0,9.840803599E0
3.321699640E0,-9.750752151E-2,1.435693540E-2,9.856933594E0,9.857426323E0
3.324123703E0,-1.022931710E-1,-0.000000000E0,9.840184212E0,9.840715889E0
3.326548026E0,-1.166501045E-1,-1.196411345E-2,9.844969749E0,9.845668071E0
3.328972192E0,-1.286142170E-1,-1.196411345E-2,9.844969749E0,9.845817088E0
3.331396411E0,-9.272187948E-2,-0.000000000E0,9.847362518E0,9.847799039E0
3.333820526E0,-9.511470050E-2,1.914258115E-2,9.847362518E0,9.847840464E0
3.336244484E0,-9.990034252E-2,7.178467698E-3,9.844969749E0,9.845479215E0
3.338668651E0,-1.238285750E-1,-7.178467698E-3,9.856933594E0,9.857713980E0
3.341092557E0,-1.118644550E-1,-1.674975827E-2,9.842576981E0,9.843226901E0
3.343516255E0,-1.238285750E-1,1.435693540E-2,9.842576981E0,9.843366358E0
3.345940213E0,-1.118644550E-1,4.785645287E-3,9.847362518E0,9.847999042E0
3.348364172E0,-9.511470050E-2,-2.392822690E-2,9.835398674E0,9.835887679E0
3.350788442E0,-9.750752151E-2,2.392822644E-3,9.837791443E0,9.838274946E0
3.353213182E0,-1.070788130E-1,-7.178467698E-3,9.859326363E0,9.859910432E0
3.355637557E0,-1.166501045E-1,7.178467698E-3,9.852148056E0,9.852841219E0
3.358061984E0,-9.511470050E-2,7.178467698E-3,9.837791443E0,9.838253850E0
3.360485630E0,-1.118644550E-1,1.914258115E-2,9.856933594E0,9.857586924E0
3.362908755E0,-1.310070455E-1,1.914258115E-2,9.840184212E0,9.841074870E0
3.365332140E0,-9.750752151E-2,9.571290575E-3,9.852148056E0,9.852635213E0
3.367756984E0,-9.032905847E-2,-2.392822644E-3,9.847362518E0,9.847777091E0
3.370181567E0,-8.315058798E-2,-9.571290575E-3,9.840184212E0,9.840540176E0
3.372605422E0,-1.118644550E-1,-2.392822644E-3,9.856933594E0,9.857568628E0
3.375029692E0,-1.262213886E-1,2.632104978E-2,9.844969749E0,9.845814035E0
3.377453495E0,-1.118644550E-1,9.571290575E-3,9.830613136E0,9.831254238E0
3.379877661E0,-9.511470050E-2,-1.674975827E-2,9.861719131E0,9.862192028E0
3.382301776E0,-1.142572835E-1,-9.571290575E-3,9.852148056E0,9.852815215E0
3.384725786E0,-1.166501045E-1,-1.196411345E-2,9.842576981E0,9.843275471E0
3.387149797E0,-1.118644550E-1,-1.435693540E-2,9.847362518E0,9.848008344E0
3.389573495E0,-1.046859920E-1,1.914258115E-2,9.866504669E0,9.867078594E0
3.391997140E0,-1.357926875E-1,-1.196411345E-2,9.861719131E0,9.862661255E0
3.394421724E0,-1.118644550E-1,2.392822644E-3,9.859326363E0,9.859961243E0
3.396845734E0,-1.022931710E-1,-1.674975827E-2,9.868897438E0,9.869441782E0
3.399269588E0,-1.214357466E-1,2.392822690E-2,9.847362518E0,9.848140320E0
3.401693859E0,-1.070788130E-1,1.674975827E-2,9.844969749E0,9.845566301E0
3.404118182E0,-1.070788130E-1,2.392822644E-3,9.847362518E0,9.847944972E0
3.406542922E0,-1.022931710E-1,-4.785645287E-3,9.842576981E0,9.843109692E0
3.408966828E0,-1.046859920E-1,2.392822644E-3,9.833005905E0,9.833563444E0
3.411391515E0,-9.032905847E-2,1.914258115E-2,9.852148056E0,9.852580733E0
3.413815786E0,-1.190429255E-1,1.674975827E-2,9.837791443E0,9.838525918E0
3.416240942E0,-1.046859920E-1,-0.000000000E0,9.835398674E0,9.835955786E0
3.418665630E0,-9.511470050E-2,1.435693540E-2,9.856933594E0,9.857402944E0
3.421089692E0,-1.118644550E-1,-1.196411345E-2,9.833005905E0,9.833649471E0
3.423513859E0,-1.142572835E-1,4.785645287E-3,9.828220367E0,9.828885655E0
3.425937557E0,-1.070788130E-1,-2.392822644E-3,9.844969749E0,9.845552344E0
3.428361724E0,-1.022931710E-1,1.914258115E-2,9.854540825E0,9.855090319E0
3.430785838E0,-9.511470050E-2,9.571290575E-3,9.842576981E0,9.843041198E0
3.433210317E0,-1.070788130E-1,1.435693540E-2,9.856933594E0,9.857525646E0
3.435634276E0,-1.094716340E-1,1.914258115E-2,9.847362518E0,9.847989594E0
3.438057817E0,-1.070788130E-1,1.435693540E-2,9.856933594E0,9.857525646E0
3.440481984E0,-8.315058798E-2,-4.785645287E-3,9.852148056E0,9.852500101E0
3.442906203E0,-1.142572835E-1,2.392822644E-3,9.847362518E0,9.848025641E0
3.445330578E0,-1.142572835E-1,-9.571290575E-3,9.833005905E0,9.833674362E0
3.447754797E0,-1.190429255E-1,1.196411345E-2,9.840184212E0,9.840911527E0
3.450178911E0,-1.142572835E-1,-2.392822644E-3,9.844969749E0,9.845633033E0
3.452602765E0,-9.511470050E-2,9.571290575E-3,9.856933594E0,9.857397136E0
3.455026724E0,-1.142572835E-1,-1.196411345E-2,9.859326363E0,9.859995649E0
3.457450942E0,-1.070788130E-1,-1.674975827E-2,9.837791443E0,9.838388430E0
3.459874745E0,-7.597211748E-2,-7.178467698E-3,9.864111900E0,9.864407072E0
3.462298703E0,-7.597211748E-2,-2.392822644E-3,9.842576981E0,9.842870471E0
3.464722974E0,-1.022931710E-1,1.674975827E-2,9.859326363E0,9.859871235E0
3.467146880E0,-8.793623000E-2,1.196411345E-2,9.847362518E0,9.847762410E0
3.469570890E0,-1.046859920E-1,1.435693540E-2,9.835398674E0,9.835966264E0
3.471995109E0,-1.070788130E-1,-7.178467698E-3,9.833005905E0,9.833591538E0
3.474419172E0,-9.990034252E-2,9.571290575E-3,9.859326363E0,9.859837119E0
3.476843026E0,-9.032905847E-2,1.196411345E-2,9.849755287E0,9.850176734E0
3.479266880E0,-9.750752151E-2,9.571290575E-3,9.842576981E0,9.843064611E0
3.481691099E0,-9.032905847E-2,9.571290575E-3,9.844969749E0,9.845388784E0
3.484115213E0,-8.554340899E-2,2.392822690E-2,9.854540825E0,9.854941152E0
3.486538963E0,-9.511470050E-2,-2.392822644E-3,9.844969749E0,9.845429493E0
3.488962922E0,-8.315058798E-2,1.914258115E-2,9.849755287E0,9.850124856E0
3.491386463E0,-1.070788130E-1,1.196411345E-2,9.856933594E0,9.857522452E0
3.493810526E0,-1.166501045E-1,-7.178467698E-3,9.849755287E0,9.850448619E0
3.496233963E0,-9.511470050E-2,-2.392822644E-3,9.844969749E0,9.845429493E0
3.498657140E0,-1.214357466E-1,-2.153540403E-2,9.849755287E0,9.850527378E0
3.501080630E0,-1.238285750E-1,1.674975827E-2,9.842576981E0,9.843370139E0
3.503504224E0,-1.070788130E-1,-7.178467698E-3,9.837791443E0,9.838376791E0
3.505928182E0,-1.142572835E-1,7.178467698E-3,9.844969749E0,9.845635359E0
3.508352088E0,-9.272187948E-2,2.153540403E-2,9.844969749E0,9.845429929E0
3.510775942E0,-1.070788130E-1,4.785645287E-3,9.844969749E0,9.845553217E0
3.513200005E0,-8.793623000E-2,2.153540403E-2,9.847362518E0,9.847778690E0
3.515624536E0,-1.046859920E-1,1.196411345E-2,9.849755287E0,9.850318853E0
3.518049380E0,-8.554340899E-2,4.785645287E-3,9.837791443E0,9.838164516E0
3.520473599E0,-1.166501045E-1,1.435693540E-2,9.835398674E0,9.836100876E0
3.522898338E0,-9.750752151E-2,1.914258115E-2,9.864111900E0,9.864612397E0
3.525322661E0,-1.166501045E-1,9.571290575E-3,9.833005905E0,9.833702456E0
3.527746099E0,-9.750752151E-2,-4.785645287E-3,9.861719131E0,9.862202332E0
3.530170474E0,-9.750752151E-2,-7.178467698E-3,9.844969749E0,9.845455226E0
3.532594536E0,-1.070788130E-1,4.785645287E-3,9.849755287E0,9.850338471E0
3.535019067E0,-1.070788130E-1,-2.392822644E-3,9.821041107E0,9.821625121E0
3.537442974E0,-1.214357466E-1,1.196411345E-2,9.818648338E0,9.819406549E0
3.539867349E0,-9.272187948E-2,-2.392822644E-3,9.854540825E0,9.854977318E0
3.542291672E0,-1.238285750E-1,9.571290575E-3,9.859326363E0,9.860108592E0
3.544715734E0,-1.166501045E-1,-2.392822690E-2,9.842576981E0,9.843297284E0
3.547139745E0,-1.046859920E-1,2.153540403E-2,9.844969749E0,9.845549873E0
3.549563182E0,-9.990034252E-2,1.196411345E-2,9.854540825E0,9.855054444E0
3.551986932E0,-1.118644550E-1,4.785645287E-3,9.844969749E0,9.845606428E0
3.554410734E0,-7.357929647E-2,-7.178467698E-3,9.844969749E0,9.845247321E0
3.556834276E0,-9.511470050E-2,-0.000000000E0,9.828220367E0,9.828680603E0
3.559258286E0,-1.094716340E-1,2.392822644E-3,9.844969749E0,9.845578659E0
3.561681672E0,-1.022931710E-1,3.110669367E-2,9.844969749E0,9.845550309E0
3.564105057E0,-9.990034252E-2,-2.392822644E-3,9.852148056E0,9.852654826E0
3.566528911E0,-9.272187948E-2,-0.000000000E0,9.844969749E0,9.845406376E0
3.568952088E0,-1.214357466E-1,-9.571290575E-3,9.847362518E0,9.848115902E0
3.571376047E0,-1.214357466E-1,7.178467698E-3,9.835398674E0,9.836150937E0
3.573799588E0,-7.836493850E-2,7.178467698E-3,9.859326363E0,9.859640405E0
3.576223234E0,-9.032905847E-2,2.392822644E-3,9.861719131E0,9.862133101E0
3.578647453E0,-1.094716340E-1,-2.392822644E-3,9.828220367E0,9.828830315E0
3.581070474E0,-1.070788130E-1,-2.392822644E-3,9.835398674E0,9.835981836E0
3.583493599E0,-1.190429255E-1,9.571290575E-3,9.842576981E0,9.843301501E0
3.585916567E0,-9.990034252E-2,-0.000000000E0,9.852148056E0,9.852654536E0
3.588341203E0,-1.046859920E-1,4.785645287E-3,9.856933594E0,9.857490651E0
3.590764901E0,-1.094716340E-1,-0.000000000E0,9.844969749E0,9.845578368E0
3.593188547E0,-1.094716340E-1,-7.178467698E-3,9.861719131E0,9.862329329E0
3.595612817E0,-1.046859920E-1,9.571290575E-3,9.844969749E0,9.845530973E0
3.598037036E0,-9.990034252E-2,2.153540403E-2,9.825826645E0,9.826358080E0
3.600460995E0,-1.142572835E-1,-9.571290575E-3,9.842576981E0,9.843244788E0
3.602885370E0,-1.022931710E-1,2.392822644E-3,9.844969749E0,9.845501459E0
3.605309953E0,-1.022931710E-1,4.785645287E-3,9.813862801E0,9.814397071E0
3.607734224E0,-1.166501045E-1,1.196411345E-2,9.837791443E0,9.838490273E0
3.610158599E0,-1.166501045E-1,1.914258115E-2,9.852148056E0,9.852857200E0
3.612583078E0,-7.118647546E-2,2.392822644E-3,9.859326363E0,9.859583641E0
3.615007609E0,-1.046859920E-1,-9.571290575E-3,9.837791443E0,9.838353076E0
3.617431672E0,-1.166501045E-1,4.785645287E-3,9.837791443E0,9.838484163E0
3.619856724E0,-1.238285750E-1,7.178467698E-3,9.837791443E0,9.838573348E0
3.622280838E0,-9.990034252E-2,1.914258115E-2,9.844969749E0,9.845495208E0
3.624705474E0,-1.190429255E-1,2.153540403E-2,9.835398674E0,9.836142642E0
3.627129901E0,-1.166501045E-1,4.785645287E-3,9.844969749E0,9.845661964E0
3.629554432E0,-9.750752151E-2,2.392822644E-3,9.859326363E0,9.859808810E0
3.631978338E0,-1.022931710E-1,-0.000000000E0,9.842576981E0,9.843108529E0
3.634402922E0,-9.750752151E-2,1.914258115E-2,9.861719131E0,9.862219749E0
3.636827401E0,-8.793623000E-2,1.674975827E-2,9.842576981E0,9.842984047E0
3.639251880E0,-7.597211748E-2,2.871387079E-2,9.844969749E0,9.845304750E0
3.641675526E0,-9.032905847E-2,7.178467698E-3,9.837791443E0,9.838208747E0
3.644099588E0,-9.511470050E-2,1.196411345E-2,9.861719131E0,9.862185061E0
3.646523807E0,-9.511470050E-2,4.785645287E-3,9.830613136E0,9.831074425E0
3.648947349E0,-1.214357466E-1,-0.000000000E0,9.854540825E0,9.855289012E0
3.651371307E0,-1.070788130E-1,-4.785645287E-3,9.859326363E0,9.859908980E0
3.653795526E0,-1.094716340E-1,-4.785645287E-3,9.844969749E0,9.845579531E0
3.656220161E0,-9.511470050E-2,1.196411345E-2,9.852148056E0,9.852614438E0
3.658645161E0,-1.262213886E-1,9.571290575E-3,9.854540825E0,9.855353790E0
3.661069953E0,-1.166501045E-1,1.435693540E-2,9.842576981E0,9.843278671E0
3.663494120E0,-1.094716340E-1,1.435693540E-2,9.847362518E0,9.847981454E0
3.665918755E0,-1.238285750E-1,2.392822644E-3,9.842576981E0,9.843356179E0
3.668343807E0,-1.070788130E-1,2.392822690E-2,9.842576981E0,9.843188510E0
3.670767817E0,-9.032905847E-2,-9.571290575E-3,9.849755287E0,9.850174119E0
3.673191515E0,-7.357929647E-2,-2.392822644E-3,9.842576981E0,9.842852293E0
3.675615057E0,-1.166501045E-1,9.571290575E-3,9.856933594E0,9.857628454E0
3.678039067E0,-9.990034252E-2,2.632104978E-2,9.849755287E0,9.850297056E0
3.680463338E0,-9.032905847E-2,9.571290575E-3,9.852148056E0,9.852566786E0
3.682887505E0,-1.118644550E-1,-4.785645287E-3,9.844969749E0,9.845606428E0
3.685311620E0,-1.022931710E-1,4.785645287E-3,9.852148056E0,9.852680250E0
3.687735734E0,-1.166501045E-1,1.435693540E-2,9.821041107E0,9.821744336E0
3.690160578E0,-1.022931710E-1,-9.571290575E-3,9.833005905E0,9.833542629E0
3.692585317E0,-1.190429255E-1,1.674975827E-2,9.847362518E0,9.848096280E0
3.695009536E0,-1.094716340E-1,2.392822690E-2,9.844969749E0,9.845607445E0
3.697433442E0,-9.750752151E-2,1.196411345E-2,9.833005905E0,9.833496631E0
3.699858130E0,-1.070788130E-1,2.392822644E-3,9.849755287E0,9.850337599E0
3.702282297E0,-1.022931710E-1,9.571290575E-3,9.842576981E0,9.843113182E0
3.704706255E0,-1.046859920E-1,-9.571290575E-3,9.830613136E0,9.831175179E0
3.707130578E0,-1.094716340E-1,-7.178467698E-3,9.825826645E0,9.826439071E0
3.709555161E0,-1.094716340E-1,-7.178467698E-3,9.833005905E0,9.833617885E0
3.711979380E0,-1.070788130E-1,2.392822644E-3,9.864111900E0,9.864693365E0
3.714403703E0,-9.990034252E-2,1.435693540E-2,9.842576981E0,9.843094423E0
3.716827765E0,-1.070788130E-1,1.435693540E-2,9.835398674E0,9.835992023E0
3.719251984E0,-1.046859920E-1,2.392822644E-3,9.856933594E0,9.857489780E0
3.721676672E0,-8.793623000E-2,1.435693540E-2,9.835398674E0,9.835802254E0
3.724101307E0,-1.070788130E-1,2.392822644E-3,9.847362518E0,9.847944972E0
3.726526047E0,-1.070788130E-1,-7.178467698E-3,9.837791443E0,9.838376791E0
3.728950005E0,-1.166501045E-1,-1.196411345E-2,9.847362518E0,9.848060670E0
3.731374797E0,-1.262213886E-1,-1.674975827E-2,9.837791443E0,9.838615394E0
3.733798390E0,-1.070788130E-1,-2.392822644E-3,9.866504669E0,9.867085993E0
3.736222765E0,-9.750752151E-2,1.435693540E-2,9.830613136E0,9.831107185E0
3.738647192E0,-1.118644550E-1,7.178467698E-3,9.835398674E0,9.836037427E0
3.741071359E0,-1.118644550E-1,-4.785645287E-3,9.849755287E0,9.850391656E0
3.743496255E0,-9.990034252E-2,-0.000000000E0,9.849755287E0,9.850261890E0
3.745920682E0,-1.142572835E-1,2.871387079E-2,9.842576981E0,9.843282015E0
3.748345005E0,-1.070788130E-1,-2.392822644E-3,9.847362518E0,9.847944972E0
3.750769432E0,-1.166501045E-1,-2.153540403E-2,9.842576981E0,9.843291758E0
3.753193755E0,-1.070788130E-1,-7.178467698E-3,9.849755287E0,9.850339924E0
3.755618442E0,-1.070788130E-1,-2.392822644E-3,9.835398674E0,9.835981836E0
3.758043182E0,-9.990034252E-2,2.153540403E-2,9.856933594E0,9.857463351E0
3.760467192E0,-1.022931710E-1,4.785645287E-3,9.847362518E0,9.847894971E0
3.762891411E0,-1.405783296E-1,4.785645287E-3,9.856933594E0,9.857937160E0
3.765316255E0,-1.022931710E-1,-0.000000000E0,9.840184212E0,9.840715889E0
3.767740317E0,-9.750752151E-2,-2.392822644E-3,9.842576981E0,9.843060249E0
3.770164692E0,-9.272187948E-2,2.392822644E-3,9.852148056E0,9.852584655E0
3.772589120E0,-8.075776696E-2,2.392822690E-2,9.844969749E0,9.845330048E0
3.775013807E0,-1.190429255E-1,-4.785645287E-3,9.852148056E0,9.852868386E0
3.777437609E0,-1.094716340E-1,-2.392822644E-3,9.861719131E0,9.862327007E0
3.779861411E0,-1.070788130E-1,9.571290575E-3,9.847362518E0,9.847949332E0
3.782285213E0,-1.046859920E-1,7.178467698E-3,9.840184212E0,9.840743671E0
3.784709692E0,-9.750752151E-2,-9.571290575E-3,9.837791443E0,9.838279311E0
3.787134276E0,-9.750752151E-2,2.392822644E-3,9.840184212E0,9.840667597E0
3.789558859E0,-1.142572835E-1,2.392822690E-2,9.842576981E0,9.843269218E0
3.791983442E0,-1.094716340E-1,9.571290575E-3,9.864111900E0,9.864723981E0
3.794407817E0,-1.142572835E-1,-4.785645287E-3,9.852148056E0,9.852811728E0
3.796832297E0,-1.142572835E-1,-4.785645287E-3,9.830613136E0,9.831278262E0
3.799257036E0,-1.166501045E-1,4.785645287E-3,9.849755287E0,9.850447166E0
3.801681672E0,-1.046859920E-1,-4.785645287E-3,9.861719131E0,9.862275918E0
3.804106411E0,-1.214357466E-1,1.674975827E-2,9.849755287E0,9.850518078E0
3.806530942E0,-1.118644550E-1,2.392822644E-3,9.828220367E0,9.828857257E0
3.808955317E0,-1.094716340E-1,-1.435693540E-2,9.825826645E0,9.826446938E0
3.811378703E0,-1.094716340E-1,-1.914258115E-2,9.833005905E0,9.833633896E0
3.813802765E0,-9.750752151E-2,1.196411345E-2,9.844969749E0,9.845459879E0
3.816227349E0,-1.094716340E-1,1.674975827E-2,9.844969749E0,9.845592616E0
3.818651151E0,-1.166501045E-1,-4.785645287E-3,9.837791443E0,9.838484163E0
3.821075213E0,-1.262213886E-1,7.178467698E-3,9.852148056E0,9.852959184E0
3.823499588E0,-1.453639716E-1,3.349951655E-2,9.837791443E0,9.838922369E0
3.825923599E0,-1.286142170E-1,2.153540403E-2,9.833005905E0,9.833870577E0
3.828347713E0,-1.046859920E-1,9.571290575E-3,9.859326363E0,9.859886769E0
3.830772245E0,-1.190429255E-1,9.571290575E-3,9.849755287E0,9.850479280E0
3.833196828E0,-8.793623000E-2,-9.571290575E-3,9.854540825E0,9.854937811E0
3.835621047E0,-1.070788130E-1,2.632104978E-2,9.837791443E0,9.838409381E0
3.838045005E0,-8.315058798E-2,2.392822690E-2,9.830613136E0,9.830993908E0
3.840469380E0,-9.750752151E-2,1.435693540E-2,9.847362518E0,9.847855726E0
3.842893286E0,-1.238285750E-1,-7.178467698E-3,9.840184212E0,9.840965927E0
3.845317609E0,-1.166501045E-1,-1.196411345E-2,9.847362518E0,9.848060670E0
3.847741880E0,-9.750752151E-2,-1.674975827E-2,9.861719131E0,9.862215395E0
3.850166151E0,-1.238285750E-1,4.785645287E-3,9.837791443E0,9.838571893E0
3.852590317E0,-9.272187948E-2,1.196411345E-2,9.844969749E0,9.845413646E0
3.855014432E0,-1.094716340E-1,-0.000000000E0,9.830613136E0,9.831222644E0
3.857438078E0,-1.190429255E-1,-4.785645287E-3,9.847362518E0,9.848083199E0
3.859862245E0,-1.094716340E-1,2.153540403E-2,9.835398674E0,9.836031460E0
3.862287036E0,-9.990034252E-2,-2.392822644E-3,9.856933594E0,9.857440118E0
3.864710734E0,-1.286142170E-1,1.196411345E-2,9.856933594E0,9.857779904E0
3.867134797E0,-1.022931710E-1,1.914258115E-2,9.847362518E0,9.847912413E0
3.869558547E0,-1.022931710E-1,1.674975827E-2,9.844969749E0,9.845515416E0
3.871982349E0,-1.094716340E-1,-7.178467698E-3,9.864111900E0,9.864721950E0
3.874406515E0,-9.750752151E-2,9.571290575E-3,9.840184212E0,9.840671961E0
3.876830317E0,-8.554340899E-2,-1.196411345E-2,9.856933594E0,9.857312042E0
3.879254692E0,-9.750752151E-2,1.196411345E-2,9.828220367E0,9.828711332E0
3.881678963E0,-1.214357466E-1,1.674975827E-2,9.837791443E0,9.838555162E0
3.884102974E0,-1.094716340E-1,-7.178467698E-3,9.842576981E0,9.843188365E0
3.886527245E0,-1.238285750E-1,1.196411345E-2,9.835398674E0,9.836185426E0
3.888950890E0,-1.070788130E-1,2.392822690E-2,9.876076698E0,9.876686154E0
3.891375161E0,-1.262213886E-1,7.178467698E-3,9.861719131E0,9.862529473E0
3.893799849E0,-1.022931710E-1,2.392822644E-3,9.852148056E0,9.852679379E0
3.896224328E0,-9.511470050E-2,-1.196411345E-2,9.835398674E0,9.835865850E0
3.898648286E0,-1.118644550E-1,9.571290575E-3,9.830613136E0,9.831254238E0
3.901072505E0,-1.022931710E-1,7.178467698E-3,9.840184212E0,9.840718508E0
3.903496203E0,-1.094716340E-1,-0.000000000E0,9.830613136E0,9.831222644E0
3.905920526E0,-1.118644550E-1,7.178467698E-3,9.840184212E0,9.840822654E0
3.908344484E0,-1.262213886E-1,-1.196411345E-2,9.849755287E0,9.850571262E0
3.910767870E0,-9.272187948E-2,1.435693540E-2,9.837791443E0,9.838238864E0
3.913192088E0,-9.511470050E-2,4.785645287E-3,9.825826645E0,9.826288158E0
3.915616255E0,-9.511470050E-2,2.632104978E-2,9.828220367E0,9.828715847E0
3.918040005E0,-8.793623000E-2,-7.178467698E-3,9.828220367E0,9.828616378E0
3.920464276E0,-8.075776696E-2,1.435693540E-2,9.844969749E0,9.845311438E0
3.922888495E0,-1.286142170E-1,-0.000000000E0,9.828220367E0,9.829061868E0
3.925313442E0,-1.190429255E-1,1.196411345E-2,9.854540825E0,9.855267080E0
3.927738078E0,-1.310070455E-1,1.435693540E-2,9.842576981E0,9.843459279E0
3.930162401E0,-1.022931710E-1,-0.000000000E0,9.844969749E0,9.845501169E0
3.932586047E0,-9.750752151E-2,7.178467698E-3,9.854540825E0,9.855025830E0
3.935010213E0,-1.070788130E-1,-9.571290575E-3,9.828220367E0,9.828808324E0
3.937434328E0,-1.286142170E-1,-0.000000000E0,9.854540825E0,9.855380078E0
3.939857974E0,-9.272187948E-2,2.153540403E-2,9.847362518E0,9.847822586E0
3.942282297E0,-9.272187948E-2,-0.000000000E0,9.840184212E0,9.840621051E0
3.944706203E0,-1.070788130E-1,1.914258115E-2,9.849755287E0,9.850355909E0
3.947129901E0,-1.070788130E-1,1.435693540E-2,9.849755287E0,9.850347771E0
3.949553755E0,-9.750752151E-2,7.178467698E-3,9.844969749E0,9.845455226E0
3.951977922E0,-1.118644550E-1,4.785645287E-3,9.837791443E0,9.838428586E0
3.954402192E0,-1.046859920E-1,2.392822690E-2,9.859326363E0,9.859911158E0
3.956825942E0,-1.094716340E-1,3.828516230E-2,9.833005905E0,9.833689792E0
3.959249797E0,-1.238285750E-1,2.392822644E-3,9.833005905E0,9.833785862E0
3.961673338E0,-1.094716340E-1,-4.785645287E-3,9.854540825E0,9.855150015E0
3.964097036E0,-9.750752151E-2,2.392822644E-3,9.830613136E0,9.831096993E0
3.966520890E0,-1.022931710E-1,2.392822644E-3,9.852148056E0,9.852679379E0
