"Time (s)","Acceleration x (m/s^2)","Acceleration y (m/s^2)","Acceleration z (m/s^2)","Absolute acceleration (m/s^2)"
2.051614600E-2,-8.793623000E-2,-1.244267747E-1,-9.932906151E0,9.934074663E0
2.294208400E-2,-7.357929647E-2,-1.316052526E-1,-9.935298920E0,9.936442949E0
2.536796900E-2,-7.357929647E-2,-1.339980662E-1,-9.923035622E0,9.924213084E0
2.779385500E-2,-8.793623000E-2,-1.316052526E-1,-9.923035622E0,9.924297893E0
3.021974000E-2,-8.554340899E-2,-1.220339537E-1,-9.925428391E0,9.926547169E0
3.264562500E-2,-7.597211748E-2,-1.124626622E-1,-9.906285286E0,9.907214936E0
3.507156300E-2,-5.204389244E-2,-1.339980662E-1,-9.932906151E0,9.933946278E0
3.749744800E-2,-5.443671346E-2,-1.316052526E-1,-9.954441071E0,9.955459825E0
3.992333400E-2,-9.032905847E-2,-9.810572863E-2,-9.954441071E0,9.955334304E0
4.234921900E-2,-6.640082598E-2,-1.316052526E-1,-9.937691689E0,9.938784891E0
4.477515700E-2,-6.161518395E-2,-1.244267747E-1,-9.935298920E0,9.936269072E0
4.720104200E-2,-8.315058798E-2,-1.220339537E-1,-9.930213928E0,9.931311845E0
4.962692800E-2,-6.879365444E-2,-1.196411327E-1,-9.913464546E0,9.914425141E0
5.205281300E-2,-8.315058798E-2,-1.028913707E-1,-9.923035622E0,9.923917402E0
5.447875000E-2,-5.443671346E-2,-1.244267747E-1,-9.920642853E0,9.921572456E0
5.690463600E-2,-8.315058798E-2,-1.100698411E-1,-9.906285286E0,9.907245710E0
5.933052100E-2,-6.879365444E-2,-1.172483116E-1,-9.915857315E0,9.916789099E0
6.175640700E-2,-8.315058798E-2,-1.124626622E-1,-9.918250084E0,9.919236190E0
6.418234400E-2,-7.357929647E-2,-1.316052526E-1,-9.911071777E0,9.912218603E0
6.660823000E-2,-8.315058798E-2,-1.196411327E-1,-9.913464546E0,9.914535154E0
6.903411500E-2,-6.879365444E-2,-1.268195957E-1,-9.913464546E0,9.914514365E0
7.146000000E-2,-7.357929647E-2,-1.268195957E-1,-9.915857315E0,9.916941233E0
7.388588600E-2,-7.357929647E-2,-1.172483116E-1,-9.935298920E0,9.936263166E0
7.631182300E-2,-9.272187948E-2,-1.292124242E-1,-9.940084457E0,9.941356659E0
7.873770900E-2,-9.990034252E-2,-1.076770201E-1,-9.944869995E0,9.945954637E0
8.116359400E-2,-6.640082598E-2,-1.124626622E-1,-9.937691689E0,9.938549845E0
8.358948000E-2,-6.161518395E-2,-1.196411327E-1,-9.930213928E0,9.931125772E0
8.601536500E-2,-6.879365444E-2,-1.292124242E-1,-9.944869995E0,9.945947297E0
8.844130300E-2,-6.879365444E-2,-1.196411327E-1,-9.913464546E0,9.914425141E0
9.086718800E-2,-8.315058798E-2,-1.076770201E-1,-9.932906151E0,9.933837776E0
9.329307300E-2,-5.682953820E-2,-1.292124242E-1,-9.949655533E0,9.950656796E0
9.571895900E-2,-4.965107143E-2,-1.244267747E-1,-9.920642853E0,9.921547352E0
9.814489600E-2,-4.965107143E-2,-9.332008660E-2,-9.911071777E0,9.911635468E0
1.005707820E-1,-6.879365444E-2,-1.196411327E-1,-9.923035622E0,9.923995290E0
1.029966670E-1,-7.357929647E-2,-1.052841991E-1,-9.918250084E0,9.919081782E0
1.054225530E-1,-6.161518395E-2,-1.148554832E-1,-9.937691689E0,9.938546388E0
1.078484380E-1,-8.554340899E-2,-1.220339537E-1,-9.935298920E0,9.936416587E0
1.102743750E-1,-5.922235921E-2,-1.339980662E-1,-9.935298920E0,9.936378988E0
1.127002610E-1,-7.597211748E-2,-1.028913707E-1,-9.925428391E0,9.926252421E0
1.151261460E-1,-5.204389244E-2,-1.124626622E-1,-9.927821159E0,9.928594532E0
1.175520320E-1,-6.400800496E-2,-1.148554832E-1,-9.896714211E0,9.897587634E0
1.199779690E-1,-5.682953820E-2,-1.076770201E-1,-9.935298920E0,9.936044915E0
1.224038550E-1,-7.357929647E-2,-1.004985496E-1,-9.935298920E0,9.936079634E0
1.248297400E-1,-5.443671346E-2,-1.196411327E-1,-9.930213928E0,9.931083829E0
1.272556250E-1,-5.682953820E-2,-1.244267747E-1,-9.930213928E0,9.931156039E0
1.296815630E-1,-7.597211748E-2,-1.363908947E-1,-9.927821159E0,9.929048656E0
1.321074480E-1,-7.836493850E-2,-1.028913707E-1,-9.925428391E0,9.926271024E0
1.345333340E-1,-8.554340899E-2,-1.100698411E-1,-9.918250084E0,9.919229697E0
1.369592190E-1,-7.597211748E-2,-1.196411327E-1,-9.913464546E0,9.914477549E0
1.393851050E-1,-9.750752151E-2,-1.004985496E-1,-9.932906151E0,9.933893108E0
1.418110420E-1,-7.118647546E-2,-1.076770201E-1,-9.923035622E0,9.923875140E0
1.442369280E-1,-6.400800496E-2,-1.100698411E-1,-9.930213928E0,9.931030211E0
1.466628130E-1,-4.007977992E-2,-1.244267747E-1,-9.906285286E0,9.907147752E0
1.490886980E-1,-5.922235921E-2,-1.220339537E-1,-9.927821159E0,9.928747783E0
1.515146360E-1,-4.007977992E-2,-1.220339537E-1,-9.923035622E0,9.923866919E0
1.539405210E-1,-4.486542568E-2,-1.220339537E-1,-9.920642853E0,9.921494837E0
1.563664070E-1,-6.400800496E-2,-1.316052526E-1,-9.913464546E0,9.914544683E0
1.587922920E-1,-6.879365444E-2,-1.220339537E-1,-9.930213928E0,9.931202018E0
1.612181780E-1,-7.597211748E-2,-1.292124242E-1,-9.935298920E0,9.936429552E0
1.636441150E-1,-6.161518395E-2,-1.292124242E-1,-9.930213928E0,9.931245689E0
1.660700000E-1,-9.750752151E-2,-1.172483116E-1,-9.935298920E0,9.936469167E0
1.684958860E-1,-7.836493850E-2,-1.244267747E-1,-9.925428391E0,9.926517608E0
1.709217710E-1,-7.836493850E-2,-1.100698411E-1,-9.913464546E0,9.914385293E0
1.733477090E-1,-6.879365444E-2,-1.148554832E-1,-9.932906151E0,9.933808381E0
1.757735940E-1,-8.315058798E-2,-1.316052526E-1,-9.935298920E0,9.936518434E0
1.781994800E-1,-6.879365444E-2,-1.411765367E-1,-9.937691689E0,9.938932512E0
1.806253650E-1,-8.554340899E-2,-1.220339537E-1,-9.925428391E0,9.926547169E0
1.830513030E-1,-8.793623000E-2,-1.052841991E-1,-9.935298920E0,9.936245879E0
1.854771880E-1,-5.682953820E-2,-1.124626622E-1,-9.923035622E0,9.923835619E0
1.879030730E-1,-4.725824669E-2,-1.100698411E-1,-9.932906151E0,9.933628406E0
1.903289590E-1,-6.640082598E-2,-1.220339537E-1,-9.915857315E0,9.916830524E0
1.927548960E-1,-5.922235921E-2,-1.411765367E-1,-9.915857315E0,9.917039094E0
1.951807820E-1,-6.640082598E-2,-1.316052526E-1,-9.930213928E0,9.931307954E0
1.976066670E-1,-8.075776696E-2,-1.244267747E-1,-9.918250084E0,9.919359282E0
2.000325530E-1,-5.682953820E-2,-1.244267747E-1,-9.932906151E0,9.933848007E0
2.024584380E-1,-9.511470050E-2,-1.148554832E-1,-9.930213928E0,9.931333609E0
2.048843750E-1,-7.118647546E-2,-1.339980662E-1,-9.937691689E0,9.938849988E0
2.073102610E-1,-8.315058798E-2,-1.292124242E-1,-9.906285286E0,9.907476875E0
2.097361460E-1,-9.032905847E-2,-1.100698411E-1,-9.920642853E0,9.921664645E0
2.121620320E-1,-6.879365444E-2,-1.196411327E-1,-9.935298920E0,9.936257404E0
2.145879170E-1,-7.836493850E-2,-1.148554832E-1,-9.937691689E0,9.938664344E0
2.170138550E-1,-8.075776696E-2,-1.148554832E-1,-9.920642853E0,9.921636368E0
2.194397400E-1,-7.357929647E-2,-1.363908947E-1,-9.932906151E0,9.934115008E0
2.218656250E-1,-9.272187948E-2,-1.339980662E-1,-9.930213928E0,9.931550810E0
2.242915110E-1,-8.554340899E-2,-1.124626622E-1,-9.935298920E0,9.936303646E0
2.267174480E-1,-6.879365444E-2,-1.268195957E-1,-9.923035622E0,9.924084428E0
2.291433340E-1,-7.118647546E-2,-1.124626622E-1,-9.918250084E0,9.919143113E0
2.315692190E-1,-8.075776696E-2,-1.196411327E-1,-9.923035622E0,9.924085437E0
2.339951050E-1,-7.118647546E-2,-1.076770201E-1,-9.930213928E0,9.931052840E0
2.364210420E-1,-6.879365444E-2,-1.220339537E-1,-9.930213928E0,9.931202018E0
2.388469280E-1,-8.075776696E-2,-1.172483116E-1,-9.920642853E0,9.921664356E0
2.412728130E-1,-7.597211748E-2,-1.244267747E-1,-9.923035622E0,9.924106495E0
2.436986980E-1,-7.597211748E-2,-1.292124242E-1,-9.918250084E0,9.919382659E0
2.461246360E-1,-4.725824669E-2,-1.124626622E-1,-9.927821159E0,9.928570600E0
2.485505210E-1,-8.075776696E-2,-1.339980662E-1,-9.944869995E0,9.946100568E0
2.509764070E-1,-8.075776696E-2,-1.148554832E-1,-9.940084457E0,9.941076029E0
2.534022920E-1,-7.118647546E-2,-1.148554832E-1,-9.932906151E0,9.933825240E0
2.558281780E-1,-7.357929647E-2,-1.316052526E-1,-9.915857315E0,9.917003587E0
2.582541150E-1,-7.836493850E-2,-1.363908947E-1,-9.913464546E0,9.914712444E0
2.606800000E-1,-5.443671346E-2,-1.268195957E-1,-9.918250084E0,9.919210215E0
2.631058860E-1,-5.443671346E-2,-1.268195957E-1,-9.925428391E0,9.926387827E0
2.655317710E-1,-7.357929647E-2,-1.339980662E-1,-9.927821159E0,9.928998055E0
2.679577090E-1,-7.597211748E-2,-1.220339537E-1,-9.918250084E0,9.919291748E0
2.703835940E-1,-5.922235921E-2,-1.411765367E-1,-9.952048302E0,9.953225784E0
2.728094800E-1,-7.597211748E-2,-1.076770201E-1,-9.932906151E0,9.933780283E0
2.752353650E-1,-5.922235921E-2,-1.052841991E-1,-9.927821159E0,9.928556039E0
2.776612500E-1,-8.075776696E-2,-1.292124242E-1,-9.915857315E0,9.917027980E0
2.800871880E-1,-8.315058798E-2,-1.220339537E-1,-9.915857315E0,9.916956821E0
2.825130730E-1,-9.990034252E-2,-1.076770201E-1,-9.920642853E0,9.921730143E0
2.849389590E-1,-8.554340899E-2,-1.220339537E-1,-9.927821159E0,9.928939668E0
2.873648440E-1,-7.836493850E-2,-1.004985496E-1,-9.920642853E0,9.921461366E0
2.897907820E-1,-6.879365444E-2,-1.148554832E-1,-9.920642853E0,9.921546198E0
2.922166670E-1,-6.400800496E-2,-1.172483116E-1,-9.920642853E0,9.921542159E0
2.946425530E-1,-5.922235921E-2,-1.435693651E-1,-9.920642853E0,9.921858398E0
2.970684380E-1,-7.357929647E-2,-1.124626622E-1,-9.903892517E0,9.904804327E0
2.994943230E-1,-1.022931710E-1,-1.052841991E-1,-9.932906151E0,9.933990802E0
3.019202610E-1,-6.640082598E-2,-1.076770201E-1,-9.944869995E0,9.945674569E0
3.043461460E-1,-7.597211748E-2,-1.363908947E-1,-9.925428391E0,9.926656183E0
3.067720320E-1,-9.272187948E-2,-1.028913707E-1,-9.935298920E0,9.936264318E0
3.091979170E-1,-7.836493850E-2,-1.387837082E-1,-9.918250084E0,9.919530569E0
3.116238550E-1,-4.486542568E-2,-1.507478207E-1,-9.920642853E0,9.921889559E0
3.140497400E-1,-5.922235921E-2,-1.172483116E-1,-9.920642853E0,9.921512438E0
3.164756250E-1,-7.357929647E-2,-1.363908947E-1,-9.932906151E0,9.934115008E0
3.189015110E-1,-8.554340899E-2,-1.339980662E-1,-9.935298920E0,9.936570725E0
3.213274480E-1,-4.725824669E-2,-1.220339537E-1,-9.935298920E0,9.936160740E0
3.237533340E-1,-7.836493850E-2,-1.076770201E-1,-9.925428391E0,9.926321783E0
3.261792190E-1,-7.597211748E-2,-1.148554832E-1,-9.925428391E0,9.926383646E0
3.286051050E-1,-6.400800496E-2,-1.076770201E-1,-9.915857315E0,9.916648509E0
3.310309900E-1,-5.204389244E-2,-1.172483116E-1,-9.932906151E0,9.933734461E0
3.334569280E-1,-6.640082598E-2,-1.316052526E-1,-9.920642853E0,9.921737934E0
3.358828130E-1,-8.554340899E-2,-1.124626622E-1,-9.918250084E0,9.919256537E0
3.383086980E-1,-7.357929647E-2,-1.268195957E-1,-9.908679008E0,9.909763711E0
3.407345840E-1,-9.032905847E-2,-1.316052526E-1,-9.915857315E0,9.917142006E0
3.431605210E-1,-7.836493850E-2,-1.339980662E-1,-9.927821159E0,9.929034672E0
3.455864070E-1,-7.597211748E-2,-1.148554832E-1,-9.930213928E0,9.931168723E0
3.480122920E-1,-6.640082598E-2,-1.196411327E-1,-9.927821159E0,9.928764074E0
3.504381780E-1,-8.793623000E-2,-1.339980662E-1,-9.935298920E0,9.936591613E0
3.528640630E-1,-5.922235921E-2,-1.339980662E-1,-9.935298920E0,9.936378988E0
3.552900000E-1,-7.118647546E-2,-1.220339537E-1,-9.935298920E0,9.936303358E0
3.577158860E-1,-6.879365444E-2,-1.363908947E-1,-9.908679008E0,9.909856444E0
3.601417710E-1,-7.357929647E-2,-1.172483116E-1,-9.947262764E0,9.948225851E0
3.625676570E-1,-9.750752151E-2,-1.148554832E-1,-9.940084457E0,9.941226208E0
3.649935940E-1,-8.075776696E-2,-1.339980662E-1,-9.930213928E0,9.931446318E0
3.674194800E-1,-6.161518395E-2,-1.100698411E-1,-9.915857315E0,9.916659624E0
3.698453650E-1,-6.879365444E-2,-1.244267747E-1,-9.920642853E0,9.921661615E0
3.722712500E-1,-8.315058798E-2,-1.028913707E-1,-9.923035622E0,9.923917402E0
3.746971360E-1,-7.597211748E-2,-1.292124242E-1,-9.935298920E0,9.936429552E0
3.771230730E-1,-7.597211748E-2,-1.244267747E-1,-9.908679008E0,9.909751434E0
3.795489590E-1,-5.922235921E-2,-1.292124242E-1,-9.923035622E0,9.924053561E0
3.819748440E-1,-5.443671346E-2,-1.100698411E-1,-9.954441071E0,9.955198429E0
3.844007300E-1,-6.400800496E-2,-1.220339537E-1,-9.944869995E0,9.945824678E0
3.868266670E-1,-6.161518395E-2,-1.100698411E-1,-9.927821159E0,9.928622501E0
3.892525530E-1,-4.725824669E-2,-1.196411327E-1,-9.920642853E0,9.921476803E0
3.916784380E-1,-8.075776696E-2,-1.052841991E-1,-9.925428391E0,9.926315294E0
3.941043230E-1,-6.161518395E-2,-1.220339537E-1,-9.925428391E0,9.926369802E0
3.965302610E-1,-9.750752151E-2,-1.292124242E-1,-9.932906151E0,9.934225091E0
3.989561460E-1,-8.315058798E-2,-9.571290761E-2,-9.913464546E0,9.914275278E0
4.013820320E-1,-8.793623000E-2,-1.148554832E-1,-9.927821159E0,9.928874938E0
4.038079170E-1,-7.357929647E-2,-1.148554832E-1,-9.927821159E0,9.928758163E0
4.062338030E-1,-6.640082598E-2,-1.268195957E-1,-9.932906151E0,9.933937632E0
4.086597400E-1,-6.400800496E-2,-1.244267747E-1,-9.903892517E0,9.904880920E0
4.110856250E-1,-8.554340899E-2,-1.316052526E-1,-9.932906151E0,9.934146275E0
4.135115110E-1,-8.554340899E-2,-1.363908947E-1,-9.918250084E0,9.919556688E0
4.159373960E-1,-8.075776696E-2,-1.292124242E-1,-9.927821159E0,9.928990414E0
4.183633340E-1,-8.554340899E-2,-1.196411327E-1,-9.899106979E0,9.900199526E0
4.207892190E-1,-7.836493850E-2,-1.268195957E-1,-9.944869995E0,9.945987306E0
4.232151050E-1,-8.315058798E-2,-1.363908947E-1,-9.927821159E0,9.929106177E0
4.256409900E-1,-7.118647546E-2,-1.339980662E-1,-9.918250084E0,9.919410654E0
4.280669280E-1,-8.554340899E-2,-1.363908947E-1,-9.903892517E0,9.905201015E0
4.304928130E-1,-8.075776696E-2,-1.220339537E-1,-9.920642853E0,9.921722064E0
4.329186980E-1,-5.922235921E-2,-1.268195957E-1,-9.925428391E0,9.926415226E0
4.353445840E-1,-7.118647546E-2,-1.244267747E-1,-9.937691689E0,9.938725554E0
4.377704690E-1,-4.965107143E-2,-1.076770201E-1,-9.932906151E0,9.933613852E0
4.401964070E-1,-7.118647546E-2,-1.316052526E-1,-9.930213928E0,9.931341104E0
4.426222920E-1,-7.597211748E-2,-1.076770201E-1,-9.937691689E0,9.938565399E0
4.450481780E-1,-6.161518395E-2,-1.268195957E-1,-9.930213928E0,9.931214845E0
4.474740630E-1,-7.597211748E-2,-1.363908947E-1,-9.913464546E0,9.914693820E0
4.499000000E-1,-7.836493850E-2,-1.004985496E-1,-9.911071777E0,9.911891081E0
4.523258860E-1,-8.075776696E-2,-1.244267747E-1,-9.940084457E0,9.941191219E0
4.547517710E-1,-9.750752151E-2,-1.316052526E-1,-9.925428391E0,9.926779760E0
4.571776570E-1,-7.118647546E-2,-9.571290761E-2,-9.908679008E0,9.909396963E0
4.596035420E-1,-8.554340899E-2,-1.148554832E-1,-9.935298920E0,9.936331017E0
4.620294800E-1,-5.922235921E-2,-1.292124242E-1,-9.935298920E0,9.936315603E0
4.644553650E-1,-8.075776696E-2,-1.316052526E-1,-9.923035622E0,9.924236883E0
4.668812500E-1,-7.118647546E-2,-1.244267747E-1,-9.932906151E0,9.933940514E0
4.693071360E-1,-9.032905847E-2,-1.244267747E-1,-9.930213928E0,9.931404232E0
4.717330730E-1,-6.400800496E-2,-1.196411327E-1,-9.918250084E0,9.919178179E0
4.741589590E-1,-6.640082598E-2,-1.411765367E-1,-9.935298920E0,9.936523764E0
4.765848440E-1,-7.118647546E-2,-1.292124242E-1,-9.918250084E0,9.919347161E0
4.790107300E-1,-1.142572835E-1,-1.220339537E-1,-9.915857315E0,9.917266423E0
4.814366150E-1,-6.879365444E-2,-1.172483116E-1,-9.930213928E0,9.931144365E0
4.838625530E-1,-6.879365444E-2,-1.004985496E-1,-9.935298920E0,9.936045348E0
4.862884380E-1,-7.118647546E-2,-1.100698411E-1,-9.920642853E0,9.921508832E0
4.887143230E-1,-6.400800496E-2,-1.100698411E-1,-9.949655533E0,9.950470221E0
4.911402090E-1,-4.247260094E-2,-1.148554832E-1,-9.920642853E0,9.921398607E0
4.935661460E-1,-5.922235921E-2,-1.220339537E-1,-9.925428391E0,9.926355238E0
4.959920320E-1,-9.032905847E-2,-1.220339537E-1,-9.937691689E0,9.938851429E0
4.984179170E-1,-7.118647546E-2,-1.292124242E-1,-9.927821159E0,9.928917178E0
5.008438030E-1,-5.922235921E-2,-1.028913707E-1,-9.927821159E0,9.928530953E0
5.032697400E-1,-7.357929647E-2,-1.292124242E-1,-9.911071777E0,9.912187122E0
5.056956250E-1,-5.443671346E-2,-1.220339537E-1,-9.942477226E0,9.943375133E0
5.081215110E-1,-3.529413417E-2,-1.076770201E-1,-9.930213928E0,9.930860420E0
5.105473960E-1,-6.879365444E-2,-1.268195957E-1,-9.925428391E0,9.926476944E0
5.129733340E-1,-9.032905847E-2,-1.220339537E-1,-9.930213928E0,9.931374542E0
5.153992190E-1,-8.554340899E-2,-1.076770201E-1,-9.923035622E0,9.923988511E0
5.178251050E-1,-9.750752151E-2,-1.196411327E-1,-9.932906151E0,9.934105210E0
5.202509900E-1,-8.315058798E-2,-1.100698411E-1,-9.913464546E0,9.914424275E0
5.226768750E-1,-7.836493850E-2,-9.332008660E-2,-9.923035622E0,9.923783837E0
5.251028130E-1,-7.357929647E-2,-1.292124242E-1,-9.935298920E0,9.936411545E0
5.275286980E-1,-7.836493850E-2,-1.148554832E-1,-9.923035622E0,9.924009714E0
5.299545840E-1,-7.357929647E-2,-1.004985496E-1,-9.927821159E0,9.928602462E0
5.323804690E-1,-6.161518395E-2,-1.339980662E-1,-9.935298920E0,9.936393538E0
5.348064070E-1,-8.793623000E-2,-1.555334777E-1,-9.925428391E0,9.927036425E0
5.372322920E-1,-7.118647546E-2,-1.244267747E-1,-9.925428391E0,9.926463533E0
5.396581780E-1,-7.118647546E-2,-1.124626622E-1,-9.925428391E0,9.926320774E0
5.420840630E-1,-6.161518395E-2,-1.316052526E-1,-9.920642853E0,9.921707060E0
5.445099480E-1,-6.879365444E-2,-1.363908947E-1,-9.908679008E0,9.909856444E0
5.469358860E-1,-8.793623000E-2,-1.339980662E-1,-9.920642853E0,9.921937456E0
5.493617710E-1,-6.400800496E-2,-1.052841991E-1,-9.911071777E0,9.911837648E0
5.517876570E-1,-8.554340899E-2,-1.100698411E-1,-9.932906151E0,9.933884318E0
5.542135420E-1,-1.046859920E-1,-1.244267747E-1,-9.930213928E0,9.931545189E0
5.566394800E-1,-7.118647546E-2,-1.363908947E-1,-9.920642853E0,9.921835748E0
5.590653650E-1,-8.075776696E-2,-1.387837082E-1,-9.930213928E0,9.931512040E0
5.614912500E-1,-5.682953820E-2,-1.268195957E-1,-9.927821159E0,9.928793773E0
5.639171360E-1,-7.118647546E-2,-1.100698411E-1,-9.925428391E0,9.926293952E0
5.663430210E-1,-8.554340899E-2,-1.100698411E-1,-9.923035622E0,9.924014762E0
5.687689590E-1,-7.597211748E-2,-9.332008660E-2,-9.899106979E0,9.899838352E0
5.711948440E-1,-8.075776696E-2,-1.004985496E-1,-9.925428391E0,9.926265688E0
5.736207300E-1,-6.879365444E-2,-1.220339537E-1,-9.925428391E0,9.926416956E0
5.760466150E-1,-7.836493850E-2,-1.220339537E-1,-9.925428391E0,9.926487903E0
5.784725530E-1,-9.272187948E-2,-1.172483116E-1,-9.911071777E0,9.912198963E0
5.808984380E-1,-1.046859920E-1,-1.411765367E-1,-9.920642853E0,9.922199584E0
5.833243230E-1,-7.597211748E-2,-1.339980662E-1,-9.923035622E0,9.924231113E0
5.857502090E-1,-8.315058798E-2,-1.076770201E-1,-9.923035622E0,9.923968174E0
5.881760940E-1,-5.922235921E-2,-1.052841991E-1,-9.923035622E0,9.923770856E0
5.906020320E-1,-8.075776696E-2,-1.076770201E-1,-9.952048302E0,9.952958432E0
5.930279170E-1,-8.554340899E-2,-1.076770201E-1,-9.918250084E0,9.919203433E0
5.954538030E-1,-7.118647546E-2,-1.148554832E-1,-9.911071777E0,9.911992891E0
5.978796880E-1,-9.750752151E-2,-1.172483116E-1,-9.935298920E0,9.936469167E0
6.003056250E-1,-9.272187948E-2,-1.196411327E-1,-9.932906151E0,9.934059389E0
6.027315110E-1,-6.400800496E-2,-1.148554832E-1,-9.923035622E0,9.923906728E0
6.051573960E-1,-4.965107143E-2,-1.387837082E-1,-9.942477226E0,9.943569758E0
6.075832820E-1,-8.315058798E-2,-1.220339537E-1,-9.927821159E0,9.928919341E0
6.100092190E-1,-7.836493850E-2,-1.172483116E-1,-9.911071777E0,9.912075061E0
6.124351050E-1,-7.597211748E-2,-1.316052526E-1,-9.906285286E0,9.907450725E0
6.148609900E-1,-8.075776696E-2,-1.268195957E-1,-9.930213928E0,9.931352057E0
6.172868750E-1,-7.118647546E-2,-1.196411327E-1,-9.925428391E0,9.926404699E0
6.197127610E-1,-6.640082598E-2,-1.316052526E-1,-9.932906151E0,9.933999880E0
6.221386980E-1,-8.075776696E-2,-1.196411327E-1,-9.911071777E0,9.912122860E0
6.245645840E-1,-7.118647546E-2,-1.268195957E-1,-9.925428391E0,9.926493815E0
6.269904690E-1,-4.486542568E-2,-9.810572863E-2,-9.903892517E0,9.904480028E0
6.294163550E-1,-8.315058798E-2,-1.316052526E-1,-9.918250084E0,9.919471694E0
6.318422920E-1,-9.032905847E-2,-1.292124242E-1,-9.940084457E0,9.941334629E0
6.342681780E-1,-9.272187948E-2,-1.220339537E-1,-9.942477226E0,9.943658433E0
6.366940630E-1,-8.315058798E-2,-1.124626622E-1,-9.927821159E0,9.928806315E0
6.391199480E-1,-9.511470050E-2,-1.124626622E-1,-9.925428391E0,9.926521213E0
6.415458860E-1,-7.597211748E-2,-1.028913707E-1,-9.932906151E0,9.933729561E0
6.439717710E-1,-6.400800496E-2,-1.052841991E-1,-9.935298920E0,9.936062923E0
6.463976570E-1,-7.836493850E-2,-1.220339537E-1,-9.937691689E0,9.938749894E0
6.488235420E-1,-6.161518395E-2,-1.100698411E-1,-9.913464546E0,9.914267049E0
6.512494280E-1,-7.118647546E-2,-1.244267747E-1,-9.913464546E0,9.914500938E0
6.536753650E-1,-5.443671346E-2,-1.411765367E-1,-9.930213928E0,9.931366614E0
6.561012500E-1,-1.070788130E-1,-1.244267747E-1,-9.935298920E0,9.936654996E0
6.585271360E-1,-9.750752151E-2,-1.411765367E-1,-9.937691689E0,9.939172734E0
6.609530210E-1,-7.118647546E-2,-1.244267747E-1,-9.901499748E0,9.902537392E0
6.633789070E-1,-8.075776696E-2,-1.028913707E-1,-9.932906151E0,9.933767314E0
6.658048440E-1,-7.357929647E-2,-1.148554832E-1,-9.927821159E0,9.928758163E0
6.682307300E-1,-8.315058798E-2,-1.028913707E-1,-9.927821159E0,9.928702515E0
6.706566150E-1,-9.750752151E-2,-1.052841991E-1,-9.923035622E0,9.924073177E0
6.730825000E-1,-7.357929647E-2,-1.052841991E-1,-9.937691689E0,9.938521760E0
6.755084380E-1,-6.879365444E-2,-1.268195957E-1,-9.940084457E0,9.941131465E0
6.779343230E-1,-9.750752151E-2,-1.100698411E-1,-9.920642853E0,9.921732596E0
6.803602090E-1,-6.161518395E-2,-1.220339537E-1,-9.930213928E0,9.931154886E0
6.827860940E-1,-7.357929647E-2,-1.148554832E-1,-9.925428391E0,9.926365620E0
6.852120320E-1,-8.793623000E-2,-1.292124242E-1,-9.930213928E0,9.931443867E0
6.876379170E-1,-6.640082598E-2,-1.124626622E-1,-9.932906151E0,9.933764720E0
6.900638030E-1,-9.032905847E-2,-1.196411327E-1,-9.927821159E0,9.928952931E0
6.924896880E-1,-8.554340899E-2,-1.316052526E-1,-9.927821159E0,9.929061919E0
6.949155730E-1,-7.836493850E-2,-1.124626622E-1,-9.935298920E0,9.936244438E0
6.973415110E-1,-7.597211748E-2,-1.148554832E-1,-9.940084457E0,9.941038304E0
6.997673960E-1,-5.682953820E-2,-1.339980662E-1,-9.927821159E0,9.928888057E0
7.021932820E-1,-8.315058798E-2,-9.571290761E-2,-9.925428391E0,9.926238145E0
7.046191670E-1,-4.725824669E-2,-1.124626622E-1,-9.906285286E0,9.907036356E0
7.070450530E-1,-6.879365444E-2,-1.363908947E-1,-9.918250084E0,9.919426383E0
7.094709900E-1,-8.315058798E-2,-1.292124242E-1,-9.935298920E0,9.936487030E0
7.118968750E-1,-6.161518395E-2,-1.220339537E-1,-9.923035622E0,9.923977260E0
7.143227610E-1,-6.161518395E-2,-1.244267747E-1,-9.920642853E0,9.921614438E0
7.167486980E-1,-8.075776696E-2,-1.124626622E-1,-9.930213928E0,9.931179101E0
7.191745840E-1,-6.400800496E-2,-1.124626622E-1,-9.908679008E0,9.909523932E0
7.216004690E-1,-7.357929647E-2,-1.292124242E-1,-9.927821159E0,9.928934622E0
7.240263550E-1,-8.554340899E-2,-1.052841991E-1,-9.913464546E0,9.914392656E0
7.264522400E-1,-8.554340899E-2,-1.268195957E-1,-9.942477226E0,9.943653970E0
7.288781780E-1,-8.554340899E-2,-1.172483116E-1,-9.935298920E0,9.936358964E0
7.313040630E-1,-4.247260094E-2,-1.172483116E-1,-9.932906151E0,9.933688927E0
7.337299480E-1,-6.640082598E-2,-1.363908947E-1,-9.927821159E0,9.928980034E0
7.361558340E-1,-5.922235921E-2,-1.411765367E-1,-9.920642853E0,9.921824062E0
7.385817710E-1,-6.640082598E-2,-1.411765367E-1,-9.923035622E0,9.924261979E0
7.410076570E-1,-7.597211748E-2,-1.268195957E-1,-9.925428391E0,9.926529288E0
7.434335420E-1,-9.511470050E-2,-1.124626622E-1,-9.947262764E0,9.948353188E0
7.458594280E-1,-8.075776696E-2,-1.268195957E-1,-9.937691689E0,9.938828961E0
7.482853130E-1,-9.272187948E-2,-1.196411327E-1,-9.927821159E0,9.928974988E0
7.507112500E-1,-7.118647546E-2,-1.028913707E-1,-9.930213928E0,9.931002105E0
7.531371360E-1,-8.315058798E-2,-1.220339537E-1,-9.930213928E0,9.931311845E0
7.555630210E-1,-7.836493850E-2,-1.220339537E-1,-9.918250084E0,9.919310363E0
7.579889070E-1,-7.357929647E-2,-1.172483116E-1,-9.918250084E0,9.919215988E0
7.604148440E-1,-8.315058798E-2,-1.028913707E-1,-9.906285286E0,9.907168557E0
7.628407300E-1,-8.793623000E-2,-1.196411327E-1,-9.923035622E0,9.924146448E0
7.652666150E-1,-8.554340899E-2,-1.196411327E-1,-9.937691689E0,9.938779994E0
7.676925000E-1,-7.118647546E-2,-1.244267747E-1,-9.920642853E0,9.921678495E0
7.701183860E-1,-7.597211748E-2,-1.076770201E-1,-9.937691689E0,9.938565399E0
7.725443230E-1,-6.640082598E-2,-1.244267747E-1,-9.932906151E0,9.933907373E0
7.749702090E-1,-5.922235921E-2,-1.387837082E-1,-9.940084457E0,9.941229664E0
7.773960940E-1,-8.315058798E-2,-1.244267747E-1,-9.915857315E0,9.916986555E0
7.798219800E-1,-6.161518395E-2,-1.244267747E-1,-9.911071777E0,9.912044301E0
7.822478650E-1,-7.836493850E-2,-1.052841991E-1,-9.918250084E0,9.919118436E0
7.846738030E-1,-9.750752151E-2,-1.172483116E-1,-9.915857315E0,9.917029857E0
7.870996880E-1,-9.272187948E-2,-1.363908947E-1,-9.937691689E0,9.939060112E0
7.895255730E-1,-6.879365444E-2,-1.316052526E-1,-9.930213928E0,9.931324240E0
7.919514590E-1,-6.879365444E-2,-1.220339537E-1,-9.915857315E0,9.916846835E0
7.943773960E-1,-8.315058798E-2,-1.268195957E-1,-9.930213928E0,9.931371803E0
7.968032820E-1,-5.443671346E-2,-1.124626622E-1,-9.923035622E0,9.923822205E0
7.992291670E-1,-6.640082598E-2,-1.028913707E-1,-9.915857315E0,9.916613434E0
8.016550530E-1,-5.682953820E-2,-1.435693651E-1,-9.913464546E0,9.914666967E0
8.040809900E-1,-7.597211748E-2,-8.853443712E-2,-9.913464546E0,9.914150968E0
8.065068750E-1,-7.597211748E-2,-1.172483116E-1,-9.908679008E0,9.909663901E0
8.089327610E-1,-6.400800496E-2,-1.100698411E-1,-9.918250084E0,9.919067351E0
8.113586460E-1,-7.118647546E-2,-1.124626622E-1,-9.913464546E0,9.914358006E0
8.137845840E-1,-9.032905847E-2,-1.148554832E-1,-9.911071777E0,9.912148854E0
8.162104690E-1,-6.161518395E-2,-1.244267747E-1,-9.932906151E0,9.933876537E0
8.186363550E-1,-6.640082598E-2,-1.220339537E-1,-9.930213928E0,9.931185731E0
8.210622400E-1,-5.922235921E-2,-9.810572863E-2,-9.920642853E0,9.921304684E0
8.234881250E-1,-8.554340899E-2,-1.196411327E-1,-9.935298920E0,9.936387487E0
8.259140630E-1,-7.118647546E-2,-1.148554832E-1,-9.932906151E0,9.933825240E0
8.283399480E-1,-6.161518395E-2,-1.363908947E-1,-9.925428391E0,9.926556686E0
8.307658340E-1,-8.075776696E-2,-1.220339537E-1,-9.935298920E0,9.936376539E0
8.331917190E-1,-8.793623000E-2,-1.244267747E-1,-9.935298920E0,9.936467150E0
8.356176570E-1,-6.640082598E-2,-1.052841991E-1,-9.925428391E0,9.926208872E0
8.380435420E-1,-8.793623000E-2,-1.100698411E-1,-9.932906151E0,9.933905212E0
8.404694280E-1,-9.032905847E-2,-1.339980662E-1,-9.901499748E0,9.902818391E0
8.428953130E-1,-9.511470050E-2,-1.292124242E-1,-9.923035622E0,9.924332653E0
8.453211980E-1,-6.879365444E-2,-1.124626622E-1,-9.927821159E0,9.928696460E0
8.477471360E-1,-7.836493850E-2,-1.100698411E-1,-9.913464546E0,9.914385293E0
8.501730210E-1,-6.879365444E-2,-1.124626622E-1,-9.908679008E0,9.909556000E0
8.525989070E-1,-8.554340899E-2,-1.076770201E-1,-9.913464546E0,9.914418355E0
8.550247920E-1,-8.075776696E-2,-1.244267747E-1,-9.952048302E0,9.953153733E0
8.574507300E-1,-5.682953820E-2,-1.052841991E-1,-9.930213928E0,9.930934650E0
8.598766150E-1,-5.922235921E-2,-1.316052526E-1,-9.920642853E0,9.921692489E0
8.623025000E-1,-8.075776696E-2,-1.339980662E-1,-9.923035622E0,9.924268902E0
8.647283860E-1,-9.272187948E-2,-1.172483116E-1,-9.932906151E0,9.934030859E0
8.671542710E-1,-8.554340899E-2,-1.220339537E-1,-9.920642853E0,9.921762171E0
8.695802090E-1,-8.315058798E-2,-1.196411327E-1,-9.918250084E0,9.919320176E0
8.720060940E-1,-6.161518395E-2,-1.411765367E-1,-9.915857315E0,9.917053672E0
8.744319800E-1,-7.357929647E-2,-1.339980662E-1,-9.915857315E0,9.917035630E0
8.768578650E-1,-6.161518395E-2,-1.172483116E-1,-9.920642853E0,9.921527010E0
8.792838030E-1,-7.836493850E-2,-1.268195957E-1,-9.923035622E0,9.924155391E0
8.817096880E-1,-9.990034252E-2,-1.028913707E-1,-9.932906151E0,9.933941379E0
8.841355730E-1,-7.118647546E-2,-1.172483116E-1,-9.927821159E0,9.928768688E0
8.865614590E-1,-6.879365444E-2,-1.292124242E-1,-9.908679008E0,9.909760245E0
8.889873960E-1,-1.022931710E-1,-1.172483116E-1,-9.935298920E0,9.936517281E0
8.914132820E-1,-3.768695518E-2,-9.571290761E-2,-9.930213928E0,9.930746695E0
8.938391670E-1,-8.075776696E-2,-1.339980662E-1,-9.940084457E0,9.941315623E0
8.962650530E-1,-5.204389244E-2,-1.316052526E-1,-9.923035622E0,9.924044763E0
8.986909380E-1,-5.922235921E-2,-1.339980662E-1,-9.920642853E0,9.921724517E0
9.011168750E-1,-6.879365444E-2,-1.244267747E-1,-9.920642853E0,9.921661615E0
9.035427610E-1,-7.836493850E-2,-1.268195957E-1,-9.920642853E0,9.921762892E0
9.059686460E-1,-9.032905847E-2,-1.363908947E-1,-9.918250084E0,9.919599112E0
9.083945320E-1,-6.879365444E-2,-1.268195957E-1,-9.932906151E0,9.933953915E0
9.108204690E-1,-7.357929647E-2,-1.555334777E-1,-9.913464546E0,9.914957584E0
9.132463550E-1,-5.922235921E-2,-1.220339537E-1,-9.908679008E0,9.909607422E0
9.156722400E-1,-5.922235921E-2,-1.316052526E-1,-9.908679008E0,9.909729912E0
9.180981250E-1,-5.682953820E-2,-1.100698411E-1,-9.913464546E0,9.914238462E0
9.205240630E-1,-8.315058798E-2,-1.076770201E-1,-9.925428391E0,9.926360718E0
9.229499480E-1,-8.315058798E-2,-1.052841991E-1,-9.925428391E0,9.926335050E0
9.253758340E-1,-8.554340899E-2,-1.124626622E-1,-9.923035622E0,9.924041590E0
9.278017190E-1,-5.204389244E-2,-1.196411327E-1,-9.935298920E0,9.936155554E0
9.302276050E-1,-7.836493850E-2,-1.100698411E-1,-9.920642853E0,9.921562934E0
9.326535420E-1,-5.443671346E-2,-1.100698411E-1,-9.920642853E0,9.921402791E0
9.350794280E-1,-8.075776696E-2,-1.196411327E-1,-9.925428391E0,9.926477953E0
9.375053130E-1,-8.075776696E-2,-1.244267747E-1,-9.930213928E0,9.931321790E0
9.399311980E-1,-8.075776696E-2,-1.292124242E-1,-9.923035622E0,9.924205440E0
9.423570840E-1,-6.640082598E-2,-1.100698411E-1,-9.927821159E0,9.928653353E0
9.447830210E-1,-8.315058798E-2,-9.332008660E-2,-9.935298920E0,9.936085108E0
9.472089070E-1,-7.597211748E-2,-1.172483116E-1,-9.942477226E0,9.943458771E0
9.496347920E-1,-5.922235921E-2,-1.100698411E-1,-9.925428391E0,9.926215361E0
9.520606780E-1,-8.075776696E-2,-1.028913707E-1,-9.935298920E0,9.936159876E0
9.544866150E-1,-6.879365444E-2,-1.076770201E-1,-9.947262764E0,9.948083404E0
9.569125000E-1,-6.640082598E-2,-1.172483116E-1,-9.927821159E0,9.928735529E0
9.593383860E-1,-8.793623000E-2,-1.220339537E-1,-9.915857315E0,9.916998102E0
9.617642710E-1,-4.965107143E-2,-1.148554832E-1,-9.940084457E0,9.940871996E0
9.641902090E-1,-6.640082598E-2,-1.148554832E-1,-9.925428391E0,9.926315005E0
9.666160940E-1,-8.554340899E-2,-1.100698411E-1,-9.927821159E0,9.928799828E0
9.690419800E-1,-1.118644550E-1,-1.148554832E-1,-9.930213928E0,9.931508148E0
9.714678650E-1,-7.836493850E-2,-1.268195957E-1,-9.927821159E0,9.928940389E0
9.738937500E-1,-6.879365444E-2,-1.052841991E-1,-9.925428391E0,9.926225167E0
9.763196880E-1,-5.922235921E-2,-1.004985496E-1,-9.896714211E0,9.897401649E0
9.787455730E-1,-7.836493850E-2,-1.196411327E-1,-9.947262764E0,9.948290886E0
9.811714590E-1,-9.272187948E-2,-1.124626622E-1,-9.947262764E0,9.948330598E0
9.835973440E-1,-5.204389244E-2,-1.292124242E-1,-9.925428391E0,9.926405853E0
9.860232300E-1,-7.357929647E-2,-1.052841991E-1,-9.918250084E0,9.919081782E0
9.884491670E-1,-8.075776696E-2,-1.172483116E-1,-9.923035622E0,9.924056879E0
9.908750530E-1,-7.597211748E-2,-1.076770201E-1,-9.930213928E0,9.931088297E0
9.933009380E-1,-5.682953820E-2,-1.004985496E-1,-9.908679008E0,9.909351606E0
9.957268230E-1,-6.161518395E-2,-1.363908947E-1,-9.935298920E0,9.936426094E0
9.981527610E-1,-7.357929647E-2,-1.459621787E-1,-9.944869995E0,9.946213254E0
1.000578646E0,-7.597211748E-2,-1.100698411E-1,-9.932906151E0,9.933806508E0
1.003004532E0,-5.922235921E-2,-1.316052526E-1,-9.918250084E0,9.919299973E0
1.005430417E0,-5.443671346E-2,-1.100698411E-1,-9.915857315E0,9.916617620E0
1.007856355E0,-7.357929647E-2,-1.004985496E-1,-9.932906151E0,9.933687053E0
1.010282240E0,-6.161518395E-2,-1.196411327E-1,-9.925428391E0,9.926340674E0
1.012708125E0,-6.400800496E-2,-1.052841991E-1,-9.935298920E0,9.936062923E0
1.015134011E0,-6.879365444E-2,-1.316052526E-1,-9.932906151E0,9.934016162E0
1.017559896E0,-1.142572835E-1,-1.124626622E-1,-9.942477226E0,9.943769706E0
1.019985834E0,-6.161518395E-2,-1.220339537E-1,-9.935298920E0,9.936239396E0
1.022411719E0,-5.922235921E-2,-1.292124242E-1,-9.935298920E0,9.936315603E0
1.024837605E0,-6.879365444E-2,-1.411765367E-1,-9.930213928E0,9.931455686E0
1.027263490E0,-9.272187948E-2,-1.316052526E-1,-9.932906151E0,9.934210683E0
1.029689375E0,-9.032905847E-2,-1.339980662E-1,-9.940084457E0,9.941397982E0
1.032115313E0,-7.357929647E-2,-9.810572863E-2,-9.927821159E0,9.928578530E0
1.034541198E0,-4.486542568E-2,-8.135596663E-2,-9.932906151E0,9.933340642E0
1.036967084E0,-6.640082598E-2,-1.148554832E-1,-9.911071777E0,9.911959676E0
1.039392969E0,-6.400800496E-2,-1.268195957E-1,-9.937691689E0,9.938706975E0
1.041818907E0,-6.879365444E-2,-1.172483116E-1,-9.927821159E0,9.928751820E0
1.044244792E0,-7.836493850E-2,-1.220339537E-1,-9.913464546E0,9.914525337E0
1.046670678E0,-8.793623000E-2,-1.220339537E-1,-9.940084457E0,9.941222464E0
1.049096563E0,-5.682953820E-2,-9.332008660E-2,-9.927821159E0,9.928422393E0
1.051522500E0,-7.357929647E-2,-1.268195957E-1,-9.930213928E0,9.931296279E0
1.053948386E0,-5.204389244E-2,-1.555334777E-1,-9.918250084E0,9.919606038E0
1.056374271E0,-8.315058798E-2,-1.316052526E-1,-9.935298920E0,9.936518434E0
1.058800157E0,-8.075776696E-2,-1.363908947E-1,-9.932906151E0,9.934170770E0
1.061226042E0,-8.075776696E-2,-1.172483116E-1,-9.947262764E0,9.948281534E0
1.063651980E0,-1.046859920E-1,-1.196411327E-1,-9.947262764E0,9.948533040E0
1.066077865E0,-7.597211748E-2,-1.292124242E-1,-9.923035622E0,9.924167651E0
1.068503750E0,-8.793623000E-2,-1.316052526E-1,-9.937691689E0,9.938952099E0
1.070929636E0,-5.922235921E-2,-1.220339537E-1,-9.923035622E0,9.923962692E0
1.073355573E0,-9.272187948E-2,-1.363908947E-1,-9.930213928E0,9.931583382E0
1.075781459E0,-8.554340899E-2,-1.124626622E-1,-9.915857315E0,9.916864011E0
1.078207344E0,-9.990034252E-2,-1.028913707E-1,-9.915857315E0,9.916894323E0
1.080633230E0,-9.750752151E-2,-1.244267747E-1,-9.937691689E0,9.938948930E0
1.083059115E0,-7.597211748E-2,-1.292124242E-1,-9.932906151E0,9.934037055E0
1.085485053E0,-7.118647546E-2,-1.268195957E-1,-9.942477226E0,9.943540824E0
1.087910938E0,-7.118647546E-2,-1.172483116E-1,-9.935298920E0,9.936245735E0
1.090336823E0,-6.400800496E-2,-1.148554832E-1,-9.927821159E0,9.928691846E0
1.092762709E0,-5.443671346E-2,-1.076770201E-1,-9.932906151E0,9.933638925E0
1.095188646E0,-7.357929647E-2,-1.004985496E-1,-9.925428391E0,9.926209881E0
1.097614532E0,-7.836493850E-2,-1.316052526E-1,-9.918250084E0,9.919432732E0
1.100040417E0,-6.400800496E-2,-1.172483116E-1,-9.927821159E0,9.928719815E0
1.102466303E0,-9.032905847E-2,-1.148554832E-1,-9.923035622E0,9.924111399E0
1.104892188E0,-5.443671346E-2,-1.435693651E-1,-9.944869995E0,9.946055235E0
1.107318125E0,-6.400800496E-2,-1.316052526E-1,-9.911071777E0,9.912152175E0
1.109744011E0,-6.879365444E-2,-1.316052526E-1,-9.920642853E0,9.921754236E0
1.112169896E0,-5.922235921E-2,-1.387837082E-1,-9.911071777E0,9.912220336E0
1.114595782E0,-7.836493850E-2,-1.268195957E-1,-9.920642853E0,9.921762892E0
1.117021719E0,-7.118647546E-2,-1.292124242E-1,-9.918250084E0,9.919347161E0
1.119447605E0,-6.161518395E-2,-1.292124242E-1,-9.923035622E0,9.924068129E0
1.121873490E0,-7.597211748E-2,-1.339980662E-1,-9.920642853E0,9.921838633E0
1.124299375E0,-7.836493850E-2,-1.220339537E-1,-9.923035622E0,9.924095389E0
1.126725261E0,-6.400800496E-2,-1.028913707E-1,-9.918250084E0,9.918990291E0
1.129151198E0,-4.247260094E-2,-1.339980662E-1,-9.925428391E0,9.926423734E0
1.131577084E0,-7.597211748E-2,-1.124626622E-1,-9.927821159E0,9.928748793E0
1.134002969E0,-7.357929647E-2,-1.268195957E-1,-9.925428391E0,9.926511263E0
1.136428855E0,-9.990034252E-2,-1.148554832E-1,-9.932906151E0,9.934072501E0
1.138854792E0,-7.118647546E-2,-1.292124242E-1,-9.915857315E0,9.916954656E0
1.141280678E0,-8.315058798E-2,-1.076770201E-1,-9.925428391E0,9.926360718E0
1.143706563E0,-6.161518395E-2,-1.100698411E-1,-9.952048302E0,9.952847693E0
1.146132448E0,-8.075776696E-2,-1.196411327E-1,-9.918250084E0,9.919300406E0
1.148558386E0,-8.075776696E-2,-1.172483116E-1,-9.913464546E0,9.914486789E0
1.150984271E0,-6.879365444E-2,-1.172483116E-1,-9.908679008E0,9.909611467E0
1.153410157E0,-7.118647546E-2,-1.172483116E-1,-9.911071777E0,9.912020907E0
1.155836042E0,-7.597211748E-2,-1.148554832E-1,-9.937691689E0,9.938645765E0
1.158261928E0,-7.836493850E-2,-1.196411327E-1,-9.935298920E0,9.936328280E0
1.160687865E0,-5.204389244E-2,-1.244267747E-1,-9.923035622E0,9.923952163E0
1.163113750E0,-6.879365444E-2,-1.339980662E-1,-9.920642853E0,9.921786264E0
1.165539636E0,-5.204389244E-2,-1.052841991E-1,-9.927821159E0,9.928515816E0
1.167965521E0,-7.118647546E-2,-1.028913707E-1,-9.925428391E0,9.926216947E0
1.170391459E0,-6.400800496E-2,-1.292124242E-1,-9.915857315E0,9.916905725E0
1.172817344E0,-9.032905847E-2,-1.004985496E-1,-9.937691689E0,9.938610335E0
1.175243230E0,-6.879365444E-2,-1.220339537E-1,-9.952048302E0,9.953034223E0
1.177669115E0,-7.597211748E-2,-1.244267747E-1,-9.908679008E0,9.909751434E0
1.180095053E0,-5.922235921E-2,-1.100698411E-1,-9.925428391E0,9.926215361E0
1.182520938E0,-7.836493850E-2,-1.148554832E-1,-9.925428391E0,9.926402248E0
1.184946823E0,-6.879365444E-2,-1.148554832E-1,-9.935298920E0,9.936200933E0
1.187372709E0,-7.357929647E-2,-1.196411327E-1,-9.937691689E0,9.938684219E0
1.189798594E0,-7.357929647E-2,-1.244267747E-1,-9.920642853E0,9.921695951E0
1.192224532E0,-9.272187948E-2,-1.196411327E-1,-9.911071777E0,9.912227556E0
1.194650417E0,-9.511470050E-2,-1.076770201E-1,-9.915857315E0,9.916898075E0
1.197076303E0,-5.682953820E-2,-1.196411327E-1,-9.913464546E0,9.914349344E0
1.199502188E0,-7.118647546E-2,-1.100698411E-1,-9.927821159E0,9.928686512E0
1.201928125E0,-9.990034252E-2,-1.052841991E-1,-9.918250084E0,9.919311950E0
1.204354011E0,-9.032905847E-2,-1.124626622E-1,-9.925428391E0,9.926476511E0
1.206779896E0,-8.554340899E-2,-1.196411327E-1,-9.913464546E0,9.914555511E0
1.209205782E0,-7.118647546E-2,-1.603191197E-1,-9.927821159E0,9.929370711E0
1.211631667E0,-6.640082598E-2,-1.268195957E-1,-9.942477226E0,9.943507715E0
1.214057605E0,-7.597211748E-2,-1.100698411E-1,-9.925428391E0,9.926329426E0
1.216483490E0,-1.046859920E-1,-1.244267747E-1,-9.918250084E0,9.919582950E0
1.218909375E0,-8.793623000E-2,-1.124626622E-1,-9.925428391E0,9.926455025E0
1.221335261E0,-8.793623000E-2,-1.124626622E-1,-9.954441071E0,9.955464713E0
1.223761198E0,-8.554340899E-2,-1.148554832E-1,-9.940084457E0,9.941116058E0
1.226187084E0,-7.357929647E-2,-1.196411327E-1,-9.923035622E0,9.924029618E0
1.228612969E0,-9.272187948E-2,-1.196411327E-1,-9.930213928E0,9.931367479E0
1.231038855E0,-8.315058798E-2,-8.853443712E-2,-9.923035622E0,9.923778933E0
1.233464740E0,-6.161518395E-2,-9.810572863E-2,-9.935298920E0,9.935974325E0
1.235890678E0,-6.640082598E-2,-1.052841991E-1,-9.913464546E0,9.914245969E0
1.238316563E0,-7.118647546E-2,-1.339980662E-1,-9.920642853E0,9.921803143E0
1.240742448E0,-6.640082598E-2,-1.148554832E-1,-9.927821159E0,9.928707561E0
1.243168334E0,-6.879365444E-2,-1.387837082E-1,-9.923035622E0,9.924244527E0
1.245594219E0,-8.075776696E-2,-1.196411327E-1,-9.918250084E0,9.919300406E0
1.248020157E0,-7.118647546E-2,-1.411765367E-1,-9.908679008E0,9.909940364E0
1.250446042E0,-8.793623000E-2,-1.220339537E-1,-9.923035622E0,9.924175584E0
1.252871928E0,-9.511470050E-2,-1.244267747E-1,-9.913464546E0,9.914701616E0
1.255297813E0,-7.357929647E-2,-1.196411327E-1,-9.937691689E0,9.938684219E0
1.257723750E0,-8.075776696E-2,-1.268195957E-1,-9.920642853E0,9.921782080E0
1.260149636E0,-7.597211748E-2,-1.268195957E-1,-9.903892517E0,9.904995808E0
1.262575521E0,-8.315058798E-2,-1.292124242E-1,-9.932906151E0,9.934094547E0
1.265001407E0,-5.443671346E-2,-1.196411327E-1,-9.899106979E0,9.899979613E0
1.267427344E0,-7.118647546E-2,-1.148554832E-1,-9.940084457E0,9.941002883E0
1.269853230E0,-8.793623000E-2,-1.076770201E-1,-9.918250084E0,9.919224357E0
1.272279115E0,-7.118647546E-2,-1.268195957E-1,-9.920642853E0,9.921708791E0
1.274705000E0,-9.272187948E-2,-1.316052526E-1,-9.918250084E0,9.919556543E0
1.277130938E0,-4.965107143E-2,-1.148554832E-1,-9.932906151E0,9.933694258E0
1.279556823E0,-7.357929647E-2,-9.810572863E-2,-9.927821159E0,9.928578530E0
1.281982709E0,-8.315058798E-2,-1.244267747E-1,-9.903892517E0,9.905023121E0
1.284408594E0,-4.486542568E-2,-1.268195957E-1,-9.903892517E0,9.904806061E0
1.286834480E0,-8.554340899E-2,-1.076770201E-1,-9.915857315E0,9.916810894E0
1.289260365E0,-8.075776696E-2,-1.196411327E-1,-9.930213928E0,9.931262985E0
1.291686303E0,-8.554340899E-2,-1.292124242E-1,-9.927821159E0,9.929030491E0
1.294112188E0,-8.075776696E-2,-1.244267747E-1,-9.925428391E0,9.926536787E0
1.296538073E0,-6.879365444E-2,-1.316052526E-1,-9.923035622E0,9.924146737E0
1.298963959E0,-6.161518395E-2,-1.339980662E-1,-9.947262764E0,9.948356066E0
1.301389896E0,-8.793623000E-2,-1.411765367E-1,-9.944869995E0,9.946260745E0
1.303815782E0,-9.511470050E-2,-1.244267747E-1,-9.915857315E0,9.917094087E0
1.306241667E0,-7.836493850E-2,-1.316052526E-1,-9.925428391E0,9.926610184E0
1.308667553E0,-8.554340899E-2,-1.196411327E-1,-9.915857315E0,9.916948017E0
1.311093438E0,-7.357929647E-2,-1.292124242E-1,-9.923035622E0,9.924149622E0
1.313519375E0,-6.879365444E-2,-1.124626622E-1,-9.925428391E0,9.926303902E0
1.315945261E0,-6.640082598E-2,-1.076770201E-1,-9.925428391E0,9.926234540E0
1.318371146E0,-7.597211748E-2,-1.292124242E-1,-9.918250084E0,9.919382659E0
1.320797032E0,-5.922235921E-2,-1.148554832E-1,-9.925428391E0,9.926269582E0
1.323222969E0,-7.357929647E-2,-1.268195957E-1,-9.932906151E0,9.933988208E0
1.325648855E0,-9.750752151E-2,-1.196411327E-1,-9.911071777E0,9.912273478E0
1.328074740E0,-8.075776696E-2,-1.172483116E-1,-9.937691689E0,9.938711440E0
1.330500625E0,-6.640082598E-2,-1.316052526E-1,-9.930213928E0,9.931307954E0
1.332926563E0,-6.640082598E-2,-1.244267747E-1,-9.930213928E0,9.931215422E0
1.335352448E0,-8.075776696E-2,-1.220339537E-1,-9.935298920E0,9.936376539E0
1.337778334E0,-7.118647546E-2,-1.004985496E-1,-9.920642853E0,9.921407263E0
1.340204219E0,-7.836493850E-2,-1.363908947E-1,-9.920642853E0,9.921889848E0
1.342630105E0,-7.357929647E-2,-1.220339537E-1,-9.940084457E0,9.941105835E0
1.345056042E0,-7.836493850E-2,-1.459621787E-1,-9.915857315E0,9.917241164E0
1.347481928E0,-7.357929647E-2,-1.148554832E-1,-9.932906151E0,9.933842675E0
1.349907813E0,-7.357929647E-2,-1.124626622E-1,-9.911071777E0,9.911982927E0
1.352333698E0,-5.922235921E-2,-1.316052526E-1,-9.915857315E0,9.916907458E0
1.354759636E0,-6.400800496E-2,-1.339980662E-1,-9.918250084E0,9.919361735E0
1.357185521E0,-7.597211748E-2,-1.555334777E-1,-9.925428391E0,9.926937653E0
1.359611407E0,-4.965107143E-2,-1.148554832E-1,-9.932906151E0,9.933694258E0
1.362037292E0,-6.161518395E-2,-1.124626622E-1,-9.925428391E0,9.926256747E0
1.364463230E0,-8.075776696E-2,-1.220339537E-1,-9.915857315E0,9.916937047E0
1.366889115E0,-8.315058798E-2,-1.172483116E-1,-9.903892517E0,9.904935546E0
1.369315000E0,-8.075776696E-2,-1.052841991E-1,-9.899106979E0,9.899996241E0
1.371740886E0,-6.879365444E-2,-1.076770201E-1,-9.920642853E0,9.921465694E0
1.374166771E0,-6.640082598E-2,-1.316052526E-1,-9.930213928E0,9.931307954E0
1.376592657E0,-5.204389244E-2,-1.196411327E-1,-9.925428391E0,9.926285877E0
1.379018594E0,-7.118647546E-2,-1.220339537E-1,-9.944869995E0,9.945873467E0
1.381444480E0,-6.640082598E-2,-1.004985496E-1,-9.932906151E0,9.933636476E0
1.383870365E0,-7.597211748E-2,-1.052841991E-1,-9.927821159E0,9.928670077E0
1.386296303E0,-7.597211748E-2,-1.292124242E-1,-9.930213928E0,9.931345139E0
1.388722188E0,-9.990034252E-2,-1.363908947E-1,-9.913464546E0,9.914906044E0
1.391148073E0,-7.357929647E-2,-1.172483116E-1,-9.906285286E0,9.907252356E0
1.393573959E0,-6.640082598E-2,-1.076770201E-1,-9.918250084E0,9.919056817E0
1.395999844E0,-7.357929647E-2,-1.172483116E-1,-9.937691689E0,9.938655703E0
1.398425782E0,-6.400800496E-2,-1.052841991E-1,-9.923035622E0,9.923800569E0
1.400851667E0,-5.922235921E-2,-1.004985496E-1,-9.930213928E0,9.930899048E0
1.403277553E0,-5.443671346E-2,-1.052841991E-1,-9.935298920E0,9.936005875E0
1.405703438E0,-9.272187948E-2,-1.172483116E-1,-9.944869995E0,9.945993351E0
1.408129375E0,-9.750752151E-2,-1.196411327E-1,-9.925428391E0,9.926628353E0
1.410555261E0,-9.272187948E-2,-1.076770201E-1,-9.930213928E0,9.931230556E0
1.412981146E0,-1.070788130E-1,-1.028913707E-1,-9.918250084E0,9.919361735E0
1.415407032E0,-7.357929647E-2,-1.244267747E-1,-9.927821159E0,9.928873496E0
1.417832917E0,-7.118647546E-2,-1.196411327E-1,-9.923035622E0,9.924012166E0
1.420258855E0,-9.750752151E-2,-1.076770201E-1,-9.932906151E0,9.933968324E0
1.422684740E0,-6.400800496E-2,-1.268195957E-1,-9.918250084E0,9.919267360E0
1.425110625E0,-8.554340899E-2,-1.268195957E-1,-9.925428391E0,9.926607156E0
1.427536511E0,-7.836493850E-2,-1.100698411E-1,-9.915857315E0,9.916777840E0
1.429962396E0,-7.357929647E-2,-1.268195957E-1,-9.913464546E0,9.914548726E0
1.432388334E0,-5.682953820E-2,-1.220339537E-1,-9.923035622E0,9.923948702E0
1.434814219E0,-5.922235921E-2,-1.148554832E-1,-9.918250084E0,9.919091884E0
1.437240105E0,-8.554340899E-2,-1.196411327E-1,-9.908679008E0,9.909770500E0
1.439665990E0,-9.272187948E-2,-1.339980662E-1,-9.925428391E0,9.926765917E0
1.442091928E0,-5.443671346E-2,-1.148554832E-1,-9.906285286E0,9.907100651E0
1.444517813E0,-1.022931710E-1,-1.244267747E-1,-9.927821159E0,9.929127801E0
1.446943698E0,-8.793623000E-2,-1.148554832E-1,-9.935298920E0,9.936351905E0
1.449369584E0,-6.400800496E-2,-1.124626622E-1,-9.923035622E0,9.923879323E0
1.451795521E0,-7.597211748E-2,-1.052841991E-1,-9.930213928E0,9.931062641E0
1.454221407E0,-6.640082598E-2,-1.196411327E-1,-9.932906151E0,9.933848583E0
1.456647292E0,-4.486542568E-2,-1.028913707E-1,-9.935298920E0,9.935932979E0
1.459073178E0,-7.836493850E-2,-1.196411327E-1,-9.911071777E0,9.912103654E0
1.461499063E0,-6.161518395E-2,-9.332008660E-2,-9.918250084E0,9.918880471E0
1.463925000E0,-8.793623000E-2,-1.244267747E-1,-9.935298920E0,9.936467150E0
1.466350886E0,-9.511470050E-2,-1.292124242E-1,-9.930213928E0,9.931510022E0
1.468776771E0,-7.118647546E-2,-1.196411327E-1,-9.927821159E0,9.928797233E0
1.471202657E0,-9.272187948E-2,-1.292124242E-1,-9.918250084E0,9.919525086E0
1.473628594E0,-9.032905847E-2,-1.459621787E-1,-9.913464546E0,9.914950509E0
1.476054480E0,-8.315058798E-2,-1.483550072E-1,-9.923035622E0,9.924492893E0
1.478480365E0,-7.836493850E-2,-1.196411327E-1,-9.906285286E0,9.907317661E0
1.480906250E0,-5.922235921E-2,-1.052841991E-1,-9.944869995E0,9.945603615E0
1.483332136E0,-7.357929647E-2,-1.172483116E-1,-9.932906151E0,9.933870629E0
1.485758073E0,-6.400800496E-2,-1.124626622E-1,-9.911071777E0,9.911916497E0
1.488183959E0,-8.315058798E-2,-1.100698411E-1,-9.927821159E0,9.928779500E0
1.490609844E0,-7.836493850E-2,-1.244267747E-1,-9.930213928E0,9.931302621E0
1.493035730E0,-7.597211748E-2,-1.148554832E-1,-9.911071777E0,9.912028416E0
1.495461667E0,-1.022931710E-1,-1.220339537E-1,-9.927821159E0,9.929098104E0
1.497887553E0,-7.836493850E-2,-1.148554832E-1,-9.927821159E0,9.928794782E0
1.500313438E0,-8.554340899E-2,-1.124626622E-1,-9.923035622E0,9.924041590E0
1.502739323E0,-7.118647546E-2,-1.268195957E-1,-9.942477226E0,9.943540824E0
1.505165209E0,-9.511470050E-2,-1.148554832E-1,-9.918250084E0,9.919371115E0
1.507591146E0,-7.597211748E-2,-1.028913707E-1,-9.920642853E0,9.921467281E0
1.510017032E0,-9.990034252E-2,-1.316052526E-1,-9.918250084E0,9.919626240E0
1.512442917E0,-8.075776696E-2,-1.052841991E-1,-9.952048302E0,9.952932833E0
1.514868803E0,-7.357929647E-2,-9.571290761E-2,-9.923035622E0,9.923769990E0
1.517294740E0,-8.793623000E-2,-1.220339537E-1,-9.918250084E0,9.919390596E0
1.519720625E0,-7.836493850E-2,-1.363908947E-1,-9.932906151E0,9.934151606E0
1.522146511E0,-8.075776696E-2,-1.148554832E-1,-9.942477226E0,9.943468559E0
1.524572396E0,-7.597211748E-2,-1.076770201E-1,-9.927821159E0,9.928695739E0
1.526998282E0,-6.640082598E-2,-1.100698411E-1,-9.911071777E0,9.911905378E0
1.529424219E0,-8.075776696E-2,-1.148554832E-1,-9.930213928E0,9.931206486E0
1.531850105E0,-5.682953820E-2,-1.004985496E-1,-9.925428391E0,9.926099853E0
1.534275990E0,-6.400800496E-2,-9.571290761E-2,-9.930213928E0,9.930881464E0
1.536701875E0,-6.640082598E-2,-1.339980662E-1,-9.937691689E0,9.938816864E0
1.539127761E0,-4.247260094E-2,-1.100698411E-1,-9.920642853E0,9.921344360E0
1.541553698E0,-6.879365444E-2,-1.100698411E-1,-9.927821159E0,9.928669644E0
1.543979584E0,-7.836493850E-2,-1.052841991E-1,-9.911071777E0,9.911940759E0
1.546405469E0,-6.879365444E-2,-1.339980662E-1,-9.920642853E0,9.921786264E0
1.548831355E0,-9.032905847E-2,-1.076770201E-1,-9.932906151E0,9.933900457E0
1.551257292E0,-5.922235921E-2,-1.172483116E-1,-9.911071777E0,9.911942203E0
1.553683178E0,-5.922235921E-2,-9.092725813E-2,-9.920642853E0,9.921236297E0
1.556109063E0,-9.511470050E-2,-9.810572863E-2,-9.903892517E0,9.904835109E0
1.558534948E0,-9.032905847E-2,-1.052841991E-1,-9.932906151E0,9.933874808E0
1.560960886E0,-8.075776696E-2,-1.244267747E-1,-9.925428391E0,9.926536787E0
1.563386771E0,-5.922235921E-2,-1.387837082E-1,-9.930213928E0,9.931360273E0
1.565812657E0,-8.554340899E-2,-1.220339537E-1,-9.918250084E0,9.919369672E0
1.568238542E0,-5.682953820E-2,-1.028913707E-1,-9.913464546E0,9.914161363E0
1.570664428E0,-8.793623000E-2,-1.100698411E-1,-9.923035622E0,9.924035676E0
1.573090365E0,-7.118647546E-2,-1.196411327E-1,-9.932906151E0,9.933881724E0
1.575516250E0,-7.597211748E-2,-1.052841991E-1,-9.927821159E0,9.928670077E0
1.577942136E0,-6.640082598E-2,-1.172483116E-1,-9.930213928E0,9.931128078E0
1.580368021E0,-7.357929647E-2,-9.810572863E-2,-9.940084457E0,9.940840893E0
1.582793907E0,-7.357929647E-2,-1.268195957E-1,-9.937691689E0,9.938773225E0
1.585219844E0,-8.793623000E-2,-1.172483116E-1,-9.911071777E0,9.912155352E0
1.587645730E0,-7.357929647E-2,-1.028913707E-1,-9.930213928E0,9.931019545E0
1.590071615E0,-6.640082598E-2,-1.196411327E-1,-9.927821159E0,9.928764074E0
1.592497500E0,-6.879365444E-2,-1.316052526E-1,-9.925428391E0,9.926539238E0
1.594923438E0,-7.357929647E-2,-1.124626622E-1,-9.911071777E0,9.911982927E0
1.597349323E0,-6.640082598E-2,-1.244267747E-1,-9.932906151E0,9.933907373E0
1.599775209E0,-8.075776696E-2,-1.363908947E-1,-9.927821159E0,9.929086427E0
1.602201094E0,-8.554340899E-2,-1.124626622E-1,-9.940084457E0,9.941088700E0
1.604627032E0,-6.161518395E-2,-1.220339537E-1,-9.925428391E0,9.926369802E0
1.607052917E0,-8.075776696E-2,-1.052841991E-1,-9.903892517E0,9.904781349E0
1.609478803E0,-7.357929647E-2,-1.100698411E-1,-9.927821159E0,9.928703956E0
1.611904688E0,-8.315058798E-2,-1.076770201E-1,-9.918250084E0,9.919183086E0
1.614330573E0,-8.554340899E-2,-1.172483116E-1,-9.918250084E0,9.919311950E0
1.616756511E0,-7.597211748E-2,-1.268195957E-1,-9.918250084E0,9.919351778E0
1.619182396E0,-7.118647546E-2,-1.220339537E-1,-9.913464546E0,9.914471197E0
1.621608282E0,-7.357929647E-2,-1.268195957E-1,-9.927821159E0,9.928903771E0
1.624034167E0,-5.922235921E-2,-1.339980662E-1,-9.923035622E0,9.924117025E0
1.626460105E0,-7.357929647E-2,-1.292124242E-1,-9.925428391E0,9.926542122E0
1.628885990E0,-8.075776696E-2,-1.124626622E-1,-9.949655533E0,9.950618819E0
1.631311875E0,-7.836493850E-2,-1.244267747E-1,-9.925428391E0,9.926517608E0
1.633737761E0,-6.879365444E-2,-1.363908947E-1,-9.932906151E0,9.934080715E0
1.636163646E0,-6.400800496E-2,-1.100698411E-1,-9.925428391E0,9.926245067E0
1.638589584E0,-7.597211748E-2,-1.363908947E-1,-9.937691689E0,9.938917966E0
1.641015469E0,-8.075776696E-2,-1.172483116E-1,-9.920642853E0,9.921664356E0
1.643441355E0,-1.046859920E-1,-1.172483116E-1,-9.920642853E0,9.921887972E0
1.645867240E0,-7.836493850E-2,-1.076770201E-1,-9.944869995E0,9.945761641E0
1.648293178E0,-8.554340899E-2,-1.124626622E-1,-9.949655533E0,9.950658810E0
1.650719063E0,-8.315058798E-2,-1.076770201E-1,-9.944869995E0,9.945800500E0
1.653144948E0,-6.640082598E-2,-1.411765367E-1,-9.923035622E0,9.924261979E0
1.655570834E0,-7.357929647E-2,-1.124626622E-1,-9.940084457E0,9.940992948E0
1.657996719E0,-8.075776696E-2,-9.810572863E-2,-9.930213928E0,9.931026896E0
1.660422657E0,-9.032905847E-2,-1.244267747E-1,-9.937691689E0,9.938881097E0
1.662848542E0,-6.640082598E-2,-1.196411327E-1,-9.920642853E0,9.921586450E0
1.665274428E0,-6.640082598E-2,-9.092725813E-2,-9.932906151E0,9.933544254E0
1.667700313E0,-9.990034252E-2,-1.076770201E-1,-9.920642853E0,9.921730143E0
1.670126250E0,-1.070788130E-1,-1.292124242E-1,-9.918250084E0,9.919669674E0
1.672552136E0,-5.443671346E-2,-1.411765367E-1,-9.899106979E0,9.900263287E0
1.674978021E0,-6.161518395E-2,-1.244267747E-1,-9.920642853E0,9.921614438E0
1.677403907E0,-7.357929647E-2,-1.244267747E-1,-9.927821159E0,9.928873496E0
1.679829792E0,-5.682953820E-2,-1.292124242E-1,-9.915857315E0,9.916861991E0
1.682255730E0,-6.640082598E-2,-1.363908947E-1,-9.923035622E0,9.924195055E0
1.684681615E0,-6.879365444E-2,-1.100698411E-1,-9.920642853E0,9.921491952E0
1.687107500E0,-8.793623000E-2,-1.316052526E-1,-9.932906151E0,9.934167168E0
1.689533386E0,-8.315058798E-2,-1.052841991E-1,-9.918250084E0,9.919157399E0
1.691959323E0,-4.247260094E-2,-1.244267747E-1,-9.935298920E0,9.936168807E0
1.694385209E0,-6.161518395E-2,-1.292124242E-1,-9.911071777E0,9.912105531E0
1.696811094E0,-9.032905847E-2,-1.052841991E-1,-9.937691689E0,9.938659879E0
1.699236980E0,-5.443671346E-2,-1.148554832E-1,-9.930213928E0,9.931027328E0
1.701662865E0,-7.836493850E-2,-1.316052526E-1,-9.918250084E0,9.919432732E0
1.704088803E0,-9.750752151E-2,-1.316052526E-1,-9.932906151E0,9.934256503E0
1.706514688E0,-7.836493850E-2,-1.339980662E-1,-9.918250084E0,9.919464767E0
1.708940573E0,-9.511470050E-2,-1.316052526E-1,-9.920642853E0,9.921971647E0
1.711366459E0,-7.357929647E-2,-1.339980662E-1,-9.923035622E0,9.924213084E0
1.713792396E0,-6.400800496E-2,-1.148554832E-1,-9.915857315E0,9.916729052E0
1.716218282E0,-8.075776696E-2,-1.172483116E-1,-9.927821159E0,9.928841924E0
1.718644167E0,-7.836493850E-2,-1.052841991E-1,-9.927821159E0,9.928688675E0
1.721070053E0,-6.400800496E-2,-1.363908947E-1,-9.930213928E0,9.931356814E0
1.723495938E0,-6.640082598E-2,-1.268195957E-1,-9.952048302E0,9.953077799E0
1.725921875E0,-7.118647546E-2,-1.220339537E-1,-9.918250084E0,9.919256249E0
1.728347761E0,-8.554340899E-2,-1.196411327E-1,-9.920642853E0,9.921733028E0
1.730773646E0,-9.272187948E-2,-1.124626622E-1,-9.918250084E0,9.919321042E0
1.733199532E0,-8.793623000E-2,-1.220339537E-1,-9.923035622E0,9.924175584E0
1.735625469E0,-8.075776696E-2,-1.172483116E-1,-9.942477226E0,9.943496487E0
1.738051355E0,-9.990034252E-2,-9.810572863E-2,-9.915857315E0,9.916845824E0
1.740477240E0,-9.990034252E-2,-1.076770201E-1,-9.927821159E0,9.928907664E0
1.742903125E0,-8.554340899E-2,-1.148554832E-1,-9.925428391E0,9.926461514E0
1.745329011E0,-7.836493850E-2,-1.124626622E-1,-9.913464546E0,9.914412147E0
1.747754948E0,-9.032905847E-2,-1.244267747E-1,-9.940084457E0,9.941273579E0
1.750180834E0,-4.725824669E-2,-1.316052526E-1,-9.901499748E0,9.902487089E0
1.752606719E0,-5.922235921E-2,-1.411765367E-1,-9.923035622E0,9.924216546E0
1.755032605E0,-9.272187948E-2,-1.292124242E-1,-9.932906151E0,9.934179272E0
1.757458542E0,-6.161518395E-2,-1.411765367E-1,-9.911071777E0,9.912268712E0
1.759884428E0,-1.022931710E-1,-1.220339537E-1,-9.925428391E0,9.926705643E0
1.762310313E0,-8.554340899E-2,-1.292124242E-1,-9.935298920E0,9.936507342E0
1.764736198E0,-1.022931710E-1,-1.172483116E-1,-9.930213928E0,9.931432914E0
1.767162084E0,-9.750752151E-2,-1.148554832E-1,-9.911071777E0,9.912216870E0
1.769588021E0,-9.032905847E-2,-1.172483116E-1,-9.927821159E0,9.928924387E0
1.772013907E0,-7.836493850E-2,-1.148554832E-1,-9.925428391E0,9.926402248E0
1.774439792E0,-1.094716340E-1,-1.220339537E-1,-9.940084457E0,9.941436282E0
1.776865678E0,-9.032905847E-2,-1.148554832E-1,-9.920642853E0,9.921718890E0
1.779291615E0,-7.836493850E-2,-1.196411327E-1,-9.908679008E0,9.909711134E0
1.781717500E0,-8.315058798E-2,-1.220339537E-1,-9.923035622E0,9.924134333E0
1.784143386E0,-6.161518395E-2,-1.172483116E-1,-9.923035622E0,9.923919566E0
1.786569271E0,-4.965107143E-2,-1.196411327E-1,-9.925428391E0,9.926273619E0
1.788995157E0,-8.075776696E-2,-1.316052526E-1,-9.937691689E0,9.938891178E0
1.791421094E0,-7.357929647E-2,-1.220339537E-1,-9.913464546E0,9.914488666E0
1.793846980E0,-9.272187948E-2,-1.339980662E-1,-9.925428391E0,9.926765917E0
1.796272865E0,-8.075776696E-2,-1.172483116E-1,-9.932906151E0,9.933926393E0
1.798698750E0,-9.032905847E-2,-1.172483116E-1,-9.918250084E0,9.919354376E0
1.801124688E0,-8.075776696E-2,-1.244267747E-1,-9.937691689E0,9.938798717E0
1.803550573E0,-7.357929647E-2,-1.196411327E-1,-9.915857315E0,9.916852031E0
1.805976459E0,-6.879365444E-2,-1.363908947E-1,-9.923035622E0,9.924211354E0
1.808402344E0,-8.315058798E-2,-1.339980662E-1,-9.918250084E0,9.919503729E0
1.810828230E0,-9.272187948E-2,-1.196411327E-1,-9.932906151E0,9.934059389E0
1.813254167E0,-6.879365444E-2,-1.244267747E-1,-9.923035622E0,9.924054138E0
1.815680053E0,-6.640082598E-2,-9.810572863E-2,-9.925428391E0,9.926135327E0
1.818105938E0,-8.075776696E-2,-1.028913707E-1,-9.930213928E0,9.931075325E0
1.820531823E0,-6.640082598E-2,-1.196411327E-1,-9.913464546E0,9.914408827E0
1.822957761E0,-6.879365444E-2,-9.092725813E-2,-9.925428391E0,9.926083269E0
1.825383646E0,-7.836493850E-2,-1.148554832E-1,-9.920642853E0,9.921617180E0
1.827809532E0,-4.007977992E-2,-1.292124242E-1,-9.920642853E0,9.921565242E0
1.830235417E0,-7.597211748E-2,-1.052841991E-1,-9.920642853E0,9.921492385E0
1.832661303E0,-8.315058798E-2,-1.172483116E-1,-9.923035622E0,9.924076639E0
1.835087240E0,-7.597211748E-2,-1.196411327E-1,-9.937691689E0,9.938702222E0
1.837513125E0,-7.118647546E-2,-1.124626622E-1,-9.923035622E0,9.923928220E0
1.839939011E0,-7.836493850E-2,-1.076770201E-1,-9.923035622E0,9.923929230E0
1.842364896E0,-8.554340899E-2,-1.172483116E-1,-9.918250084E0,9.919311950E0
1.844790834E0,-7.597211748E-2,-1.220339537E-1,-9.923035622E0,9.924076783E0
1.847216719E0,-6.640082598E-2,-1.052841991E-1,-9.913464546E0,9.914245969E0
1.849642605E0,-8.315058798E-2,-1.100698411E-1,-9.932906151E0,9.933864001E0
1.852068490E0,-7.357929647E-2,-1.292124242E-1,-9.932906151E0,9.934019044E0
1.854494375E0,-5.443671346E-2,-1.244267747E-1,-9.908679008E0,9.909609734E0
1.856920313E0,-6.161518395E-2,-1.172483116E-1,-9.920642853E0,9.921527010E0
1.859346198E0,-8.315058798E-2,-1.220339537E-1,-9.923035622E0,9.924134333E0
1.861772084E0,-6.879365444E-2,-1.076770201E-1,-9.930213928E0,9.931035977E0
1.864197969E0,-6.879365444E-2,-1.363908947E-1,-9.923035622E0,9.924211354E0
1.866623907E0,-6.879365444E-2,-1.459621787E-1,-9.918250084E0,9.919562604E0
1.869049792E0,-6.161518395E-2,-1.316052526E-1,-9.911071777E0,9.912137012E0
1.871475678E0,-7.836493850E-2,-1.148554832E-1,-9.925428391E0,9.926402248E0
1.873901563E0,-8.315058798E-2,-1.316052526E-1,-9.932906151E0,9.934125959E0
1.876327448E0,-7.118647546E-2,-1.172483116E-1,-9.927821159E0,9.928768688E0
1.878753386E0,-6.400800496E-2,-1.244267747E-1,-9.930213928E0,9.931199711E0
1.881179271E0,-7.836493850E-2,-1.268195957E-1,-9.918250084E0,9.919370393E0
1.883605157E0,-6.161518395E-2,-1.244267747E-1,-9.913464546E0,9.914436835E0
1.886031042E0,-6.640082598E-2,-1.339980662E-1,-9.918250084E0,9.919377464E0
1.888456980E0,-7.836493850E-2,-1.196411327E-1,-9.923035622E0,9.924066254E0
1.890882865E0,-5.922235921E-2,-1.220339537E-1,-9.944869995E0,9.945795031E0
1.893308750E0,-6.161518395E-2,-1.196411327E-1,-9.935298920E0,9.936210296E0
1.895734636E0,-6.879365444E-2,-1.387837082E-1,-9.940084457E0,9.941291290E0
1.898160521E0,-6.400800496E-2,-1.196411327E-1,-9.935298920E0,9.936225423E0
1.900586459E0,-7.357929647E-2,-1.100698411E-1,-9.930213928E0,9.931096513E0
1.903012344E0,-5.922235921E-2,-1.387837082E-1,-9.932906151E0,9.934052185E0
1.905438230E0,-9.272187948E-2,-1.100698411E-1,-9.925428391E0,9.926471752E0
1.907864115E0,-9.032905847E-2,-1.244267747E-1,-9.915857315E0,9.917049342E0
1.910290053E0,-9.750752151E-2,-1.220339537E-1,-9.930213928E0,9.931442426E0
1.912715938E0,-7.836493850E-2,-1.196411327E-1,-9.940084457E0,9.941113322E0
1.915141823E0,-7.118647546E-2,-1.100698411E-1,-9.918250084E0,9.919116272E0
1.917567709E0,-7.597211748E-2,-1.148554832E-1,-9.930213928E0,9.931168723E0
1.919993594E0,-4.725824669E-2,-1.004985496E-1,-9.937691689E0,9.938312201E0
1.922419532E0,-6.161518395E-2,-1.172483116E-1,-9.930213928E0,9.931097233E0
1.924845417E0,-4.965107143E-2,-1.316052526E-1,-9.927821159E0,9.928817560E0
1.927271303E0,-7.836493850E-2,-1.363908947E-1,-9.930213928E0,9.931459722E0
1.929697188E0,-8.315058798E-2,-1.220339537E-1,-9.920642853E0,9.921741829E0
1.932123073E0,-7.118647546E-2,-1.172483116E-1,-9.925428391E0,9.926376147E0
1.934549011E0,-6.640082598E-2,-1.244267747E-1,-9.918250084E0,9.919252785E0
1.936974896E0,-6.879365444E-2,-1.172483116E-1,-9.923035622E0,9.923966731E0
1.939400782E0,-8.793623000E-2,-1.316052526E-1,-9.935298920E0,9.936559633E0
1.941826667E0,-6.879365444E-2,-1.316052526E-1,-9.923035622E0,9.924146737E0
1.944252605E0,-9.032905847E-2,-1.268195957E-1,-9.901499748E0,9.902723858E0
1.946678490E0,-9.272187948E-2,-1.100698411E-1,-9.913464546E0,9.914509167E0
1.949104375E0,-5.922235921E-2,-1.316052526E-1,-9.903892517E0,9.904943928E0
1.951530261E0,-7.597211748E-2,-1.148554832E-1,-9.915857315E0,9.916813492E0
1.953956146E0,-5.682953820E-2,-1.100698411E-1,-9.923035622E0,9.923808791E0
1.956382084E0,-9.272187948E-2,-1.124626622E-1,-9.927821159E0,9.928891085E0
1.958807969E0,-6.161518395E-2,-1.124626622E-1,-9.920642853E0,9.921471609E0
1.961233855E0,-7.836493850E-2,-1.076770201E-1,-9.927821159E0,9.928714337E0
1.963659740E0,-7.597211748E-2,-1.148554832E-1,-9.932906151E0,9.933860687E0
1.966085678E0,-9.032905847E-2,-1.244267747E-1,-9.911071777E0,9.912264380E0
1.968511563E0,-7.597211748E-2,-1.220339537E-1,-9.930213928E0,9.931254337E0
1.970937448E0,-6.400800496E-2,-1.220339537E-1,-9.927821159E0,9.928777482E0
1.973363334E0,-6.400800496E-2,-1.052841991E-1,-9.920642853E0,9.921407985E0
1.975789219E0,-8.075776696E-2,-1.316052526E-1,-9.944869995E0,9.946068619E0
1.978215157E0,-6.879365444E-2,-1.435693651E-1,-9.930213928E0,9.931489988E0
1.980641042E0,-6.400800496E-2,-1.339980662E-1,-9.925428391E0,9.926539238E0
1.983066928E0,-7.597211748E-2,-1.531406492E-1,-9.937691689E0,9.939161932E0
1.985492813E0,-7.118647546E-2,-1.339980662E-1,-9.915857315E0,9.917018165E0
1.987918750E0,-8.554340899E-2,-1.148554832E-1,-9.925428391E0,9.926461514E0
1.990344636E0,-9.032905847E-2,-1.244267747E-1,-9.915857315E0,9.917049342E0
1.992770521E0,-6.640082598E-2,-1.292124242E-1,-9.930213928E0,9.931276533E0
1.995196407E0,-6.161518395E-2,-1.148554832E-1,-9.918250084E0,9.919106459E0
1.997622292E0,-6.400800496E-2,-1.148554832E-1,-9.908679008E0,9.909551377E0
2.000048230E0,-6.640082598E-2,-1.363908947E-1,-9.927821159E0,9.928980034E0
2.002474115E0,-5.922235921E-2,-1.387837082E-1,-9.930213928E0,9.931360273E0
2.004900000E0,-8.075776696E-2,-1.268195957E-1,-9.944869995E0,9.946006447E0
2.007325886E0,-7.597211748E-2,-1.172483116E-1,-9.940084457E0,9.941066238E0
2.009751823E0,-5.922235921E-2,-1.220339537E-1,-9.937691689E0,9.938617392E0
2.012177709E0,-9.750752151E-2,-1.435693651E-1,-9.944869995E0,9.946384222E0
2.014603594E0,-7.836493850E-2,-1.172483116E-1,-9.935298920E0,9.936299757E0
2.017029480E0,-5.443671346E-2,-1.268195957E-1,-9.920642853E0,9.921602752E0
2.019455365E0,-6.640082598E-2,-1.076770201E-1,-9.937691689E0,9.938496843E0
2.021881303E0,-8.075776696E-2,-1.172483116E-1,-9.911071777E0,9.912094267E0
2.024307188E0,-7.118647546E-2,-1.244267747E-1,-9.932906151E0,9.933940514E0
2.026733073E0,-7.357929647E-2,-1.244267747E-1,-9.940084457E0,9.941135496E0
2.029158959E0,-7.836493850E-2,-1.316052526E-1,-9.944869995E0,9.946049478E0
2.031584896E0,-4.965107143E-2,-1.172483116E-1,-9.952048302E0,9.952862794E0
2.034010782E0,-4.965107143E-2,-1.004985496E-1,-9.925428391E0,9.926061350E0
2.036436667E0,-9.750752151E-2,-1.172483116E-1,-9.925428391E0,9.926599801E0
2.038862553E0,-6.161518395E-2,-1.100698411E-1,-9.925428391E0,9.926229926E0
2.041288438E0,-5.922235921E-2,-1.196411327E-1,-9.935298920E0,9.936195746E0
2.043714375E0,-5.682953820E-2,-1.148554832E-1,-9.930213928E0,9.931040733E0
2.046140261E0,-7.118647546E-2,-1.268195957E-1,-9.915857315E0,9.916923768E0
2.048566146E0,-5.204389244E-2,-1.052841991E-1,-9.949655533E0,9.950348665E0
2.050992032E0,-5.922235921E-2,-9.092725813E-2,-9.925428391E0,9.926021549E0
2.053417969E0,-7.597211748E-2,-1.268195957E-1,-9.930213928E0,9.931314295E0
2.055843855E0,-9.272187948E-2,-1.339980662E-1,-9.930213928E0,9.931550810E0
2.058269740E0,-8.315058798E-2,-1.148554832E-1,-9.932906151E0,9.933918180E0
2.060695625E0,-8.554340899E-2,-1.124626622E-1,-9.932906151E0,9.933911119E0
2.063121511E0,-5.922235921E-2,-1.483550072E-1,-9.920642853E0,9.921928800E0
2.065547448E0,-7.118647546E-2,-1.244267747E-1,-9.925428391E0,9.926463533E0
2.067973334E0,-7.836493850E-2,-1.124626622E-1,-9.920642853E0,9.921589768E0
2.070399219E0,-8.315058798E-2,-1.268195957E-1,-9.913464546E0,9.914624377E0
2.072825105E0,-8.793623000E-2,-1.244267747E-1,-9.940084457E0,9.941252126E0
2.075250990E0,-7.118647546E-2,-1.220339537E-1,-9.937691689E0,9.938695885E0
2.077676928E0,-8.554340899E-2,-1.244267747E-1,-9.930213928E0,9.931361858E0
2.080102813E0,-6.161518395E-2,-1.076770201E-1,-9.896714211E0,9.897491750E0
2.082528698E0,-6.161518395E-2,-1.124626622E-1,-9.935298920E0,9.936126454E0
2.084954584E0,-6.640082598E-2,-1.148554832E-1,-9.911071777E0,9.911959676E0
2.087380521E0,-5.443671346E-2,-1.363908947E-1,-9.937691689E0,9.938776682E0
2.089806407E0,-8.075776696E-2,-1.316052526E-1,-9.925428391E0,9.926629362E0
2.092232292E0,-9.272187948E-2,-1.172483116E-1,-9.927821159E0,9.928946444E0
2.094658178E0,-9.990034252E-2,-1.316052526E-1,-9.923035622E0,9.924411114E0
2.097084115E0,-7.357929647E-2,-1.124626622E-1,-9.915857315E0,9.916768025E0
2.099510000E0,-6.879365444E-2,-1.220339537E-1,-9.913464546E0,9.914454305E0
2.101935886E0,-5.922235921E-2,-1.387837082E-1,-9.937691689E0,9.938837171E0
2.104361771E0,-7.357929647E-2,-1.220339537E-1,-9.940084457E0,9.941105835E0
2.106787657E0,-8.554340899E-2,-1.172483116E-1,-9.940084457E0,9.941143992E0
2.109213594E0,-6.640082598E-2,-1.076770201E-1,-9.915857315E0,9.916664243E0
2.111639480E0,-8.554340899E-2,-1.196411327E-1,-9.915857315E0,9.916948017E0
2.114065365E0,-9.750752151E-2,-1.148554832E-1,-9.935298920E0,9.936441220E0
2.116491250E0,-9.750752151E-2,-1.004985496E-1,-9.927821159E0,9.928808622E0
2.118917136E0,-7.836493850E-2,-1.363908947E-1,-9.915857315E0,9.917104912E0
2.121343073E0,-6.640082598E-2,-1.507478207E-1,-9.925428391E0,9.926795188E0
2.123768959E0,-6.400800496E-2,-1.220339537E-1,-9.927821159E0,9.928777482E0
2.126194844E0,-9.032905847E-2,-1.363908947E-1,-9.918250084E0,9.919599112E0
2.128620730E0,-6.879365444E-2,-1.124626622E-1,-9.925428391E0,9.926303902E0
2.131046615E0,-7.597211748E-2,-1.316052526E-1,-9.932906151E0,9.934068467E0
2.133472553E0,-6.640082598E-2,-1.124626622E-1,-9.927821159E0,9.928680169E0
2.135898438E0,-9.750752151E-2,-1.148554832E-1,-9.930213928E0,9.931356814E0
2.138324323E0,-8.554340899E-2,-1.268195957E-1,-9.944869995E0,9.946046456E0
2.140750209E0,-6.161518395E-2,-1.124626622E-1,-9.925428391E0,9.926256747E0
2.143176146E0,-8.075776696E-2,-1.220339537E-1,-9.920642853E0,9.921722064E0
2.145602032E0,-6.640082598E-2,-1.076770201E-1,-9.923035622E0,9.923841966E0
2.148027917E0,-7.597211748E-2,-1.196411327E-1,-9.932906151E0,9.933917171E0
2.150453803E0,-5.443671346E-2,-1.196411327E-1,-9.937691689E0,9.938560935E0
2.152879740E0,-8.075776696E-2,-1.220339537E-1,-9.942477226E0,9.943554068E0
2.155305625E0,-6.640082598E-2,-1.172483116E-1,-9.925428391E0,9.926342981E0
2.157731511E0,-5.922235921E-2,-1.076770201E-1,-9.908679008E0,9.909441020E0
2.160157396E0,-7.836493850E-2,-1.076770201E-1,-9.932906151E0,9.933798871E0
2.162583282E0,-8.075776696E-2,-1.124626622E-1,-9.908679008E0,9.909646278E0
2.165009219E0,-9.032905847E-2,-1.268195957E-1,-9.903892517E0,9.905116331E0
2.167435105E0,-7.597211748E-2,-1.220339537E-1,-9.899106979E0,9.900150657E0
2.169860990E0,-7.357929647E-2,-1.100698411E-1,-9.925428391E0,9.926311400E0
2.172286875E0,-7.836493850E-2,-1.100698411E-1,-9.932906151E0,9.933825096E0
2.174712813E0,-7.118647546E-2,-1.483550072E-1,-9.954441071E0,9.955801010E0
2.177138698E0,-8.793623000E-2,-1.316052526E-1,-9.927821159E0,9.929082822E0
2.179564584E0,-8.793623000E-2,-1.316052526E-1,-9.918250084E0,9.919512964E0
2.181990469E0,-1.022931710E-1,-1.459621787E-1,-9.927821159E0,9.929421022E0
2.184416355E0,-7.118647546E-2,-1.411765367E-1,-9.932906151E0,9.934164430E0
2.186842292E0,-9.272187948E-2,-1.100698411E-1,-9.935298920E0,9.936341245E0
2.189268178E0,-9.750752151E-2,-1.172483116E-1,-9.920642853E0,9.921814829E0
2.191694063E0,-5.922235921E-2,-1.004985496E-1,-9.915857315E0,9.916543427E0
2.194119948E0,-7.597211748E-2,-1.100698411E-1,-9.920642853E0,9.921544323E0
2.196545886E0,-8.075776696E-2,-1.100698411E-1,-9.911071777E0,9.912011953E0
2.198971771E0,-7.357929647E-2,-1.076770201E-1,-9.923035622E0,9.923892593E0
2.201397657E0,-8.075776696E-2,-1.339980662E-1,-9.942477226E0,9.943708096E0
2.203823542E0,-6.161518395E-2,-1.124626622E-1,-9.937691689E0,9.938519023E0
2.206249428E0,-7.357929647E-2,-1.387837082E-1,-9.930213928E0,9.931456262E0
2.208675365E0,-8.554340899E-2,-1.220339537E-1,-9.937691689E0,9.938809086E0
2.211101250E0,-6.879365444E-2,-1.244267747E-1,-9.920642853E0,9.921661615E0
2.213527136E0,-3.290131316E-2,-1.339980662E-1,-9.944869995E0,9.945827125E0
2.215953021E0,-5.922235921E-2,-1.076770201E-1,-9.918250084E0,9.919011360E0
2.218378959E0,-7.357929647E-2,-1.339980662E-1,-9.935298920E0,9.936474929E0
2.220804844E0,-9.750752151E-2,-1.268195957E-1,-9.942477226E0,9.943764092E0
2.223230730E0,-8.315058798E-2,-1.483550072E-1,-9.942477226E0,9.943931648E0
2.225656615E0,-5.922235921E-2,-1.363908947E-1,-9.918250084E0,9.919364621E0
2.228082500E0,-8.315058798E-2,-1.100698411E-1,-9.927821159E0,9.928779500E0
2.230508438E0,-6.400800496E-2,-1.268195957E-1,-9.918250084E0,9.919267360E0
2.232934323E0,-5.922235921E-2,-1.244267747E-1,-9.930213928E0,9.931170020E0
2.235360209E0,-7.118647546E-2,-1.100698411E-1,-9.949655533E0,9.950518987E0
2.237786094E0,-6.879365444E-2,-1.172483116E-1,-9.937691689E0,9.938621425E0
2.240212032E0,-8.315058798E-2,-1.220339537E-1,-9.923035622E0,9.924134333E0
2.242637917E0,-7.836493850E-2,-1.100698411E-1,-9.932906151E0,9.933825096E0
2.245063803E0,-6.640082598E-2,-1.339980662E-1,-9.930213928E0,9.931339950E0
2.247489688E0,-6.640082598E-2,-1.148554832E-1,-9.927821159E0,9.928707561E0
2.249915573E0,-6.879365444E-2,-1.076770201E-1,-9.932906151E0,9.933727976E0
2.252341511E0,-7.118647546E-2,-1.100698411E-1,-9.918250084E0,9.919116272E0
2.254767396E0,-5.922235921E-2,-1.316052526E-1,-9.923035622E0,9.924085005E0
2.257193282E0,-7.836493850E-2,-1.339980662E-1,-9.915857315E0,9.917072292E0
2.259619167E0,-7.357929647E-2,-1.172483116E-1,-9.918250084E0,9.919215988E0
2.262045053E0,-7.836493850E-2,-1.292124242E-1,-9.930213928E0,9.931363732E0
2.264470990E0,-7.597211748E-2,-1.244267747E-1,-9.932906151E0,9.933975961E0
2.266896875E0,-1.262213886E-1,-1.196411327E-1,-9.942477226E0,9.943998151E0
2.269322761E0,-7.836493850E-2,-1.244267747E-1,-9.925428391E0,9.926517608E0
2.271748646E0,-9.032905847E-2,-1.124626622E-1,-9.944869995E0,9.945916067E0
2.274174532E0,-8.554340899E-2,-1.124626622E-1,-9.937691689E0,9.938696173E0
2.276600469E0,-8.554340899E-2,-1.292124242E-1,-9.923035622E0,9.924245537E0
2.279026355E0,-6.400800496E-2,-1.052841991E-1,-9.911071777E0,9.911837648E0
2.281452240E0,-7.118647546E-2,-1.244267747E-1,-9.908679008E0,9.909715901E0
2.283878125E0,-6.640082598E-2,-1.052841991E-1,-9.923035622E0,9.923816291E0
2.286304063E0,-3.768695518E-2,-1.052841991E-1,-9.918250084E0,9.918880471E0
2.288729948E0,-7.118647546E-2,-1.196411327E-1,-9.925428391E0,9.926404699E0
2.291155834E0,-6.400800496E-2,-1.220339537E-1,-9.908679008E0,9.909637178E0
2.293581719E0,-5.922235921E-2,-1.411765367E-1,-9.920642853E0,9.921824062E0
2.296007657E0,-5.443671346E-2,-1.220339537E-1,-9.930213928E0,9.931112944E0
2.298433542E0,-8.793623000E-2,-1.268195957E-1,-9.927821159E0,9.929020544E0
2.300859428E0,-8.793623000E-2,-1.292124242E-1,-9.930213928E0,9.931443867E0
2.303285313E0,-7.597211748E-2,-1.052841991E-1,-9.935298920E0,9.936147198E0
2.305711198E0,-6.640082598E-2,-1.100698411E-1,-9.940084457E0,9.940915625E0
2.308137136E0,-9.272187948E-2,-1.292124242E-1,-9.918250084E0,9.919525086E0
2.310563021E0,-6.161518395E-2,-1.244267747E-1,-9.918250084E0,9.919221904E0
2.312988907E0,-9.272187948E-2,-1.100698411E-1,-9.923035622E0,9.924079235E0
2.315414792E0,-8.315058798E-2,-1.268195957E-1,-9.923035622E0,9.924194334E0
2.317840678E0,-1.022931710E-1,-1.244267747E-1,-9.937691689E0,9.938997032E0
2.320266615E0,-5.682953820E-2,-1.148554832E-1,-9.935298920E0,9.936125301E0
2.322692500E0,-5.682953820E-2,-1.076770201E-1,-9.915857315E0,9.916604773E0
2.325118386E0,-8.315058798E-2,-1.292124242E-1,-9.903892517E0,9.905084394E0
2.327544271E0,-7.836493850E-2,-1.387837082E-1,-9.923035622E0,9.924315489E0
2.329970209E0,-8.315058798E-2,-1.124626622E-1,-9.911071777E0,9.912058598E0
2.332396094E0,-7.357929647E-2,-1.052841991E-1,-9.932906151E0,9.933736622E0
2.334821980E0,-8.554340899E-2,-1.124626622E-1,-9.927821159E0,9.928826643E0
2.337247865E0,-8.793623000E-2,-1.196411327E-1,-9.935298920E0,9.936408375E0
2.339673750E0,-7.836493850E-2,-1.196411327E-1,-9.927821159E0,9.928851295E0
2.342099688E0,-8.793623000E-2,-1.124626622E-1,-9.935298920E0,9.936324534E0
2.344525573E0,-3.768695518E-2,-1.100698411E-1,-9.932906151E0,9.933587483E0
2.346951459E0,-9.272187948E-2,-1.148554832E-1,-9.915857315E0,9.916955955E0
2.349377344E0,-7.118647546E-2,-1.316052526E-1,-9.937691689E0,9.938818016E0
2.351803230E0,-7.836493850E-2,-1.076770201E-1,-9.937691689E0,9.938583979E0
2.354229167E0,-6.400800496E-2,-9.332008660E-2,-9.920642853E0,9.921288237E0
2.356655053E0,-7.836493850E-2,-1.292124242E-1,-9.920642853E0,9.921793766E0
2.359080938E0,-8.315058798E-2,-1.100698411E-1,-9.906285286E0,9.907245710E0
2.361506823E0,-9.750752151E-2,-1.076770201E-1,-9.918250084E0,9.919313826E0
2.363932761E0,-8.075776696E-2,-1.100698411E-1,-9.925428391E0,9.926367207E0
2.366358646E0,-9.511470050E-2,-1.339980662E-1,-9.920642853E0,9.922003674E0
2.368784532E0,-8.554340899E-2,-1.100698411E-1,-9.935298920E0,9.936276851E0
2.371210417E0,-7.118647546E-2,-1.363908947E-1,-9.940084457E0,9.941275019E0
2.373636303E0,-5.922235921E-2,-1.316052526E-1,-9.920642853E0,9.921692489E0
2.376062240E0,-5.204389244E-2,-1.052841991E-1,-9.940084457E0,9.940778257E0
2.378488125E0,-5.204389244E-2,-1.363908947E-1,-9.923035622E0,9.924109380E0
2.380914011E0,-7.118647546E-2,-1.220339537E-1,-9.918250084E0,9.919256249E0
2.383339896E0,-8.075776696E-2,-1.292124242E-1,-9.913464546E0,9.914635494E0
2.385765834E0,-8.554340899E-2,-1.220339537E-1,-9.935298920E0,9.936416587E0
2.388191719E0,-8.554340899E-2,-1.196411327E-1,-9.927821159E0,9.928910547E0
2.390617605E0,-6.640082598E-2,-1.076770201E-1,-9.927821159E0,9.928627115E0
2.393043490E0,-6.640082598E-2,-1.028913707E-1,-9.930213928E0,9.930968954E0
2.395469375E0,-6.400800496E-2,-1.316052526E-1,-9.923035622E0,9.924114717E0
2.397895313E0,-6.161518395E-2,-1.076770201E-1,-9.913464546E0,9.914240772E0
2.400321198E0,-7.357929647E-2,-1.076770201E-1,-9.925428391E0,9.926285156E0
2.402747084E0,-7.118647546E-2,-1.459621787E-1,-9.918250084E0,9.919579487E0
2.405172969E0,-7.597211748E-2,-1.483550072E-1,-9.937691689E0,9.939089348E0
2.407598907E0,-8.554340899E-2,-1.076770201E-1,-9.920642853E0,9.921595972E0
2.410024792E0,-7.118647546E-2,-1.292124242E-1,-9.915857315E0,9.916954656E0
2.412450678E0,-8.554340899E-2,-1.411765367E-1,-9.930213928E0,9.931585833E0
2.414876563E0,-8.315058798E-2,-1.124626622E-1,-9.935298920E0,9.936283334E0
2.417302448E0,-7.597211748E-2,-1.220339537E-1,-9.930213928E0,9.931254337E0
2.419728386E0,-5.682953820E-2,-1.028913707E-1,-9.918250084E0,9.918946565E0
2.422154271E0,-6.161518395E-2,-1.196411327E-1,-9.927821159E0,9.928733223E0
2.424580157E0,-9.511470050E-2,-1.196411327E-1,-9.942477226E0,9.943651955E0
2.427006042E0,-5.922235921E-2,-1.244267747E-1,-9.927821159E0,9.928777482E0
2.429431980E0,-6.879365444E-2,-1.316052526E-1,-9.940084457E0,9.941193667E0
2.431857865E0,-8.075776696E-2,-1.028913707E-1,-9.937691689E0,9.938552437E0
2.434283750E0,-8.315058798E-2,-1.292124242E-1,-9.927821159E0,9.929010164E0
2.436709636E0,-6.161518395E-2,-1.292124242E-1,-9.901499748E0,9.902534501E0
2.439135521E0,-4.965107143E-2,-1.124626622E-1,-9.930213928E0,9.930974864E0
2.441561459E0,-8.793623000E-2,-1.172483116E-1,-9.930213928E0,9.931295414E0
2.443987344E0,-7.357929647E-2,-1.316052526E-1,-9.923035622E0,9.924181065E0
2.446413230E0,-8.075776696E-2,-1.124626622E-1,-9.911071777E0,9.912038814E0
2.448839115E0,-7.597211748E-2,-1.172483116E-1,-9.918250084E0,9.919234026E0
2.451265053E0,-9.511470050E-2,-1.100698411E-1,-9.940084457E0,9.941148887E0
2.453690938E0,-8.793623000E-2,-1.316052526E-1,-9.925428391E0,9.926690358E0
2.456116823E0,-8.554340899E-2,-1.196411327E-1,-9.911071777E0,9.912163006E0
2.458542709E0,-7.118647546E-2,-1.196411327E-1,-9.927821159E0,9.928797233E0
2.460968594E0,-7.836493850E-2,-1.244267747E-1,-9.942477226E0,9.943564576E0
2.463394532E0,-9.511470050E-2,-1.268195957E-1,-9.927821159E0,9.929086715E0
2.465820417E0,-8.075776696E-2,-1.339980662E-1,-9.908679008E0,9.909914076E0
2.468246303E0,-6.640082598E-2,-1.196411327E-1,-9.927821159E0,9.928764074E0
2.470672188E0,-9.032905847E-2,-1.268195957E-1,-9.930213928E0,9.931434499E0
2.473098125E0,-8.554340899E-2,-1.148554832E-1,-9.932906151E0,9.933938497E0
2.475524011E0,-6.640082598E-2,-1.124626622E-1,-9.935298920E0,9.936157283E0
2.477949896E0,-5.922235921E-2,-1.387837082E-1,-9.913464546E0,9.914612827E0
2.480375782E0,-1.022931710E-1,-1.196411327E-1,-9.903892517E0,9.905143355E0
2.482801667E0,-7.357929647E-2,-1.100698411E-1,-9.918250084E0,9.919133733E0
2.485227605E0,-7.597211748E-2,-1.148554832E-1,-9.932906151E0,9.933860687E0
2.487653490E0,-9.032905847E-2,-1.172483116E-1,-9.927821159E0,9.928924387E0
2.490079375E0,-5.922235921E-2,-9.332008660E-2,-9.913464546E0,9.914080655E0
2.492505261E0,-8.315058798E-2,-1.268195957E-1,-9.899106979E0,9.900268492E0
2.494931146E0,-7.357929647E-2,-1.339980662E-1,-9.925428391E0,9.926605569E0
2.497357084E0,-8.075776696E-2,-1.004985496E-1,-9.930213928E0,9.931050822E0
2.499782969E0,-8.793623000E-2,-1.052841991E-1,-9.911071777E0,9.912021051E0
2.502208855E0,-9.511470050E-2,-1.220339537E-1,-9.903892517E0,9.905101013E0
2.504634740E0,-5.922235921E-2,-1.316052526E-1,-9.947262764E0,9.948309591E0
2.507060625E0,-6.640082598E-2,-1.196411327E-1,-9.925428391E0,9.926371533E0
2.509486563E0,-7.118647546E-2,-1.148554832E-1,-9.954441071E0,9.955358172E0
2.511912448E0,-1.022931710E-1,-1.076770201E-1,-9.915857315E0,9.916969523E0
2.514338334E0,-8.793623000E-2,-1.124626622E-1,-9.923035622E0,9.924062504E0
2.516764219E0,-5.682953820E-2,-1.220339537E-1,-9.932906151E0,9.933818323E0
2.519190157E0,-7.836493850E-2,-1.292124242E-1,-9.927821159E0,9.928971240E0
2.521616042E0,-7.357929647E-2,-1.124626622E-1,-9.930213928E0,9.931123321E0
2.524041928E0,-6.640082598E-2,-1.268195957E-1,-9.937691689E0,9.938722673E0
2.526467813E0,-7.118647546E-2,-1.148554832E-1,-9.932906151E0,9.933825240E0
2.528893750E0,-4.725824669E-2,-1.148554832E-1,-9.937691689E0,9.938467750E0
2.531319636E0,-7.597211748E-2,-1.172483116E-1,-9.940084457E0,9.941066238E0
2.533745521E0,-8.315058798E-2,-1.076770201E-1,-9.925428391E0,9.926360718E0
2.536171407E0,-7.597211748E-2,-1.292124242E-1,-9.923035622E0,9.924167651E0
2.538597292E0,-6.640082598E-2,-1.459621787E-1,-9.932906151E0,9.934200452E0
2.541023230E0,-5.922235921E-2,-1.244267747E-1,-9.927821159E0,9.928777482E0
2.543449115E0,-8.075776696E-2,-1.004985496E-1,-9.923035622E0,9.923873121E0
2.545875000E0,-5.443671346E-2,-1.268195957E-1,-9.918250084E0,9.919210215E0
2.548300886E0,-5.682953820E-2,-9.810572863E-2,-9.913464546E0,9.914112852E0
2.550726771E0,-8.075776696E-2,-1.028913707E-1,-9.918250084E0,9.919112520E0
2.553152709E0,-5.443671346E-2,-1.244267747E-1,-9.937691689E0,9.938619697E0
2.555578594E0,-7.597211748E-2,-1.076770201E-1,-9.935298920E0,9.936172841E0
2.558004480E0,-7.118647546E-2,-1.028913707E-1,-9.932906151E0,9.933694114E0
2.560430365E0,-9.032905847E-2,-1.028913707E-1,-9.920642853E0,9.921587604E0
2.562856303E0,-4.725824669E-2,-1.220339537E-1,-9.925428391E0,9.926291068E0
2.565282188E0,-5.204389244E-2,-1.148554832E-1,-9.932906151E0,9.933706506E0
2.567708073E0,-7.597211748E-2,-1.124626622E-1,-9.942477226E0,9.943403492E0
2.570133959E0,-6.400800496E-2,-1.052841991E-1,-9.918250084E0,9.919015400E0
2.572559896E0,-6.879365444E-2,-1.196411327E-1,-9.923035622E0,9.923995290E0
2.574985782E0,-7.118647546E-2,-1.076770201E-1,-9.935298920E0,9.936137402E0
2.577411667E0,-5.443671346E-2,-1.172483116E-1,-9.937691689E0,9.938532418E0
2.579837553E0,-6.879365444E-2,-1.244267747E-1,-9.937691689E0,9.938708703E0
2.582263438E0,-8.075776696E-2,-1.244267747E-1,-9.923035622E0,9.924144285E0
2.584689375E0,-5.443671346E-2,-1.148554832E-1,-9.918250084E0,9.919064465E0
2.587115261E0,-7.597211748E-2,-1.124626622E-1,-9.944869995E0,9.945796038E0
2.589541146E0,-8.075776696E-2,-1.363908947E-1,-9.935298920E0,9.936563235E0
2.591967032E0,-7.357929647E-2,-1.028913707E-1,-9.930213928E0,9.931019545E0
2.594392917E0,-6.879365444E-2,-1.339980662E-1,-9.920642853E0,9.921786264E0
2.596818855E0,-8.554340899E-2,-1.220339537E-1,-9.932906151E0,9.934024087E0
2.599244740E0,-8.793623000E-2,-1.244267747E-1,-9.923035622E0,9.924205296E0
2.601670625E0,-8.075776696E-2,-1.196411327E-1,-9.937691689E0,9.938739956E0
2.604096511E0,-7.836493850E-2,-1.292124242E-1,-9.920642853E0,9.921793766E0
2.606522396E0,-6.879365444E-2,-1.411765367E-1,-9.937691689E0,9.938932512E0
2.608948334E0,-6.879365444E-2,-1.076770201E-1,-9.923035622E0,9.923858265E0
2.611374219E0,-5.682953820E-2,-1.196411327E-1,-9.911071777E0,9.911956788E0
2.613800105E0,-8.315058798E-2,-1.244267747E-1,-9.908679008E0,9.909809067E0
2.616225990E0,-9.990034252E-2,-1.196411327E-1,-9.923035622E0,9.924259672E0
2.618651928E0,-8.075776696E-2,-1.220339537E-1,-9.911071777E0,9.912152031E0
2.621077813E0,-8.554340899E-2,-1.172483116E-1,-9.927821159E0,9.928882002E0
2.623503698E0,-6.640082598E-2,-1.268195957E-1,-9.937691689E0,9.938722673E0
2.625929584E0,-6.640082598E-2,-1.100698411E-1,-9.920642853E0,9.921475649E0
2.628355469E0,-8.554340899E-2,-1.100698411E-1,-9.911071777E0,9.912052099E0
2.630781407E0,-9.032905847E-2,-1.292124242E-1,-9.930213928E0,9.931465343E0
2.633207292E0,-7.357929647E-2,-1.100698411E-1,-9.930213928E0,9.931096513E0
2.635633178E0,-8.554340899E-2,-1.148554832E-1,-9.935298920E0,9.936331017E0
2.638059063E0,-4.725824669E-2,-1.100698411E-1,-9.913464546E0,9.914188218E0
2.640485000E0,-6.400800496E-2,-1.244267747E-1,-9.923035622E0,9.924022118E0
2.642910886E0,-6.161518395E-2,-1.268195957E-1,-9.927821159E0,9.928822318E0
2.645336771E0,-5.204389244E-2,-1.052841991E-1,-9.915857315E0,9.916552809E0
2.647762657E0,-7.836493850E-2,-1.028913707E-1,-9.930213928E0,9.931056155E0
2.650188542E0,-8.554340899E-2,-1.028913707E-1,-9.927821159E0,9.928722842E0
2.652614480E0,-9.990034252E-2,-1.172483116E-1,-9.925428391E0,9.926623594E0
2.655040365E0,-6.161518395E-2,-1.244267747E-1,-9.937691689E0,9.938661608E0
2.657466250E0,-8.554340899E-2,-1.076770201E-1,-9.915857315E0,9.916810894E0
2.659892136E0,-8.793623000E-2,-1.172483116E-1,-9.915857315E0,9.916940367E0
2.662318073E0,-7.836493850E-2,-1.363908947E-1,-9.925428391E0,9.926674784E0
2.664743959E0,-6.400800496E-2,-1.172483116E-1,-9.911071777E0,9.911971951E0
2.667169844E0,-9.990034252E-2,-1.100698411E-1,-9.935298920E0,9.936410824E0
2.669595730E0,-7.357929647E-2,-1.100698411E-1,-9.920642853E0,9.921526289E0
2.672021615E0,-7.836493850E-2,-8.614161611E-2,-9.930213928E0,9.930896742E0
2.674447553E0,-6.879365444E-2,-1.028913707E-1,-9.925428391E0,9.926200075E0
2.676873438E0,-7.118647546E-2,-1.292124242E-1,-9.915857315E0,9.916954656E0
2.679299323E0,-7.118647546E-2,-1.196411327E-1,-9.918250084E0,9.919227099E0
2.681725209E0,-9.032905847E-2,-1.268195957E-1,-9.942477226E0,9.943696292E0
2.684151094E0,-6.640082598E-2,-1.172483116E-1,-9.937691689E0,9.938605150E0
2.686577032E0,-7.597211748E-2,-1.316052526E-1,-9.925428391E0,9.926591582E0
2.689002917E0,-8.793623000E-2,-1.435693651E-1,-9.918250084E0,9.919678910E0
2.691428803E0,-7.357929647E-2,-1.339980662E-1,-9.930213928E0,9.931390540E0
2.693854688E0,-6.400800496E-2,-9.571290761E-2,-9.927821159E0,9.928488856E0
2.696280625E0,-7.118647546E-2,-1.292124242E-1,-9.915857315E0,9.916954656E0
2.698706511E0,-9.032905847E-2,-1.100698411E-1,-9.915857315E0,9.916879600E0
2.701132396E0,-8.075776696E-2,-1.316052526E-1,-9.927821159E0,9.929021842E0
2.703558282E0,-9.511470050E-2,-1.196411327E-1,-9.908679008E0,9.909857744E0
2.705984219E0,-7.836493850E-2,-1.076770201E-1,-9.901499748E0,9.902395300E0
2.708410105E0,-7.357929647E-2,-1.004985496E-1,-9.920642853E0,9.921424720E0
2.710835990E0,-6.640082598E-2,-1.387837082E-1,-9.923035622E0,9.924228229E0
2.713261875E0,-9.032905847E-2,-1.100698411E-1,-9.942477226E0,9.943496774E0
2.715687761E0,-7.597211748E-2,-1.172483116E-1,-9.911071777E0,9.912056432E0
2.718113698E0,-9.511470050E-2,-9.810572863E-2,-9.930213928E0,9.931154022E0
2.720539584E0,-8.075776696E-2,-1.339980662E-1,-9.940084457E0,9.941315623E0
2.722965469E0,-6.640082598E-2,-1.244267747E-1,-9.935298920E0,9.936299901E0
2.725391355E0,-6.879365444E-2,-1.124626622E-1,-9.942477226E0,9.943351236E0
2.727817240E0,-6.879365444E-2,-1.172483116E-1,-9.913464546E0,9.914396555E0
2.730243178E0,-7.836493850E-2,-1.220339537E-1,-9.915857315E0,9.916917850E0
2.732669063E0,-5.922235921E-2,-1.124626622E-1,-9.923035622E0,9.923849610E0
2.735094948E0,-8.315058798E-2,-1.124626622E-1,-9.935298920E0,9.936283334E0
2.737520834E0,-7.118647546E-2,-1.244267747E-1,-9.920642853E0,9.921678495E0
2.739946771E0,-8.315058798E-2,-1.411765367E-1,-9.925428391E0,9.926780625E0
2.742372657E0,-7.118647546E-2,-1.268195957E-1,-9.940084457E0,9.941148311E0
2.744798542E0,-8.315058798E-2,-1.196411327E-1,-9.903892517E0,9.904964160E0
2.747224428E0,-7.118647546E-2,-1.052841991E-1,-9.932906151E0,9.933719187E0
2.749650313E0,-6.640082598E-2,-1.339980662E-1,-9.913464546E0,9.914592471E0
2.752076250E0,-8.315058798E-2,-1.268195957E-1,-9.927821159E0,9.928979313E0
2.754502136E0,-8.793623000E-2,-1.124626622E-1,-9.927821159E0,9.928847547E0
2.756928021E0,-7.597211748E-2,-1.148554832E-1,-9.935298920E0,9.936253226E0
2.759353907E0,-7.597211748E-2,-1.292124242E-1,-9.927821159E0,9.928952643E0
2.761779792E0,-7.836493850E-2,-1.172483116E-1,-9.932906151E0,9.933907229E0
2.764205730E0,-7.836493850E-2,-1.268195957E-1,-9.932906151E0,9.934024807E0
2.766631615E0,-8.075776696E-2,-1.172483116E-1,-9.918250084E0,9.919271834E0
2.769057500E0,-8.075776696E-2,-1.316052526E-1,-9.920642853E0,9.921844404E0
2.771483386E0,-6.640082598E-2,-1.363908947E-1,-9.920642853E0,9.921802566E0
2.773909323E0,-7.357929647E-2,-1.052841991E-1,-9.915857315E0,9.916689214E0
2.776335209E0,-6.400800496E-2,-1.196411327E-1,-9.932906151E0,9.933832877E0
2.778761094E0,-8.315058798E-2,-1.196411327E-1,-9.918250084E0,9.919320176E0
2.781186980E0,-8.075776696E-2,-1.220339537E-1,-9.918250084E0,9.919329555E0
2.783612865E0,-7.357929647E-2,-1.196411327E-1,-9.918250084E0,9.919244560E0
2.786038803E0,-1.022931710E-1,-1.411765367E-1,-9.915857315E0,9.917389828E0
2.788464688E0,-6.879365444E-2,-1.387837082E-1,-9.937691689E0,9.938898811E0
2.790890573E0,-7.118647546E-2,-1.387837082E-1,-9.920642853E0,9.921868929E0
2.793316459E0,-6.161518395E-2,-1.100698411E-1,-9.930213928E0,9.931015077E0
2.795742396E0,-9.750752151E-2,-1.555334777E-1,-9.920642853E0,9.922341104E0
2.798168282E0,-8.075776696E-2,-1.244267747E-1,-9.927821159E0,9.928929288E0
2.800594167E0,-9.032905847E-2,-1.028913707E-1,-9.920642853E0,9.921587604E0
2.803020053E0,-1.118644550E-1,-1.220339537E-1,-9.920642853E0,9.922024015E0
2.805445938E0,-7.597211748E-2,-1.459621787E-1,-9.913464546E0,9.914830106E0
2.807871875E0,-6.640082598E-2,-1.028913707E-1,-9.932906151E0,9.933660972E0
2.810297761E0,-8.315058798E-2,-9.810572863E-2,-9.927821159E0,9.928654074E0
2.812723646E0,-8.075776696E-2,-8.853443712E-2,-9.935298920E0,9.936021577E0
2.815149532E0,-8.554340899E-2,-1.100698411E-1,-9.913464546E0,9.914444632E0
2.817575417E0,-8.315058798E-2,-1.292124242E-1,-9.906285286E0,9.907476875E0
2.820001355E0,-9.032905847E-2,-1.220339537E-1,-9.915857315E0,9.917019609E0
2.822427240E0,-1.118644550E-1,-1.387837082E-1,-9.918250084E0,9.919851778E0
2.824853125E0,-5.204389244E-2,-1.292124242E-1,-9.918250084E0,9.919228253E0
2.827279011E0,-9.032905847E-2,-1.148554832E-1,-9.940084457E0,9.941158390E0
2.829704948E0,-6.640082598E-2,-1.028913707E-1,-9.935298920E0,9.936053559E0
2.832130834E0,-7.118647546E-2,-1.268195957E-1,-9.913464546E0,9.914531256E0
2.834556719E0,-8.793623000E-2,-1.196411327E-1,-9.937691689E0,9.938800877E0
2.836982605E0,-6.161518395E-2,-1.363908947E-1,-9.930213928E0,9.931341680E0
2.839408490E0,-7.836493850E-2,-1.220339537E-1,-9.920642853E0,9.921702876E0
2.841834428E0,-5.922235921E-2,-1.220339537E-1,-9.935298920E0,9.936224846E0
2.844260313E0,-9.511470050E-2,-1.244267747E-1,-9.918250084E0,9.919486557E0
2.846686198E0,-8.793623000E-2,-1.292124242E-1,-9.923035622E0,9.924266450E0
2.849112084E0,-6.879365444E-2,-1.220339537E-1,-9.942477226E0,9.943464097E0
2.851537969E0,-7.836493850E-2,-1.435693651E-1,-9.932906151E0,9.934252756E0
2.853963907E0,-8.554340899E-2,-1.387837082E-1,-9.918250084E0,9.919589877E0
2.856389792E0,-1.046859920E-1,-1.148554832E-1,-9.925428391E0,9.926644935E0
2.858815678E0,-9.272187948E-2,-1.244267747E-1,-9.920642853E0,9.921856378E0
2.861241563E0,-8.315058798E-2,-1.100698411E-1,-9.923035622E0,9.923994425E0
2.863667500E0,-8.075776696E-2,-1.579262912E-1,-9.944869995E0,9.946451717E0
2.866093386E0,-4.247260094E-2,-1.363908947E-1,-9.918250084E0,9.919278760E0
2.868519271E0,-3.529413417E-2,-1.148554832E-1,-9.906285286E0,9.907013961E0
2.870945157E0,-9.032905847E-2,-1.268195957E-1,-9.925428391E0,9.926649550E0
2.873371042E0,-6.879365444E-2,-1.076770201E-1,-9.923035622E0,9.923858265E0
2.875796980E0,-8.075776696E-2,-1.220339537E-1,-9.920642853E0,9.921722064E0
2.878222865E0,-1.046859920E-1,-1.220339537E-1,-9.927821159E0,9.929123044E0
2.880648750E0,-9.032905847E-2,-1.172483116E-1,-9.940084457E0,9.941186324E0
2.883074636E0,-5.922235921E-2,-1.124626622E-1,-9.930213928E0,9.931027328E0
2.885500521E0,-9.990034252E-2,-1.172483116E-1,-9.940084457E0,9.941277899E0
2.887926459E0,-5.204389244E-2,-1.004985496E-1,-9.925428391E0,9.926073607E0
2.890352344E0,-7.597211748E-2,-1.363908947E-1,-9.923035622E0,9.924263710E0
2.892778230E0,-7.597211748E-2,-1.220339537E-1,-9.920642853E0,9.921684265E0
2.895204115E0,-6.161518395E-2,-9.332008660E-2,-9.937691689E0,9.938320842E0
2.897630053E0,-6.400800496E-2,-1.196411327E-1,-9.913464546E0,9.914393090E0
2.900055938E0,-7.836493850E-2,-9.810572863E-2,-9.923035622E0,9.923829994E0
2.902481823E0,-5.922235921E-2,-1.268195957E-1,-9.901499748E0,9.902488968E0
2.904907709E0,-8.315058798E-2,-1.076770201E-1,-9.911071777E0,9.912005455E0
2.907333646E0,-7.836493850E-2,-1.316052526E-1,-9.925428391E0,9.926610184E0
2.909759532E0,-8.075776696E-2,-1.172483116E-1,-9.915857315E0,9.916879311E0
2.912185417E0,-6.161518395E-2,-1.220339537E-1,-9.932906151E0,9.933846854E0
2.914611303E0,-7.597211748E-2,-1.244267747E-1,-9.923035622E0,9.924106495E0
2.917037188E0,-7.836493850E-2,-1.220339537E-1,-9.930213928E0,9.931272930E0
2.919463125E0,-6.879365444E-2,-1.244267747E-1,-9.930213928E0,9.931231709E0
2.921889011E0,-9.032905847E-2,-1.172483116E-1,-9.930213928E0,9.931316890E0
2.924314896E0,-5.443671346E-2,-1.100698411E-1,-9.908679008E0,9.909439864E0
2.926740782E0,-6.400800496E-2,-1.076770201E-1,-9.915857315E0,9.916648509E0
2.929166667E0,-6.879365444E-2,-1.028913707E-1,-9.949655533E0,9.950425339E0
2.931592605E0,-7.357929647E-2,-1.028913707E-1,-9.942477226E0,9.943281850E0
2.934018490E0,-8.554340899E-2,-1.004985496E-1,-9.925428391E0,9.926305776E0
2.936444375E0,-8.554340899E-2,-1.028913707E-1,-9.925428391E0,9.926330291E0
2.938870261E0,-8.075776696E-2,-1.100698411E-1,-9.932906151E0,9.933844260E0
2.941296198E0,-4.486542568E-2,-9.092725813E-2,-9.937691689E0,9.938208932E0
2.943722084E0,-8.315058798E-2,-1.124626622E-1,-9.930213928E0,9.931198847E0
2.946147969E0,-9.511470050E-2,-1.148554832E-1,-9.920642853E0,9.921763613E0
2.948573855E0,-9.990034252E-2,-1.172483116E-1,-9.949655533E0,9.950847827E0
2.950999740E0,-7.118647546E-2,-1.100698411E-1,-9.937691689E0,9.938556182E0
2.953425678E0,-8.793623000E-2,-1.220339537E-1,-9.918250084E0,9.919390596E0
2.955851563E0,-6.879365444E-2,-1.172483116E-1,-9.923035622E0,9.923966731E0
2.958277448E0,-7.597211748E-2,-1.172483116E-1,-9.918250084E0,9.919234026E0
2.960703334E0,-7.357929647E-2,-1.100698411E-1,-9.925428391E0,9.926311400E0
2.963129271E0,-7.836493850E-2,-1.052841991E-1,-9.954441071E0,9.955306266E0
2.965555157E0,-6.640082598E-2,-1.004985496E-1,-9.937691689E0,9.938421662E0
2.967981042E0,-9.272187948E-2,-1.387837082E-1,-9.942477226E0,9.943878100E0
2.970406928E0,-9.990034252E-2,-1.244267747E-1,-9.935298920E0,9.936580233E0
2.972832813E0,-6.879365444E-2,-1.124626622E-1,-9.927821159E0,9.928696460E0
2.975258750E0,-6.161518395E-2,-1.244267747E-1,-9.927821159E0,9.928792043E0
2.977684636E0,-7.836493850E-2,-1.172483116E-1,-9.920642853E0,9.921645168E0
2.980110521E0,-6.400800496E-2,-1.196411327E-1,-9.925428391E0,9.926355815E0
2.982536407E0,-5.443671346E-2,-1.124626622E-1,-9.930213928E0,9.930999943E0
2.984962292E0,-6.161518395E-2,-1.220339537E-1,-9.932906151E0,9.933846854E0
2.987388230E0,-5.682953820E-2,-1.172483116E-1,-9.935298920E0,9.936153249E0
2.989814115E0,-7.357929647E-2,-1.148554832E-1,-9.932906151E0,9.933842675E0
2.992240000E0,-7.357929647E-2,-1.028913707E-1,-9.935298920E0,9.936104124E0
2.994665886E0,-6.640082598E-2,-1.052841991E-1,-9.927821159E0,9.928601453E0
2.997091823E0,-9.272187948E-2,-1.292124242E-1,-9.932906151E0,9.934179272E0
2.999517709E0,-1.118644550E-1,-1.076770201E-1,-9.925428391E0,9.926642772E0
3.001943594E0,-8.315058798E-2,-1.196411327E-1,-9.920642853E0,9.921712686E0
3.004369480E0,-7.357929647E-2,-1.100698411E-1,-9.908679008E0,9.909563511E0
3.006795417E0,-6.879365444E-2,-1.220339537E-1,-9.925428391E0,9.926416956E0
3.009221303E0,-7.118647546E-2,-1.052841991E-1,-9.937691689E0,9.938504333E0
3.011647188E0,-7.597211748E-2,-1.244267747E-1,-9.932906151E0,9.933975961E0
3.014073073E0,-7.597211748E-2,-1.316052526E-1,-9.913464546E0,9.914629142E0
3.016498959E0,-6.879365444E-2,-1.292124242E-1,-9.920642853E0,9.921722785E0
3.018924844E0,-7.118647546E-2,-1.148554832E-1,-9.918250084E0,9.919170531E0
3.021350782E0,-7.597211748E-2,-1.339980662E-1,-9.927821159E0,9.929016075E0
3.023776667E0,-7.836493850E-2,-1.268195957E-1,-9.930213928E0,9.931332888E0
3.026202553E0,-6.161518395E-2,-8.614161611E-2,-9.923035622E0,9.923600796E0
3.028628438E0,-8.554340899E-2,-1.244267747E-1,-9.927821159E0,9.928969366E0
3.031054375E0,-5.204389244E-2,-1.028913707E-1,-9.927821159E0,9.928490730E0
3.033480261E0,-8.315058798E-2,-1.220339537E-1,-9.920642853E0,9.921741829E0
3.035906146E0,-7.357929647E-2,-1.124626622E-1,-9.923035622E0,9.923945673E0
3.038332032E0,-8.315058798E-2,-1.268195957E-1,-9.911071777E0,9.912231888E0
3.040757917E0,-8.075776696E-2,-9.571290761E-2,-9.923035622E0,9.923825811E0
3.043183855E0,-9.750752151E-2,-1.244267747E-1,-9.935298920E0,9.936556464E0
3.045609740E0,-7.357929647E-2,-1.363908947E-1,-9.915857315E0,9.917068250E0
3.048035625E0,-7.118647546E-2,-1.124626622E-1,-9.920642853E0,9.921535666E0
3.050461511E0,-8.793623000E-2,-1.316052526E-1,-9.937691689E0,9.938952099E0
3.052887396E0,-4.965107143E-2,-1.220339537E-1,-9.920642853E0,9.921517632E0
3.055313334E0,-7.597211748E-2,-1.411765367E-1,-9.944869995E0,9.946162164E0
3.057739219E0,-5.682953820E-2,-1.387837082E-1,-9.944869995E0,9.946000690E0
3.060165105E0,-7.357929647E-2,-9.332008660E-2,-9.927821159E0,9.928532395E0
3.062590990E0,-8.793623000E-2,-1.124626622E-1,-9.915857315E0,9.916884941E0
3.065016928E0,-5.682953820E-2,-9.332008660E-2,-9.923035622E0,9.923637145E0
3.067442813E0,-5.204389244E-2,-1.100698411E-1,-9.923035622E0,9.923782539E0
3.069868698E0,-6.879365444E-2,-1.100698411E-1,-9.930213928E0,9.931062209E0
3.072294584E0,-6.879365444E-2,-1.196411327E-1,-9.940084457E0,9.941042480E0
3.074720469E0,-9.032905847E-2,-1.459621787E-1,-9.925428391E0,9.926912563E0
3.077146407E0,-6.161518395E-2,-1.124626622E-1,-9.940084457E0,9.940911593E0
3.079572292E0,-7.118647546E-2,-1.076770201E-1,-9.913464546E0,9.914304875E0
3.081998178E0,-7.597211748E-2,-1.100698411E-1,-9.918250084E0,9.919151771E0
3.084424063E0,-8.075776696E-2,-1.268195957E-1,-9.920642853E0,9.921782080E0
3.086849948E0,-7.597211748E-2,-1.196411327E-1,-9.937691689E0,9.938702222E0
3.089275886E0,-5.922235921E-2,-1.196411327E-1,-9.930213928E0,9.931111214E0
3.091701771E0,-5.682953820E-2,-1.100698411E-1,-9.908679008E0,9.909453298E0
3.094127657E0,-9.032905847E-2,-1.268195957E-1,-9.940084457E0,9.941303816E0
3.096553542E0,-6.400800496E-2,-1.459621787E-1,-9.915857315E0,9.917138109E0
3.098979480E0,-5.443671346E-2,-1.268195957E-1,-9.940084457E0,9.941042480E0
3.101405365E0,-7.118647546E-2,-1.172483116E-1,-9.930213928E0,9.931161228E0
3.103831250E0,-6.161518395E-2,-1.100698411E-1,-9.940084457E0,9.940884811E0
3.106257136E0,-7.836493850E-2,-1.196411327E-1,-9.927821159E0,9.928851295E0
3.108683021E0,-8.554340899E-2,-1.244267747E-1,-9.937691689E0,9.938838755E0
3.111108959E0,-7.836493850E-2,-1.076770201E-1,-9.918250084E0,9.919144123E0
3.113534844E0,-8.075776696E-2,-1.076770201E-1,-9.923035622E0,9.923948413E0
3.115960730E0,-8.315058798E-2,-1.268195957E-1,-9.923035622E0,9.924194334E0
3.118386615E0,-6.400800496E-2,-1.148554832E-1,-9.942477226E0,9.943346630E0
3.120812500E0,-7.597211748E-2,-1.316052526E-1,-9.923035622E0,9.924199094E0
3.123238438E0,-8.315058798E-2,-1.004985496E-1,-9.913464546E0,9.914322634E0
3.125664323E0,-8.793623000E-2,-1.172483116E-1,-9.911071777E0,9.912155352E0
3.128090209E0,-8.554340899E-2,-1.339980662E-1,-9.908679008E0,9.909954230E0
3.130516146E0,-9.032905847E-2,-1.124626622E-1,-9.918250084E0,9.919298963E0
3.132942032E0,-7.597211748E-2,-1.124626622E-1,-9.937691689E0,9.938618400E0
3.135367917E0,-7.836493850E-2,-1.220339537E-1,-9.940084457E0,9.941142408E0
3.137793803E0,-7.597211748E-2,-1.100698411E-1,-9.923035622E0,9.923936874E0
3.140219688E0,-6.161518395E-2,-1.387837082E-1,-9.925428391E0,9.926589852E0
3.142645573E0,-6.400800496E-2,-1.028913707E-1,-9.923035622E0,9.923775471E0
3.145071511E0,-9.272187948E-2,-1.124626622E-1,-9.925428391E0,9.926498574E0
3.147497396E0,-6.400800496E-2,-1.411765367E-1,-9.915857315E0,9.917068828E0
3.149923282E0,-7.118647546E-2,-1.220339537E-1,-9.923035622E0,9.924041301E0
3.152349167E0,-5.922235921E-2,-1.076770201E-1,-9.911071777E0,9.911833605E0
3.154775105E0,-8.315058798E-2,-1.268195957E-1,-9.930213928E0,9.931371803E0
3.157200990E0,-5.922235921E-2,-1.100698411E-1,-9.923035622E0,9.923822782E0
3.159626875E0,-6.400800496E-2,-1.124626622E-1,-9.932906151E0,9.933749014E0
3.162052761E0,-8.554340899E-2,-1.076770201E-1,-9.911071777E0,9.912025817E0
3.164478646E0,-8.315058798E-2,-9.092725813E-2,-9.925428391E0,9.926193154E0
3.166904584E0,-8.554340899E-2,-1.052841991E-1,-9.913464546E0,9.914392656E0
3.169330469E0,-8.793623000E-2,-1.124626622E-1,-9.927821159E0,9.928847547E0
3.171756355E0,-7.597211748E-2,-1.148554832E-1,-9.911071777E0,9.912028416E0
3.174182240E0,-6.879365444E-2,-1.363908947E-1,-9.930213928E0,9.931388810E0
3.176608178E0,-6.879365444E-2,-1.292124242E-1,-9.932906151E0,9.933984750E0
3.179034063E0,-9.511470050E-2,-1.148554832E-1,-9.920642853E0,9.921763613E0
3.181459948E0,-7.118647546E-2,-1.148554832E-1,-9.927821159E0,9.928740719E0
3.183885834E0,-6.400800496E-2,-1.244267747E-1,-9.937691689E0,9.938676730E0
3.186311719E0,-8.075776696E-2,-1.148554832E-1,-9.925428391E0,9.926421426E0
3.188737657E0,-8.075776696E-2,-9.810572863E-2,-9.913464546E0,9.914278888E0
3.191163542E0,-9.272187948E-2,-1.052841991E-1,-9.930213928E0,9.931204900E0
3.193589428E0,-6.879365444E-2,-1.148554832E-1,-9.927821159E0,9.928723852E0
3.196015313E0,-7.357929647E-2,-1.316052526E-1,-9.925428391E0,9.926573557E0
3.198441198E0,-4.965107143E-2,-1.100698411E-1,-9.927821159E0,9.928555462E0
3.200867136E0,-8.554340899E-2,-1.148554832E-1,-9.930213928E0,9.931246554E0
3.203293021E0,-6.640082598E-2,-1.148554832E-1,-9.923035622E0,9.923922450E0
3.205718907E0,-8.554340899E-2,-1.220339537E-1,-9.920642853E0,9.921762171E0
3.208144792E0,-9.272187948E-2,-1.316052526E-1,-9.932906151E0,9.934210683E0
3.210570730E0,-6.640082598E-2,-1.196411327E-1,-9.925428391E0,9.926371533E0
3.212996615E0,-7.597211748E-2,-9.810572863E-2,-9.930213928E0,9.930989133E0
3.215422500E0,-7.597211748E-2,-1.028913707E-1,-9.927821159E0,9.928644992E0
3.217848386E0,-7.357929647E-2,-1.196411327E-1,-9.915857315E0,9.916852031E0
3.220274271E0,-8.315058798E-2,-1.124626622E-1,-9.925428391E0,9.926413784E0
3.222700209E0,-7.357929647E-2,-1.148554832E-1,-9.935298920E0,9.936235219E0
3.225126094E0,-8.554340899E-2,-1.244267747E-1,-9.949655533E0,9.950801220E0
3.227551980E0,-9.272187948E-2,-1.028913707E-1,-9.930213928E0,9.931179821E0
3.229977865E0,-5.922235921E-2,-1.004985496E-1,-9.927821159E0,9.928506445E0
3.232403750E0,-7.597211748E-2,-1.292124242E-1,-9.925428391E0,9.926560147E0
3.234829688E0,-7.357929647E-2,-1.268195957E-1,-9.947262764E0,9.948343260E0
3.237255573E0,-9.032905847E-2,-1.387837082E-1,-9.915857315E0,9.917239865E0
3.239681459E0,-5.922235921E-2,-1.172483116E-1,-9.932906151E0,9.933774663E0
3.242107344E0,-6.640082598E-2,-1.124626622E-1,-9.913464546E0,9.914324799E0
3.244533282E0,-8.315058798E-2,-1.196411327E-1,-9.913464546E0,9.914535154E0
3.246959167E0,-8.554340899E-2,-1.196411327E-1,-9.906285286E0,9.907377041E0
3.249385053E0,-8.554340899E-2,-1.316052526E-1,-9.913464546E0,9.914707102E0
3.251810938E0,-9.032905847E-2,-1.172483116E-1,-9.925428391E0,9.926531884E0
3.254236823E0,-8.793623000E-2,-1.100698411E-1,-9.930213928E0,9.931213260E0
3.256662761E0,-7.836493850E-2,-1.244267747E-1,-9.925428391E0,9.926517608E0
3.259088646E0,-7.597211748E-2,-1.268195957E-1,-9.927821159E0,9.928921792E0
3.261514532E0,-8.315058798E-2,-1.292124242E-1,-9.937691689E0,9.938879513E0
3.263940417E0,-8.075776696E-2,-1.363908947E-1,-9.920642853E0,9.921909035E0
3.266366303E0,-6.640082598E-2,-1.244267747E-1,-9.925428391E0,9.926430367E0
3.268792240E0,-7.836493850E-2,-1.292124242E-1,-9.940084457E0,9.941233119E0
3.271218125E0,-7.597211748E-2,-1.220339537E-1,-9.930213928E0,9.931254337E0
3.273644011E0,-5.443671346E-2,-1.196411327E-1,-9.923035622E0,9.923906152E0
3.276069948E0,-6.161518395E-2,-9.092725813E-2,-9.932906151E0,9.933513417E0
3.278495834E0,-7.836493850E-2,-1.172483116E-1,-9.944869995E0,9.945869869E0
3.280921719E0,-5.204389244E-2,-1.363908947E-1,-9.935298920E0,9.936371353E0
3.283347605E0,-5.204389244E-2,-1.220339537E-1,-9.925428391E0,9.926315005E0
3.285773490E0,-7.597211748E-2,-1.316052526E-1,-9.927821159E0,9.928984071E0
3.288199375E0,-8.554340899E-2,-1.196411327E-1,-9.930213928E0,9.931303053E0
3.290625313E0,-8.554340899E-2,-1.292124242E-1,-9.918250084E0,9.919460583E0
3.293051198E0,-1.094716340E-1,-1.076770201E-1,-9.925428391E0,9.926616096E0
3.295477084E0,-8.793623000E-2,-1.052841991E-1,-9.935298920E0,9.936245879E0
3.297902969E0,-8.793623000E-2,-1.316052526E-1,-9.923035622E0,9.924297893E0
3.300328855E0,-7.597211748E-2,-1.220339537E-1,-9.925428391E0,9.926469301E0
3.302754792E0,-7.357929647E-2,-1.172483116E-1,-9.925428391E0,9.926393596E0
3.305180678E0,-7.357929647E-2,-1.100698411E-1,-9.923035622E0,9.923918844E0
3.307606563E0,-7.836493850E-2,-1.100698411E-1,-9.915857315E0,9.916777840E0
3.310032448E0,-7.357929647E-2,-1.268195957E-1,-9.913464546E0,9.914548726E0
3.312458386E0,-7.118647546E-2,-1.172483116E-1,-9.906285286E0,9.907234874E0
3.314884271E0,-5.922235921E-2,-1.100698411E-1,-9.930213928E0,9.931000519E0
3.317310157E0,-6.640082598E-2,-1.435693651E-1,-9.940084457E0,9.941342980E0
3.319736042E0,-7.836493850E-2,-1.292124242E-1,-9.923035622E0,9.924186257E0
3.322161928E0,-5.922235921E-2,-1.100698411E-1,-9.925428391E0,9.926215361E0
3.324587865E0,-5.922235921E-2,-1.292124242E-1,-9.937691689E0,9.938708127E0
3.327013750E0,-9.272187948E-2,-1.316052526E-1,-9.918250084E0,9.919556543E0
3.329439636E0,-6.879365444E-2,-1.196411327E-1,-9.920642853E0,9.921602753E0
3.331865521E0,-5.443671346E-2,-1.220339537E-1,-9.925428391E0,9.926327839E0
3.334291459E0,-6.400800496E-2,-1.316052526E-1,-9.935298920E0,9.936376683E0
3.336717344E0,-9.272187948E-2,-1.387837082E-1,-9.927821159E0,9.929224100E0
3.339143230E0,-8.554340899E-2,-1.292124242E-1,-9.927821159E0,9.929030491E0
3.341569115E0,-8.315058798E-2,-1.363908947E-1,-9.906285286E0,9.907573097E0
3.343995000E0,-6.400800496E-2,-1.028913707E-1,-9.920642853E0,9.921382881E0
3.346420938E0,-9.032905847E-2,-9.810572863E-2,-9.918250084E0,9.919146576E0
3.348846823E0,-6.879365444E-2,-1.339980662E-1,-9.925428391E0,9.926571250E0
3.351272709E0,-5.922235921E-2,-1.268195957E-1,-9.918250084E0,9.919237633E0
3.353698594E0,-6.879365444E-2,-1.100698411E-1,-9.935298920E0,9.936146766E0
3.356124480E0,-8.075776696E-2,-1.148554832E-1,-9.923035622E0,9.924028897E0
3.358550417E0,-6.640082598E-2,-1.268195957E-1,-9.908679008E0,9.909713012E0
3.360976303E0,-8.315058798E-2,-1.196411327E-1,-9.911071777E0,9.912142644E0
3.363402188E0,-8.075776696E-2,-1.387837082E-1,-9.932906151E0,9.934203911E0
3.365828073E0,-7.118647546E-2,-1.148554832E-1,-9.913464546E0,9.914385438E0
3.368254011E0,-6.879365444E-2,-1.124626622E-1,-9.913464546E0,9.914341114E0
3.370679896E0,-8.554340899E-2,-1.148554832E-1,-9.932906151E0,9.933938497E0
3.373105782E0,-6.400800496E-2,-1.220339537E-1,-9.940084457E0,9.941039600E0
3.375531667E0,-6.879365444E-2,-1.268195957E-1,-9.942477226E0,9.943523982E0
3.377957553E0,-6.879365444E-2,-1.124626622E-1,-9.935298920E0,9.936173561E0
3.380383490E0,-8.315058798E-2,-1.148554832E-1,-9.944869995E0,9.945880807E0
3.382809375E0,-6.400800496E-2,-1.363908947E-1,-9.925428391E0,9.926571827E0
3.385235261E0,-7.357929647E-2,-1.363908947E-1,-9.901499748E0,9.902712439E0
3.387661146E0,-5.443671346E-2,-1.052841991E-1,-9.925428391E0,9.926136049E0
3.390087032E0,-7.357929647E-2,-1.052841991E-1,-9.920642853E0,9.921474351E0
3.392512969E0,-7.357929647E-2,-9.332008660E-2,-9.927821159E0,9.928532395E0
3.394938855E0,-7.118647546E-2,-1.244267747E-1,-9.930213928E0,9.931248572E0
3.397364740E0,-5.443671346E-2,-8.853443712E-2,-9.925428391E0,9.925972518E0
3.399790625E0,-5.682953820E-2,-1.148554832E-1,-9.913464546E0,9.914292748E0
3.402216563E0,-7.118647546E-2,-1.124626622E-1,-9.927821159E0,9.928713327E0
3.404642448E0,-6.161518395E-2,-9.810572863E-2,-9.930213928E0,9.930889679E0
3.407068334E0,-5.443671346E-2,-1.244267747E-1,-9.911071777E0,9.912002278E0
3.409494219E0,-6.161518395E-2,-1.052841991E-1,-9.927821159E0,9.928570600E0
3.411920105E0,-4.247260094E-2,-1.339980662E-1,-9.942477226E0,9.943470863E0
3.414346042E0,-8.075776696E-2,-1.316052526E-1,-9.925428391E0,9.926629362E0
3.416771928E0,-9.032905847E-2,-1.196411327E-1,-9.927821159E0,9.928952931E0
3.419197813E0,-5.204389244E-2,-1.220339537E-1,-9.925428391E0,9.926315005E0
3.421623698E0,-5.682953820E-2,-1.220339537E-1,-9.930213928E0,9.931126348E0
3.424049584E0,-5.922235921E-2,-1.052841991E-1,-9.932906151E0,9.933640654E0
3.426475521E0,-7.836493850E-2,-1.196411327E-1,-9.903892517E0,9.904925141E0
3.428901407E0,-6.161518395E-2,-1.316052526E-1,-9.913464546E0,9.914529524E0
3.431327292E0,-8.315058798E-2,-1.100698411E-1,-9.942477226E0,9.943434154E0
3.433753178E0,-8.075776696E-2,-1.100698411E-1,-9.937691689E0,9.938629346E0
3.436179115E0,-7.118647546E-2,-1.220339537E-1,-9.944869995E0,9.945873467E0
3.438605000E0,-9.272187948E-2,-9.571290761E-2,-9.932906151E0,9.933800024E0
3.441030886E0,-6.400800496E-2,-1.148554832E-1,-9.935298920E0,9.936168951E0
3.443456771E0,-7.597211748E-2,-1.124626622E-1,-9.915857315E0,9.916786067E0
3.445882657E0,-6.161518395E-2,-1.148554832E-1,-9.920642853E0,9.921499021E0
3.448308594E0,-5.682953820E-2,-1.220339537E-1,-9.911071777E0,9.911985959E0
3.450734480E0,-5.682953820E-2,-1.292124242E-1,-9.925428391E0,9.926432097E0
3.453160365E0,-5.922235921E-2,-1.100698411E-1,-9.935298920E0,9.936085108E0
3.455586250E0,-9.750752151E-2,-1.196411327E-1,-9.906285286E0,9.907487567E0
3.458012136E0,-7.357929647E-2,-1.028913707E-1,-9.930213928E0,9.931019545E0
3.460438073E0,-7.836493850E-2,-1.076770201E-1,-9.942477226E0,9.943369087E0
3.462863959E0,-8.793623000E-2,-1.244267747E-1,-9.923035622E0,9.924205296E0
3.465289844E0,-9.750752151E-2,-1.220339537E-1,-9.906285286E0,9.907516751E0
3.467715730E0,-6.400800496E-2,-9.332008660E-2,-9.923035622E0,9.923680850E0
3.470141667E0,-7.357929647E-2,-1.004985496E-1,-9.923035622E0,9.923817301E0
3.472567553E0,-8.793623000E-2,-1.124626622E-1,-9.940084457E0,9.941109578E0
3.474993438E0,-7.118647546E-2,-1.244267747E-1,-9.927821159E0,9.928856052E0
3.477419323E0,-6.161518395E-2,-1.172483116E-1,-9.923035622E0,9.923919566E0
3.479845209E0,-5.204389244E-2,-1.100698411E-1,-9.923035622E0,9.923782539E0
3.482271146E0,-7.836493850E-2,-1.316052526E-1,-9.923035622E0,9.924217700E0
3.484697032E0,-6.879365444E-2,-1.100698411E-1,-9.932906151E0,9.933754202E0
3.487122917E0,-6.400800496E-2,-1.220339537E-1,-9.925428391E0,9.926384943E0
3.489548803E0,-8.075776696E-2,-1.220339537E-1,-9.930213928E0,9.931292099E0
3.491974740E0,-9.272187948E-2,-1.148554832E-1,-9.920642853E0,9.921740963E0
3.494400625E0,-8.075776696E-2,-1.196411327E-1,-9.925428391E0,9.926477953E0
3.496826511E0,-7.357929647E-2,-1.124626622E-1,-9.949655533E0,9.950563149E0
3.499252396E0,-8.315058798E-2,-1.148554832E-1,-9.915857315E0,9.916871084E0
3.501678282E0,-8.793623000E-2,-1.339980662E-1,-9.920642853E0,9.921937456E0
3.504104219E0,-9.511470050E-2,-1.339980662E-1,-9.918250084E0,9.919611233E0
3.506530105E0,-7.836493850E-2,-1.172483116E-1,-9.908679008E0,9.909682534E0
3.508955990E0,-8.554340899E-2,-1.148554832E-1,-9.932906151E0,9.933938497E0
3.511381875E0,-7.118647546E-2,-1.220339537E-1,-9.903892517E0,9.904900140E0
3.513807761E0,-8.075776696E-2,-1.172483116E-1,-9.918250084E0,9.919271834E0
3.516233698E0,-8.315058798E-2,-1.148554832E-1,-9.908679008E0,9.909693512E0
3.518659584E0,-7.597211748E-2,-1.148554832E-1,-9.930213928E0,9.931168723E0
3.521085469E0,-5.443671346E-2,-1.244267747E-1,-9.920642853E0,9.921572456E0
3.523511355E0,-7.357929647E-2,-1.148554832E-1,-9.911071777E0,9.912010365E0
3.525937240E0,-8.075776696E-2,-1.244267747E-1,-9.925428391E0,9.926536787E0
3.528363178E0,-9.511470050E-2,-1.268195957E-1,-9.935298920E0,9.936563523E0
3.530789063E0,-8.793623000E-2,-1.076770201E-1,-9.915857315E0,9.916831823E0
3.533214948E0,-8.554340899E-2,-1.268195957E-1,-9.935298920E0,9.936476514E0
3.535640834E0,-7.597211748E-2,-9.810572863E-2,-9.923035622E0,9.923811387E0
3.538066771E0,-9.032905847E-2,-1.196411327E-1,-9.930213928E0,9.931345427E0
3.540492657E0,-7.836493850E-2,-1.244267747E-1,-9.932906151E0,9.933994548E0
3.542918542E0,-8.793623000E-2,-1.196411327E-1,-9.935298920E0,9.936408375E0
3.545344428E0,-7.597211748E-2,-1.196411327E-1,-9.927821159E0,9.928832698E0
3.547770365E0,-8.554340899E-2,-1.052841991E-1,-9.901499748E0,9.902428980E0
3.550196250E0,-7.836493850E-2,-1.507478207E-1,-9.915857315E0,9.917312754E0
3.552622136E0,-9.511470050E-2,-1.076770201E-1,-9.899106979E0,9.900149501E0
3.555048021E0,-8.554340899E-2,-1.268195957E-1,-9.913464546E0,9.914644734E0
3.557473907E0,-8.315058798E-2,-1.244267747E-1,-9.935298920E0,9.936425950E0
3.559899792E0,-9.032905847E-2,-1.268195957E-1,-9.930213928E0,9.931434499E0
3.562325730E0,-6.879365444E-2,-1.220339537E-1,-9.920642853E0,9.921631895E0
3.564751615E0,-9.990034252E-2,-1.220339537E-1,-9.947262764E0,9.948512897E0
3.567177500E0,-8.554340899E-2,-1.220339537E-1,-9.949655533E0,9.950771587E0
3.569603386E0,-6.640082598E-2,-1.268195957E-1,-9.940084457E0,9.941115194E0
3.572029323E0,-6.640082598E-2,-1.292124242E-1,-9.923035622E0,9.924098995E0
3.574455209E0,-7.357929647E-2,-1.220339537E-1,-9.942477226E0,9.943498358E0
3.576881094E0,-8.554340899E-2,-9.810572863E-2,-9.925428391E0,9.926281839E0
3.579306980E0,-8.793623000E-2,-1.148554832E-1,-9.925428391E0,9.926482423E0
3.581732865E0,-6.400800496E-2,-1.339980662E-1,-9.925428391E0,9.926539238E0
3.584158803E0,-6.161518395E-2,-1.292124242E-1,-9.911071777E0,9.912105531E0
3.586584688E0,-6.879365444E-2,-1.220339537E-1,-9.944869995E0,9.945856628E0
3.589010573E0,-8.315058798E-2,-1.196411327E-1,-9.927821159E0,9.928890220E0
3.591436459E0,-7.597211748E-2,-1.148554832E-1,-9.932906151E0,9.933860687E0
3.593862344E0,-5.204389244E-2,-1.316052526E-1,-9.927821159E0,9.928829814E0
3.596288282E0,-7.357929647E-2,-1.292124242E-1,-9.935298920E0,9.936411545E0
3.598714167E0,-8.075776696E-2,-1.220339537E-1,-9.932906151E0,9.933984030E0
3.601140053E0,-5.682953820E-2,-1.244267747E-1,-9.925428391E0,9.926370956E0
3.603565938E0,-8.075776696E-2,-1.124626622E-1,-9.935298920E0,9.936263598E0
3.605991875E0,-6.161518395E-2,-1.100698411E-1,-9.925428391E0,9.926229926E0
3.608417761E0,-7.836493850E-2,-1.148554832E-1,-9.940084457E0,9.941056879E0
3.610843646E0,-7.597211748E-2,-1.196411327E-1,-9.915857315E0,9.916870074E0
3.613269532E0,-8.075776696E-2,-9.571290761E-2,-9.918250084E0,9.919040654E0
3.615695417E0,-6.879365444E-2,-1.052841991E-1,-9.918250084E0,9.919047437E0
3.618121355E0,-7.836493850E-2,-1.363908947E-1,-9.927821159E0,9.929067253E0
3.620547240E0,-5.204389244E-2,-1.196411327E-1,-9.906285286E0,9.907144429E0
3.622973125E0,-6.161518395E-2,-9.810572863E-2,-9.935298920E0,9.935974325E0
3.625399011E0,-7.836493850E-2,-1.100698411E-1,-9.949655533E0,9.950572931E0
3.627824948E0,-8.075776696E-2,-1.244267747E-1,-9.925428391E0,9.926536787E0
3.630250834E0,-7.836493850E-2,-1.435693651E-1,-9.932906151E0,9.934252756E0
3.632676719E0,-5.443671346E-2,-1.244267747E-1,-9.932906151E0,9.933834606E0
3.635102605E0,-6.640082598E-2,-1.100698411E-1,-9.923035622E0,9.923868217E0
3.637528490E0,-5.443671346E-2,-1.220339537E-1,-9.932906151E0,9.933804923E0
3.639954375E0,-8.315058798E-2,-1.387837082E-1,-9.908679008E0,9.909999729E0
3.642380313E0,-6.879365444E-2,-1.411765367E-1,-9.932906151E0,9.934147572E0
3.644806198E0,-8.075776696E-2,-1.268195957E-1,-9.930213928E0,9.931352057E0
3.647232084E0,-7.597211748E-2,-1.052841991E-1,-9.918250084E0,9.919099821E0
3.649657969E0,-8.315058798E-2,-1.387837082E-1,-9.937691689E0,9.939008554E0
3.652083855E0,-8.793623000E-2,-1.316052526E-1,-9.923035622E0,9.924297893E0
3.654509792E0,-1.094716340E-1,-1.435693651E-1,-9.908679008E0,9.910323703E0
3.656935678E0,-7.597211748E-2,-1.220339537E-1,-9.911071777E0,9.912114195E0
3.659361563E0,-6.400800496E-2,-1.052841991E-1,-9.918250084E0,9.919015400E0
3.661787448E0,-7.357929647E-2,-1.004985496E-1,-9.949655533E0,9.950435121E0
3.664213386E0,-6.400800496E-2,-1.292124242E-1,-9.935298920E0,9.936345279E0
3.666639271E0,-7.597211748E-2,-1.196411327E-1,-9.927821159E0,9.928832698E0
3.669065157E0,-8.315058798E-2,-1.172483116E-1,-9.932906151E0,9.933946134E0
3.671491042E0,-4.965107143E-2,-1.100698411E-1,-9.949655533E0,9.950388225E0
3.673916980E0,-6.879365444E-2,-1.172483116E-1,-9.956833839E0,9.957761789E0
3.676342865E0,-6.161518395E-2,-1.244267747E-1,-9.944869995E0,9.945839214E0
3.678768750E0,-7.836493850E-2,-1.076770201E-1,-9.932906151E0,9.933798871E0
3.681194636E0,-7.357929647E-2,-9.332008660E-2,-9.944869995E0,9.945580012E0
3.683620521E0,-7.118647546E-2,-1.148554832E-1,-9.925428391E0,9.926348172E0
3.686046459E0,-6.879365444E-2,-1.196411327E-1,-9.947262764E0,9.948220095E0
3.688472344E0,-7.118647546E-2,-1.244267747E-1,-9.932906151E0,9.933940514E0
3.690898230E0,-5.443671346E-2,-1.244267747E-1,-9.920642853E0,9.921572456E0
3.693324115E0,-5.443671346E-2,-1.028913707E-1,-9.920642853E0,9.921325748E0
3.695750000E0,-9.032905847E-2,-1.316052526E-1,-9.935298920E0,9.936581097E0
3.698175938E0,-1.046859920E-1,-1.196411327E-1,-9.923035622E0,9.924308999E0
3.700601823E0,-6.161518395E-2,-1.028913707E-1,-9.930213928E0,9.930938109E0
3.703027709E0,-6.879365444E-2,-9.571290761E-2,-9.932906151E0,9.933605495E0
3.705453594E0,-6.640082598E-2,-9.092725813E-2,-9.925428391E0,9.926066974E0
3.707879480E0,-6.161518395E-2,-1.076770201E-1,-9.927821159E0,9.928596263E0
3.710305417E0,-8.315058798E-2,-1.028913707E-1,-9.932906151E0,9.933787055E0
3.712731303E0,-6.640082598E-2,-1.100698411E-1,-9.942477226E0,9.943308194E0
3.715157188E0,-5.204389244E-2,-1.196411327E-1,-9.940084457E0,9.940940679E0
3.717583073E0,-5.204389244E-2,-1.124626622E-1,-9.920642853E0,9.921416785E0
3.720009011E0,-9.032905847E-2,-1.411765367E-1,-9.913464546E0,9.914881213E0
3.722434896E0,-4.007977992E-2,-1.411765367E-1,-9.925428391E0,9.926513282E0
3.724860782E0,-7.357929647E-2,-1.196411327E-1,-9.920642853E0,9.921637089E0
3.727286667E0,-5.922235921E-2,-1.172483116E-1,-9.920642853E0,9.921512438E0
3.729712553E0,-8.075776696E-2,-1.028913707E-1,-9.930213928E0,9.931075325E0
3.732138490E0,-8.075776696E-2,-1.196411327E-1,-9.932906151E0,9.933954923E0
3.734564375E0,-7.357929647E-2,-1.244267747E-1,-9.932906151E0,9.933957949E0
3.736990261E0,-6.400800496E-2,-1.100698411E-1,-9.927821159E0,9.928637639E0
3.739416146E0,-8.554340899E-2,-1.220339537E-1,-9.920642853E0,9.921762171E0
3.741842032E0,-7.836493850E-2,-1.196411327E-1,-9.918250084E0,9.919281213E0
3.744267969E0,-8.075776696E-2,-1.172483116E-1,-9.930213928E0,9.931234447E0
3.746693855E0,-8.554340899E-2,-1.100698411E-1,-9.923035622E0,9.924014762E0
3.749119740E0,-9.272187948E-2,-1.268195957E-1,-9.940084457E0,9.941325846E0
3.751545625E0,-7.357929647E-2,-9.092725813E-2,-9.930213928E0,9.930902796E0
3.753971563E0,-9.990034252E-2,-1.124626622E-1,-9.930213928E0,9.931353210E0
3.756397448E0,-8.554340899E-2,-1.076770201E-1,-9.927821159E0,9.928773589E0
3.758823334E0,-9.511470050E-2,-1.076770201E-1,-9.935298920E0,9.936337644E0
3.761249219E0,-8.075776696E-2,-1.244267747E-1,-9.920642853E0,9.921751783E0
3.763675105E0,-9.511470050E-2,-1.268195957E-1,-9.915857315E0,9.917124397E0
3.766101042E0,-8.315058798E-2,-1.363908947E-1,-9.913464546E0,9.914751424E0
3.768526928E0,-6.879365444E-2,-1.028913707E-1,-9.932906151E0,9.933677255E0
3.770952813E0,-9.032905847E-2,-1.076770201E-1,-9.932906151E0,9.933900457E0
3.773378698E0,-8.075776696E-2,-1.052841991E-1,-9.923035622E0,9.923922739E0
3.775804584E0,-6.879365444E-2,-1.363908947E-1,-9.930213928E0,9.931388810E0
3.778230521E0,-6.640082598E-2,-1.244267747E-1,-9.927821159E0,9.928822894E0
3.780656407E0,-8.554340899E-2,-1.172483116E-1,-9.920642853E0,9.921704463E0
3.783082292E0,-6.640082598E-2,-1.387837082E-1,-9.940084457E0,9.941275019E0
3.785508178E0,-7.836493850E-2,-1.124626622E-1,-9.940084457E0,9.941029521E0
3.787934115E0,-9.750752151E-2,-1.172483116E-1,-9.930213928E0,9.931384775E0
3.790360000E0,-9.032905847E-2,-1.148554832E-1,-9.923035622E0,9.924111399E0
3.792785886E0,-8.793623000E-2,-1.244267747E-1,-9.927821159E0,9.928990270E0
3.795211771E0,-8.554340899E-2,-1.004985496E-1,-9.935298920E0,9.936175434E0
3.797637657E0,-9.750752151E-2,-1.244267747E-1,-9.930213928E0,9.931472116E0
3.800063594E0,-7.118647546E-2,-1.220339537E-1,-9.930213928E0,9.931218881E0
3.802489480E0,-6.161518395E-2,-1.411765367E-1,-9.923035622E0,9.924231113E0
3.804915365E0,-7.357929647E-2,-1.363908947E-1,-9.930213928E0,9.931423113E0
3.807341250E0,-7.357929647E-2,-1.244267747E-1,-9.915857315E0,9.916910922E0
3.809767136E0,-7.836493850E-2,-9.571290761E-2,-9.911071777E0,9.911843713E0
3.812193073E0,-7.836493850E-2,-1.100698411E-1,-9.932906151E0,9.933825096E0
3.814618959E0,-9.990034252E-2,-1.220339537E-1,-9.930213928E0,9.931466207E0
3.817044844E0,-6.879365444E-2,-1.220339537E-1,-9.925428391E0,9.926416956E0
3.819470730E0,-8.793623000E-2,-1.435693651E-1,-9.930213928E0,9.931641033E0
3.821896667E0,-9.032905847E-2,-1.244267747E-1,-9.927821159E0,9.929011750E0
3.824322553E0,-8.075776696E-2,-1.292124242E-1,-9.913464546E0,9.914635494E0
3.826748438E0,-7.357929647E-2,-1.148554832E-1,-9.915857315E0,9.916795450E0
3.829174323E0,-7.597211748E-2,-1.172483116E-1,-9.920642853E0,9.921626557E0
3.831600209E0,-8.315058798E-2,-1.172483116E-1,-9.932906151E0,9.933946134E0
3.834026146E0,-8.315058798E-2,-1.076770201E-1,-9.913464546E0,9.914397998E0
3.836452032E0,-8.075776696E-2,-1.268195957E-1,-9.911071777E0,9.912212104E0
3.838877917E0,-8.793623000E-2,-1.148554832E-1,-9.923035622E0,9.924089908E0
3.841303803E0,-5.682953820E-2,-1.483550072E-1,-9.927821159E0,9.929092193E0
3.843729688E0,-6.879365444E-2,-1.244267747E-1,-9.923035622E0,9.924054138E0
3.846155625E0,-7.118647546E-2,-1.052841991E-1,-9.920642853E0,9.921456893E0
3.848581511E0,-7.357929647E-2,-1.004985496E-1,-9.927821159E0,9.928602462E0
3.851007396E0,-5.204389244E-2,-1.172483116E-1,-9.932906151E0,9.933734461E0
3.853433282E0,-7.357929647E-2,-1.268195957E-1,-9.911071777E0,9.912156218E0
3.855859219E0,-7.836493850E-2,-1.363908947E-1,-9.935298920E0,9.936544075E0
3.858285105E0,-8.075776696E-2,-1.244267747E-1,-9.911071777E0,9.912181779E0
3.860710990E0,-8.554340899E-2,-1.052841991E-1,-9.925428391E0,9.926355382E0
3.863136875E0,-9.272187948E-2,-1.339980662E-1,-9.901499748E0,9.902840506E0
3.865562761E0,-6.640082598E-2,-1.316052526E-1,-9.927821159E0,9.928915449E0
3.867988698E0,-4.247260094E-2,-1.148554832E-1,-9.935298920E0,9.936053559E0
3.870414584E0,-8.315058798E-2,-1.268195957E-1,-9.932906151E0,9.934063712E0
3.872840469E0,-6.400800496E-2,-1.220339537E-1,-9.927821159E0,9.928777482E0
3.875266355E0,-7.357929647E-2,-1.196411327E-1,-9.930213928E0,9.931207206E0
3.877692240E0,-6.400800496E-2,-1.196411327E-1,-9.930213928E0,9.931140906E0
3.880118178E0,-8.793623000E-2,-1.363908947E-1,-9.918250084E0,9.919577611E0
3.882544063E0,-7.836493850E-2,-1.363908947E-1,-9.908679008E0,9.909927509E0
