"Time (s)","Acceleration x (m/s^2)","Acceleration y (m/s^2)","Acceleration z (m/s^2)","Absolute acceleration (m/s^2)"
2.541521300E-2,-3.409772366E-2,-1.017188931E1,-3.326023519E-1,1.017738272E1
2.785901500E-2,-2.452643216E-2,-1.015992451E1,-3.373879790E-1,1.016555449E1
3.030365100E-2,-2.691925503E-2,-1.017188931E1,-3.421736360E-1,1.017767849E1
3.274828600E-2,-2.213360928E-2,-1.016471100E1,-3.421736360E-1,1.017049273E1
3.519292200E-2,-4.366901144E-2,-1.016471100E1,-3.517449200E-1,1.017088891E1
3.763833800E-2,-5.832505226E-2,-1.015992451E1,-3.613162339E-1,1.016651451E1
4.008214000E-2,-2.931207791E-2,-1.015992451E1,-3.493520916E-1,1.016597128E1
4.252682800E-2,-3.170489892E-2,-1.017188931E1,-3.445664644E-1,1.017777300E1
4.497224400E-2,-2.213360928E-2,-1.016710377E1,-3.493520916E-1,1.017312812E1
4.741599400E-2,-1.495514158E-2,-1.015992451E1,-3.565305769E-1,1.016618924E1
4.986068200E-2,-2.452643216E-2,-1.016710377E1,-3.397808075E-1,1.017280942E1
5.230531700E-2,-2.213360928E-2,-1.015753174E1,-3.182454109E-1,1.016254009E1
5.474995300E-2,-2.691925503E-2,-1.015753174E1,-3.445664644E-1,1.016340994E1
5.719536900E-2,-2.931207791E-2,-1.016471100E1,-3.637090325E-1,1.017125819E1
5.963917200E-2,-3.170489892E-2,-1.015992451E1,-3.278166950E-1,1.016526119E1
6.208385900E-2,-1.256231871E-2,-1.016949654E1,-3.182454109E-1,1.017448268E1
6.452927600E-2,-1.495514158E-2,-1.015035343E1,-3.397808075E-1,1.015604989E1
6.697307800E-2,-2.931207791E-2,-1.016710377E1,-3.684946895E-1,1.017382163E1
6.941771300E-2,-1.974078640E-2,-1.015992451E1,-3.421736360E-1,1.016570403E1
7.186234900E-2,-1.256231871E-2,-1.015992451E1,-3.397808075E-1,1.016561237E1
7.430698400E-2,1.794616925E-3,-1.016949654E1,-3.397808075E-1,1.017517145E1
7.675240100E-2,-2.213360928E-2,-1.017188931E1,-3.230310678E-1,1.017704137E1
7.919620300E-2,-3.170489892E-2,-1.016949654E1,-3.302095234E-1,1.017490557E1
8.164089000E-2,-7.776673418E-3,-1.017667484E1,-3.397808075E-1,1.018234857E1
8.408630700E-2,-3.170489892E-2,-1.016231823E1,-3.278166950E-1,1.016765365E1
8.653010900E-2,-4.127619043E-2,-1.016471100E1,-3.421736360E-1,1.017055240E1
8.897479700E-2,-3.409772366E-2,-1.017188931E1,-3.134597540E-1,1.017677511E1
9.141932800E-2,-3.409772366E-2,-1.016949654E1,-3.086741269E-1,1.017423718E1
9.386401500E-2,-3.649054468E-2,-1.017428207E1,-3.302095234E-1,1.017970459E1
9.630943200E-2,-3.649054468E-2,-1.015513897E1,-3.086741269E-1,1.015989462E1
9.875323400E-2,-2.452643216E-2,-1.017188931E1,-3.230310678E-1,1.017704685E1
1.011979220E-1,1.794616925E-3,-1.019581699E1,-4.139583111E-1,1.020421721E1
1.036433380E-1,-5.383851007E-3,-1.018624592E1,-4.905286431E-1,1.019805144E1
1.060871400E-1,-3.888336942E-2,-1.018146038E1,-4.953143001E-1,1.019357561E1
1.085318280E-1,-6.311069429E-2,-1.018624592E1,-4.115654826E-1,1.019475233E1
1.109763590E-1,-2.931207791E-2,-1.017188931E1,-3.828516304E-1,1.017913388E1
1.134210470E-1,-2.931207791E-2,-1.016231823E1,-4.259224236E-1,1.017128217E1
1.158664630E-1,-4.127619043E-2,-1.018146038E1,-4.259224236E-1,1.019044892E1
1.183102650E-1,-5.832505226E-2,-1.018624592E1,-4.354937077E-1,1.019571785E1
1.207549530E-1,-2.213360928E-2,-1.017906761E1,-4.977070987E-1,1.019125212E1
1.232003690E-1,-2.213360928E-2,-1.017906761E1,-5.793621540E-1,1.019556609E1
1.256441720E-1,-1.016949583E-2,-1.018385315E1,-5.937191248E-1,1.020115046E1
1.280888590E-1,-4.127619043E-2,-1.018146038E1,-5.673980713E-1,1.019734180E1
1.305333900E-1,-1.495514158E-2,-1.018385315E1,-4.977070987E-1,1.019601888E1
1.329780780E-1,2.333002165E-2,-1.019581699E1,-5.458626747E-1,1.021044536E1
1.354234940E-1,-3.888336942E-2,-1.015753174E1,-4.426721931E-1,1.016724749E1
1.378672970E-1,-1.974078640E-2,-1.016710377E1,-3.230310678E-1,1.017225333E1
1.403119840E-1,1.794616925E-3,-1.017428207E1,-5.048855543E-1,1.018680167E1
1.427574010E-1,-2.452643216E-2,-1.016949654E1,-4.713860750E-1,1.018044528E1
1.452012030E-1,-3.409772366E-2,-1.015274620E1,-5.219344497E-1,1.016621039E1
1.476458380E-1,-4.845465720E-2,-1.015274620E1,-5.267201066E-1,1.016651550E1
1.500905260E-1,-2.991028363E-3,-1.015753174E1,-5.243272781E-1,1.017105595E1
1.525350570E-1,1.615155302E-2,-1.016710377E1,-4.809573591E-1,1.017848613E1
1.549805260E-1,-7.776673418E-3,-1.015753174E1,-5.578267574E-1,1.017284042E1
1.574243280E-1,-5.982056609E-4,-1.015753174E1,-6.774678826E-1,1.018009892E1
1.598690150E-1,4.187439568E-3,-1.015274620E1,-7.707880139E-1,1.018196381E1
1.623144320E-1,-1.734796353E-2,-1.012642574E1,-6.343970895E-1,1.014629287E1
1.647582340E-1,-6.311069429E-2,-1.019103146E1,-1.387837082E-1,1.019217180E1
1.672029220E-1,-1.157527938E-1,-1.018146038E1,2.994019389E-1,1.018651931E1
1.696474530E-1,-1.157527938E-1,-1.018863869E1,1.989033818E-1,1.019123739E1
1.720921400E-1,-9.900303930E-2,-1.017906761E1,7.208377868E-2,1.017980428E1
1.745375570E-1,-1.205384433E-1,-1.017667484E1,-2.967100143E-1,1.018171288E1
1.769813590E-1,-6.550352275E-2,-1.016231823E1,-3.014956415E-1,1.016700065E1
1.794260470E-1,-2.213360928E-2,-1.018624592E1,-1.627119333E-1,1.018756943E1
1.818714630E-1,-7.268198580E-2,-1.018624592E1,4.307080805E-2,1.018659628E1
1.843152650E-1,-9.421738982E-2,-1.017906761E1,1.079761237E-1,1.018007629E1
1.867599530E-1,-2.213360928E-2,-1.018146038E1,-3.373879790E-1,1.018707299E1
1.892044840E-1,-1.974078640E-2,-1.017188931E1,-3.613162339E-1,1.017832359E1
1.916491720E-1,-1.974078640E-2,-1.016471100E1,-2.751746178E-1,1.016845418E1
1.940945880E-1,-5.084748194E-2,-1.015753174E1,-2.991028428E-1,1.016206175E1
1.965383900E-1,-2.931207791E-2,-1.017188931E1,-2.967100143E-1,1.017625806E1
1.989830780E-1,-1.256231871E-2,-1.015274620E1,-3.086741269E-1,1.015744520E1
2.014284940E-1,-3.170489892E-2,-1.016471100E1,-3.182454109E-1,1.016974115E1
2.038722970E-1,-2.452643216E-2,-1.015992451E1,-3.900300860E-1,1.016743778E1
2.063169840E-1,-1.016949583E-2,-1.016710377E1,-5.195416212E-1,1.018037455E1
2.087616190E-1,-3.888336942E-2,-1.015035343E1,-5.123631358E-1,1.016335096E1
2.112061510E-1,-5.324030295E-2,-1.015992451E1,-4.259224236E-1,1.016898768E1
2.136516720E-1,-2.691925503E-2,-1.018146038E1,-3.086741269E-1,1.018617396E1
2.160954220E-1,-3.170489892E-2,-1.017188931E1,-2.727817893E-1,1.017559567E1
2.185401090E-1,-2.691925503E-2,-1.018863869E1,-3.326023519E-1,1.019410159E1
2.209855260E-1,-3.649054468E-2,-1.018385315E1,-3.254238665E-1,1.018911661E1
2.234293280E-1,-2.213360928E-2,-1.017667484E1,-3.493520916E-1,1.018269354E1
2.258740150E-1,-2.931207791E-2,-1.017188931E1,-3.637090325E-1,1.017843188E1
2.283186510E-1,-3.649054468E-2,-1.016949654E1,-3.876372576E-1,1.017694718E1
2.307631820E-1,-1.016949583E-2,-1.015513897E1,-3.852444589E-1,1.016244873E1
2.332087030E-1,-2.213360928E-2,-1.015992451E1,-3.565305769E-1,1.016620234E1
2.356524530E-1,-3.649054468E-2,-1.019103146E1,-3.445664644E-1,1.019692011E1
2.380971400E-1,-1.974078640E-2,-1.016710377E1,-3.541377485E-1,1.017328866E1
2.405425570E-1,-4.366901144E-2,-1.018146038E1,-3.876372576E-1,1.018893052E1
2.429863590E-1,-5.832505226E-2,-1.015753174E1,-3.876372576E-1,1.016509299E1
2.454310470E-1,-2.691925503E-2,-1.015753174E1,-3.373879790E-1,1.016316911E1
2.478756820E-1,-3.649054468E-2,-1.015992451E1,-3.613162339E-1,1.016641269E1
2.503202130E-1,-1.974078640E-2,-1.016710377E1,-3.852444589E-1,1.017441900E1
2.527657340E-1,-2.931207791E-2,-1.015753174E1,-3.589234054E-1,1.016391343E1
2.552094840E-1,-4.127619043E-2,-1.017428207E1,-3.541377485E-1,1.018052715E1
2.576541720E-1,-1.734796353E-2,-1.017667484E1,-3.421736360E-1,1.018244050E1
2.600995880E-1,-1.495514158E-2,-1.017428207E1,-3.661018610E-1,1.018087766E1
2.625433900E-1,-3.409772366E-2,-1.014796066E1,-3.732803464E-1,1.015488092E1
2.649880780E-1,-3.649054468E-2,-1.016949654E1,-3.637090325E-1,1.017606386E1
2.674327130E-1,-1.974078640E-2,-1.017428207E1,-3.684946895E-1,1.018097214E1
2.698772440E-1,-4.366901144E-2,-1.017188931E1,-3.996013701E-1,1.017982909E1
2.723227650E-1,-2.691925503E-2,-1.016231823E1,-4.163511395E-1,1.017087925E1
2.747665150E-1,-2.213360928E-2,-1.017188931E1,-3.780659735E-1,1.017893687E1
2.772112030E-1,-4.127619043E-2,-1.019581699E1,-3.756731451E-1,1.020281913E1
2.796566190E-1,-4.366901144E-2,-1.016949654E1,-3.732803464E-1,1.017643872E1
2.821004220E-1,-3.409772366E-2,-1.017667484E1,-3.445664644E-1,1.018256351E1
2.845451090E-1,-3.409772366E-2,-1.017188931E1,-3.637090325E-1,1.017844678E1
2.869897440E-1,-3.888336942E-2,-1.016949654E1,-3.732803464E-1,1.017641931E1
2.894342760E-1,-2.931207791E-2,-1.017188931E1,-3.780659735E-1,1.017895501E1
2.918797970E-1,-3.649054468E-2,-1.016231823E1,-3.637090325E-1,1.016889019E1
2.943235470E-1,-3.649054468E-2,-1.016710377E1,-3.661018610E-1,1.017375846E1
2.967682340E-1,-4.127619043E-2,-1.018624592E1,-3.517449200E-1,1.019240080E1
2.992136510E-1,-3.888336942E-2,-1.017667484E1,-3.708875179E-1,1.018350531E1
3.016574530E-1,-3.170489892E-2,-1.015513897E1,-3.637090325E-1,1.016169951E1
3.041021400E-1,-2.931207791E-2,-1.016471100E1,-3.732803464E-1,1.017160494E1
3.065467760E-1,-4.127619043E-2,-1.016710377E1,-3.565305769E-1,1.017343682E1
3.089914110E-1,-4.845465720E-2,-1.017906761E1,-3.756731451E-1,1.018611288E1
3.114368280E-1,-3.888336942E-2,-1.017906761E1,-3.708875179E-1,1.018589647E1
3.138805780E-1,-2.691925503E-2,-1.015513897E1,-3.684946895E-1,1.016185812E1
3.163252650E-1,-4.366901144E-2,-1.016949654E1,-3.541377485E-1,1.017575453E1
3.187706820E-1,-3.170489892E-2,-1.016231823E1,-3.637090325E-1,1.016887414E1
3.212144840E-1,-3.409772366E-2,-1.016710377E1,-3.517449200E-1,1.017324364E1
3.236591720E-1,-2.691925503E-2,-1.017188931E1,-3.780659735E-1,1.017894840E1
3.261038070E-1,-7.776673418E-3,-1.016949654E1,-3.876372576E-1,1.017688474E1
3.285483380E-1,-1.974078640E-2,-1.015513897E1,-3.780659735E-1,1.016219322E1
3.309938590E-1,-1.495514158E-2,-1.016710377E1,-3.756731451E-1,1.017405293E1
3.334376090E-1,-4.606183618E-2,-1.016471100E1,-3.661018610E-1,1.017140609E1
3.358822970E-1,-1.734796353E-2,-1.017188931E1,-3.948157430E-1,1.017956347E1
3.383277130E-1,-1.734796353E-2,-1.017906761E1,-3.828516304E-1,1.018627968E1
3.407715150E-1,-1.734796353E-2,-1.017667484E1,-3.900300860E-1,1.018416100E1
3.432162030E-1,-2.691925503E-2,-1.017188931E1,-3.828516304E-1,1.017912727E1
3.456608380E-1,-2.213360928E-2,-1.016471100E1,-3.948157430E-1,1.017239987E1
3.481054740E-1,-1.256231871E-2,-1.014796066E1,-3.780659735E-1,1.015500848E1
3.505508900E-1,-7.776673418E-3,-1.018863869E1,-3.756731451E-1,1.019556517E1
3.529946400E-1,-2.931207791E-2,-1.016710377E1,-3.852444589E-1,1.017444207E1
3.554393280E-1,-2.691925503E-2,-1.017188931E1,-4.187439680E-1,1.018054042E1
3.578847440E-1,-2.931207791E-2,-1.015753174E1,-3.996013701E-1,1.016543120E1
3.603285470E-1,-4.606183618E-2,-1.015753174E1,-3.900300860E-1,1.016512155E1
3.627732340E-1,-3.649054468E-2,-1.015992451E1,-3.804588020E-1,1.016711102E1
3.652178690E-1,-2.213360928E-2,-1.016949654E1,-3.541377485E-1,1.017568490E1
3.676625050E-1,-3.649054468E-2,-1.019103146E1,-3.732803464E-1,1.019793077E1
3.701079220E-1,-4.366901144E-2,-1.016949654E1,-3.541377485E-1,1.017575453E1
3.725516720E-1,-3.409772366E-2,-1.016471100E1,-3.804588020E-1,1.017188583E1
3.749963590E-1,-2.452643216E-2,-1.016471100E1,-3.565305769E-1,1.017099136E1
3.774417760E-1,-1.016949583E-2,-1.016471100E1,-3.613162339E-1,1.017113575E1
3.798855780E-1,-4.845465720E-2,-1.016949654E1,-3.541377485E-1,1.017577620E1
3.823302650E-1,-2.931207791E-2,-1.015274620E1,-3.613162339E-1,1.015921572E1
3.847749010E-1,-2.213360928E-2,-1.014556789E1,-3.661018610E-1,1.015219525E1
3.872195360E-1,-2.213360928E-2,-1.015992451E1,-3.828516304E-1,1.016715945E1
3.896649530E-1,-1.974078640E-2,-1.016471100E1,-3.948157430E-1,1.017239494E1
3.921087030E-1,-4.127619043E-2,-1.017667484E1,-3.900300860E-1,1.018422987E1
3.945533900E-1,-2.691925503E-2,-1.016471100E1,-3.948157430E-1,1.017241141E1
3.969988070E-1,-3.409772366E-2,-1.015513897E1,-3.756731451E-1,1.016214251E1
3.994426090E-1,-3.170489892E-2,-1.016471100E1,-3.876372576E-1,1.017214911E1
4.018872970E-1,-4.127619043E-2,-1.017667484E1,-3.852444589E-1,1.018404772E1
4.043319320E-1,-2.213360928E-2,-1.017906761E1,-3.756731451E-1,1.018602168E1
4.067765670E-1,-3.649054468E-2,-1.016231823E1,-3.948157430E-1,1.017005029E1
4.092219840E-1,-1.256231871E-2,-1.016710377E1,-4.211367965E-1,1.017582984E1
4.116657340E-1,-4.127619043E-2,-1.015035343E1,-3.948157430E-1,1.015811291E1
4.141104220E-1,-3.649054468E-2,-1.016471100E1,-3.900300860E-1,1.017225662E1
4.165558380E-1,-3.409772366E-2,-1.019103146E1,-3.900300860E-1,1.019854932E1
4.189996400E-1,-1.734796353E-2,-1.016471100E1,-3.804588020E-1,1.017184347E1
4.214443280E-1,-2.691925503E-2,-1.016231823E1,-3.876372576E-1,1.016974430E1
4.238889630E-1,-1.974078640E-2,-1.016949654E1,-3.900300860E-1,1.017699233E1
4.263335990E-1,-4.845465720E-2,-1.016231823E1,-3.684946895E-1,1.016911245E1
4.287790150E-1,-1.495514158E-2,-1.016471100E1,-3.589234054E-1,1.017105694E1
4.312227650E-1,-2.452643216E-2,-1.015992451E1,-3.756731451E-1,1.016689716E1
4.336674530E-1,-2.691925503E-2,-1.015753174E1,-3.756731451E-1,1.016451209E1
4.361128690E-1,-2.691925503E-2,-1.016710377E1,-3.828516304E-1,1.017434514E1
4.385566720E-1,-1.495514158E-2,-1.018385315E1,-3.900300860E-1,1.019133024E1
4.410013590E-1,-2.931207791E-2,-1.015992451E1,-3.852444589E-1,1.016726799E1
4.434459940E-1,-2.691925503E-2,-1.016710377E1,-3.804588020E-1,1.017425538E1
4.458906300E-1,-3.170489892E-2,-1.017188931E1,-3.852444589E-1,1.017923133E1
4.483360470E-1,-2.691925503E-2,-1.016231823E1,-3.852444589E-1,1.016965337E1
4.507797970E-1,-1.734796353E-2,-1.016471100E1,-3.780659735E-1,1.017175425E1
4.532244840E-1,-1.734796353E-2,-1.014796066E1,-3.804588020E-1,1.015510490E1
4.556699530E-1,-3.170489892E-2,-1.018624592E1,-3.804588020E-1,1.019339786E1
4.581137030E-1,-3.170489892E-2,-1.017906761E1,-3.852444589E-1,1.018640447E1
4.605583900E-1,-2.213360928E-2,-1.016471100E1,-3.756731451E-1,1.017167488E1
4.630030260E-1,-3.170489892E-2,-1.015513897E1,-3.756731451E-1,1.016213477E1
4.654476610E-1,-2.213360928E-2,-1.015753174E1,-3.852444589E-1,1.016485879E1
4.678930780E-1,-4.127619043E-2,-1.016949654E1,-3.972085714E-1,1.017733453E1
4.703368280E-1,-3.888336942E-2,-1.019103146E1,-4.067798555E-1,1.019922075E1
4.727815150E-1,-2.931207791E-2,-1.016949654E1,-3.996013701E-1,1.017738671E1
4.752269320E-1,-4.366901144E-2,-1.017188931E1,-3.876372576E-1,1.017936647E1
4.776707340E-1,-1.974078640E-2,-1.017906761E1,-4.019941986E-1,1.018702147E1
4.801154220E-1,-1.495514158E-2,-1.017428207E1,-3.756731451E-1,1.018122634E1
4.825600570E-1,-2.691925503E-2,-1.020299530E1,-3.756731451E-1,1.020994457E1
4.850046920E-1,-3.170489892E-2,-1.017667484E1,-3.900300860E-1,1.018419558E1
4.874501090E-1,-3.170489892E-2,-1.015992451E1,-3.852444589E-1,1.016727518E1
4.898939110E-1,-2.931207791E-2,-1.017428207E1,-3.900300860E-1,1.018179740E1
4.923385470E-1,-5.383851007E-3,-1.015513897E1,-3.852444589E-1,1.016244507E1
4.947840150E-1,-1.734796353E-2,-1.017667484E1,-3.828516304E-1,1.018388861E1
4.972277650E-1,-2.213360928E-2,-1.017428207E1,-3.804588020E-1,1.018141712E1
4.996724530E-1,-3.170489892E-2,-1.016710377E1,-3.732803464E-1,1.017400326E1
5.021170880E-1,-1.016949583E-2,-1.016949654E1,-3.804588020E-1,1.017661595E1
5.045617240E-1,-3.649054468E-2,-1.015753174E1,-3.924229145E-1,1.016517478E1
5.070071400E-1,-2.931207791E-2,-1.017428207E1,-3.852444589E-1,1.018161521E1
5.094509420E-1,-3.649054468E-2,-1.016949654E1,-3.541377485E-1,1.017572626E1
5.118955780E-1,-2.213360928E-2,-1.015992451E1,-3.756731451E-1,1.016689167E1
5.143410470E-1,-3.170489892E-2,-1.014796066E1,-3.732803464E-1,1.015487317E1
5.167847970E-1,-3.170489892E-2,-1.017188931E1,-3.756731451E-1,1.017887359E1
5.192294840E-1,-1.974078640E-2,-1.016710377E1,-3.900300860E-1,1.017460133E1
5.216741190E-1,-4.606183618E-2,-1.017428207E1,-4.163511395E-1,1.018290163E1
5.241187550E-1,-1.495514158E-2,-1.016231823E1,-3.876372576E-1,1.016971967E1
5.265641720E-1,-2.452643216E-2,-1.016231823E1,-3.732803464E-1,1.016920113E1
5.290079740E-1,-3.888336942E-2,-1.017667484E1,-3.876372576E-1,1.018412909E1
5.314526090E-1,-4.366901144E-2,-1.016949654E1,-3.756731451E-1,1.017652677E1
5.338980780E-1,-5.324030295E-2,-1.014796066E1,-3.900300860E-1,1.015559273E1
5.363418280E-1,-4.366901144E-2,-1.016231823E1,-3.756731451E-1,1.016935343E1
5.387865150E-1,-1.495514158E-2,-1.017188931E1,-3.804588020E-1,1.017901295E1
5.412311510E-1,-4.127619043E-2,-1.015513897E1,-3.924229145E-1,1.016280212E1
5.436757860E-1,-2.931207791E-2,-1.017188931E1,-3.804588020E-1,1.017904417E1
5.461212030E-1,-5.383851007E-3,-1.017428207E1,-3.852444589E-1,1.018157444E1
5.485650050E-1,-2.931207791E-2,-1.017906761E1,-3.613162339E-1,1.018552041E1
5.510096400E-1,-1.256231871E-2,-1.018146038E1,-3.900300860E-1,1.018893600E1
5.534551090E-1,-2.931207791E-2,-1.016949654E1,-4.019941986E-1,1.017748094E1
5.558988590E-1,-4.366901144E-2,-1.015274620E1,-3.828516304E-1,1.016005599E1
5.583435470E-1,-2.452643216E-2,-1.016231823E1,-3.684946895E-1,1.016902658E1
5.607881820E-1,-2.691925503E-2,-1.016949654E1,-3.708875179E-1,1.017629314E1
5.632328170E-1,-3.170489892E-2,-1.015992451E1,-3.613162339E-1,1.016639664E1
5.656782340E-1,-1.016949583E-2,-1.016231823E1,-3.684946895E-1,1.016900209E1
5.681220360E-1,-4.127619043E-2,-1.016710377E1,-3.637090325E-1,1.017369092E1
5.705666720E-1,-3.170489892E-2,-1.015753174E1,-3.852444589E-1,1.016488414E1
5.730121400E-1,-3.409772366E-2,-1.016949654E1,-3.948157430E-1,1.017721484E1
5.754558900E-1,-3.170489892E-2,-1.017188931E1,-3.780659735E-1,1.017896218E1
5.779005780E-1,-3.888336942E-2,-1.016949654E1,-3.876372576E-1,1.017695605E1
5.803452130E-1,-3.409772366E-2,-1.016231823E1,-3.900300860E-1,1.016985732E1
5.827898490E-1,-3.649054468E-2,-1.017188931E1,-3.828516304E-1,1.017915709E1
5.852352650E-1,-4.127619043E-2,-1.016710377E1,-3.661018610E-1,1.017377675E1
5.876790670E-1,-3.888336942E-2,-1.018146038E1,-3.661018610E-1,1.018811454E1
5.901237550E-1,-2.452643216E-2,-1.017667484E1,-3.828516304E-1,1.018390337E1
5.925691720E-1,-3.409772366E-2,-1.016471100E1,-3.780659735E-1,1.017179661E1
5.950129220E-1,-4.127619043E-2,-1.019103146E1,-3.996013701E-1,1.019894637E1
5.974576090E-1,-3.409772366E-2,-1.016471100E1,-3.804588020E-1,1.017188583E1
5.999022440E-1,-4.606183618E-2,-1.017906761E1,-3.804588020E-1,1.018627940E1
6.023468800E-1,-3.649054468E-2,-1.016471100E1,-3.972085714E-1,1.017253439E1
6.047922970E-1,-2.213360928E-2,-1.015992451E1,-3.780659735E-1,1.016698037E1
6.072360990E-1,-2.931207791E-2,-1.017906761E1,-3.876372576E-1,1.018648807E1
6.096807860E-1,-3.888336942E-2,-1.017906761E1,-3.684946895E-1,1.018580962E1
6.121262030E-1,-1.974078640E-2,-1.017188931E1,-3.876372576E-1,1.017929194E1
6.145699530E-1,-2.691925503E-2,-1.017188931E1,-3.708875179E-1,1.017868431E1
6.170146400E-1,-3.170489892E-2,-1.018385315E1,-3.828516304E-1,1.019109639E1
6.194592760E-1,-2.931207791E-2,-1.016471100E1,-3.756731451E-1,1.017169303E1
6.219039110E-1,-1.974078640E-2,-1.016471100E1,-3.756731451E-1,1.017166996E1
6.243493280E-1,-4.127619043E-2,-1.018863869E1,-3.493520916E-1,1.019470985E1
6.267931300E-1,-3.170489892E-2,-1.018385315E1,-3.780659735E-1,1.019091772E1
6.292378170E-1,-1.734796353E-2,-1.017428207E1,-3.684946895E-1,1.018096778E1
6.316832340E-1,-1.016949583E-2,-1.016710377E1,-3.708875179E-1,1.017387144E1
6.341269840E-1,-2.213360928E-2,-1.016949654E1,-3.852444589E-1,1.017681497E1
6.365716720E-1,-5.383851007E-3,-1.018385315E1,-3.732803464E-1,1.019069341E1
6.390163070E-1,-2.691925503E-2,-1.016231823E1,-3.661018610E-1,1.016894621E1
6.414609420E-1,-2.213360928E-2,-1.017188931E1,-3.804588020E-1,1.017902603E1
6.439063590E-1,-1.495514158E-2,-1.018146038E1,-3.780659735E-1,1.018848826E1
6.463501610E-1,-2.213360928E-2,-1.017428207E1,-3.828516304E-1,1.018150681E1
6.487948490E-1,-2.691925503E-2,-1.016710377E1,-3.637090325E-1,1.017364280E1
6.512402650E-1,-3.409772366E-2,-1.019103146E1,-3.804588020E-1,1.019818777E1
6.536840150E-1,-3.649054468E-2,-1.015274620E1,-3.589234054E-1,1.015915415E1
6.561287030E-1,-3.888336942E-2,-1.016710377E1,-3.684946895E-1,1.017385371E1
6.585733380E-1,-4.606183618E-2,-1.015753174E1,-3.708875179E-1,1.016440506E1
6.610179740E-1,-3.888336942E-2,-1.014317513E1,-3.924229145E-1,1.015083786E1
6.634633900E-1,-2.452643216E-2,-1.018385315E1,-3.876372576E-1,1.019125749E1
6.659071920E-1,-1.974078640E-2,-1.017188931E1,-3.613162339E-1,1.017832359E1
6.683518800E-1,-1.974078640E-2,-1.015513897E1,-3.708875179E-1,1.016192869E1
6.707972970E-1,-1.974078640E-2,-1.017428207E1,-3.661018610E-1,1.018088582E1
6.732410990E-1,-3.170489892E-2,-1.018146038E1,-3.876372576E-1,1.018888627E1
6.756857340E-1,-3.409772366E-2,-1.015513897E1,-3.852444589E-1,1.016250085E1
6.781303690E-1,-4.366901144E-2,-1.016710377E1,-3.708875179E-1,1.017396007E1
6.805750050E-1,-4.845465720E-2,-1.017428207E1,-3.732803464E-1,1.018124264E1
6.830204220E-1,-3.649054468E-2,-1.018385315E1,-3.876372576E-1,1.019129330E1
6.854642240E-1,-4.845465720E-2,-1.015513897E1,-3.804588020E-1,1.016237887E1
6.879089110E-1,-3.409772366E-2,-1.016949654E1,-3.972085714E-1,1.017730795E1
6.903543280E-1,-3.170489892E-2,-1.016710377E1,-3.421736360E-1,1.017290947E1
6.927980780E-1,-2.691925503E-2,-1.016231823E1,-3.972085714E-1,1.017011362E1
6.952427650E-1,-4.127619043E-2,-1.017906761E1,-3.900300860E-1,1.018662086E1
6.976874010E-1,-2.452643216E-2,-1.016231823E1,-3.661018610E-1,1.016894016E1
7.001320360E-1,-2.452643216E-2,-1.017667484E1,-3.661018610E-1,1.018328743E1
7.025774530E-1,-3.649054468E-2,-1.016710377E1,-3.780659735E-1,1.017419601E1
7.050212550E-1,-3.649054468E-2,-1.015513897E1,-3.852444589E-1,1.016250916E1
7.074659420E-1,-1.016949583E-2,-1.016710377E1,-3.708875179E-1,1.017387144E1
7.099113590E-1,-2.213360928E-2,-1.016710377E1,-3.684946895E-1,1.017380348E1
7.123551090E-1,-3.888336942E-2,-1.016710377E1,-3.828516304E-1,1.017438383E1
7.147997970E-1,-1.974078640E-2,-1.017906761E1,-3.900300860E-1,1.018655637E1
7.172444320E-1,-2.691925503E-2,-1.016710377E1,-3.684946895E-1,1.017381502E1
7.196890670E-1,-2.691925503E-2,-1.017667484E1,-3.684946895E-1,1.018337978E1
7.221344840E-1,-3.649054468E-2,-1.018146038E1,-3.684946895E-1,1.018819196E1
7.245782860E-1,-3.649054468E-2,-1.017188931E1,-3.637090325E-1,1.017845508E1
7.270229740E-1,-5.982056609E-4,-1.018146038E1,-3.876372576E-1,1.018883695E1
7.294683900E-1,-3.170489892E-2,-1.016710377E1,-3.876372576E-1,1.017454013E1
7.319121400E-1,-1.734796353E-2,-1.016949654E1,-3.708875179E-1,1.017627232E1
7.343568280E-1,-3.409772366E-2,-1.015035343E1,-3.996013701E-1,1.015827341E1
7.368014630E-1,-4.127619043E-2,-1.017188931E1,-3.661018610E-1,1.017855915E1
7.392460990E-1,-3.409772366E-2,-1.015753174E1,-3.708875179E-1,1.016435789E1
7.416915150E-1,-4.366901144E-2,-1.017428207E1,-3.804588020E-1,1.018148671E1
7.441353170E-1,-2.931207791E-2,-1.018146038E1,-3.732803464E-1,1.018834299E1
7.465800050E-1,-3.888336942E-2,-1.016949654E1,-3.852444589E-1,1.017686519E1
7.490254220E-1,-1.974078640E-2,-1.017906761E1,-3.828516304E-1,1.018628404E1
7.514692240E-1,-3.888336942E-2,-1.017188931E1,-3.589234054E-1,1.017829406E1
7.539138590E-1,-1.734796353E-2,-1.017906761E1,-3.732803464E-1,1.018592444E1
7.563584940E-1,-2.931207791E-2,-1.016710377E1,-3.684946895E-1,1.017382163E1
7.588031300E-1,-2.691925503E-2,-1.015035343E1,-3.661018610E-1,1.015698922E1
7.612485470E-1,-4.606183618E-2,-1.016949654E1,-3.732803464E-1,1.017644927E1
7.636923490E-1,-3.888336942E-2,-1.017188931E1,-3.948157430E-1,1.017962295E1
7.661370360E-1,-3.888336942E-2,-1.017667484E1,-3.684946895E-1,1.018341844E1
7.685824530E-1,-3.409772366E-2,-1.014796066E1,-3.996013701E-1,1.015588251E1
7.710262550E-1,-2.931207791E-2,-1.016710377E1,-3.876372576E-1,1.017453296E1
7.734709420E-1,-3.409772366E-2,-1.018624592E1,-3.900300860E-1,1.019376731E1
7.759154740E-1,-2.931207791E-2,-1.016710377E1,-3.756731451E-1,1.017408416E1
7.783601610E-1,-3.409772366E-2,-1.018385315E1,-3.876372576E-1,1.019128502E1
7.808055780E-1,-3.888336942E-2,-1.018624592E1,-3.876372576E-1,1.019369317E1
7.832493800E-1,-2.931207791E-2,-1.017667484E1,-3.613162339E-1,1.018312916E1
7.856940670E-1,-3.409772366E-2,-1.017188931E1,-3.780659735E-1,1.017896992E1
7.881394840E-1,-4.127619043E-2,-1.016710377E1,-3.708875179E-1,1.017395008E1
7.905832860E-1,-4.127619043E-2,-1.015992451E1,-3.804588020E-1,1.016712932E1
7.930279740E-1,-2.691925503E-2,-1.016471100E1,-3.828516304E-1,1.017195407E1
7.954725050E-1,-2.931207791E-2,-1.017667484E1,-3.637090325E-1,1.018321434E1
7.979171920E-1,-3.409772366E-2,-1.018385315E1,-3.780659735E-1,1.019092545E1
8.003626090E-1,-1.734796353E-2,-1.015035343E1,-3.900300860E-1,1.015785899E1
8.028064110E-1,-2.931207791E-2,-1.017428207E1,-3.756731451E-1,1.018125755E1
8.052510990E-1,-2.931207791E-2,-1.016949654E1,-3.852444589E-1,1.017683312E1
8.076965150E-1,-2.452643216E-2,-1.017906761E1,-3.852444589E-1,1.018638465E1
8.101403170E-1,-2.452643216E-2,-1.018624592E1,-3.637090325E-1,1.019276664E1
8.125849530E-1,-2.931207791E-2,-1.016710377E1,-3.541377485E-1,1.017331174E1
8.150295880E-1,-2.691925503E-2,-1.015753174E1,-3.900300860E-1,1.016505283E1
8.174742240E-1,-2.691925503E-2,-1.015274620E1,-4.019941986E-1,1.016073715E1
8.199196400E-1,-1.974078640E-2,-1.015753174E1,-3.804588020E-1,1.016467361E1
8.223634420E-1,-1.495514158E-2,-1.016710377E1,-3.804588020E-1,1.017423076E1
8.248081300E-1,-1.734796353E-2,-1.016471100E1,-3.756731451E-1,1.017166559E1
8.272535470E-1,-2.931207791E-2,-1.017428207E1,-3.708875179E-1,1.018108209E1
8.296973490E-1,-4.845465720E-2,-1.017428207E1,-3.804588020E-1,1.018150836E1
8.321420360E-1,-3.888336942E-2,-1.018624592E1,-3.565305769E-1,1.019255767E1
8.345865670E-1,-2.213360928E-2,-1.015992451E1,-4.115654826E-1,1.016828117E1
8.370312550E-1,-3.170489892E-2,-1.019103146E1,-3.804588020E-1,1.019818005E1
8.394766720E-1,-3.649054468E-2,-1.016710377E1,-3.828516304E-1,1.017437497E1
8.419204740E-1,-1.974078640E-2,-1.017906761E1,-3.804588020E-1,1.018619438E1
8.443651610E-1,-4.845465720E-2,-1.017188931E1,-3.852444589E-1,1.017929728E1
8.468105780E-1,-2.691925503E-2,-1.017428207E1,-3.852444589E-1,1.018160860E1
8.492543800E-1,-3.409772366E-2,-1.018146038E1,-3.852444589E-1,1.018880324E1
8.516990150E-1,-2.691925503E-2,-1.016710377E1,-3.493520916E-1,1.017313966E1
8.541436510E-1,-3.649054468E-2,-1.016471100E1,-3.589234054E-1,1.017111141E1
8.565882860E-1,-3.649054468E-2,-1.015753174E1,-3.852444589E-1,1.016490019E1
8.590337030E-1,-2.213360928E-2,-1.015753174E1,-3.732803464E-1,1.016441238E1
8.614775050E-1,-2.213360928E-2,-1.016471100E1,-3.732803464E-1,1.017158679E1
8.639221920E-1,-3.649054468E-2,-1.017667484E1,-3.661018610E-1,1.018332328E1
8.663676090E-1,-2.452643216E-2,-1.017667484E1,-3.780659735E-1,1.018372458E1
8.688114110E-1,-3.649054468E-2,-1.016231823E1,-3.589234054E-1,1.016872014E1
8.712560990E-1,-2.691925503E-2,-1.016710377E1,-3.756731451E-1,1.017407755E1
8.737006300E-1,-2.931207791E-2,-1.015274620E1,-3.780659735E-1,1.015982522E1
8.761453170E-1,-3.170489892E-2,-1.015513897E1,-3.684946895E-1,1.016187193E1
8.785907340E-1,-2.213360928E-2,-1.017188931E1,-3.756731451E-1,1.017884828E1
8.810345360E-1,-3.888336942E-2,-1.017188931E1,-3.852444589E-1,1.017925622E1
8.834792240E-1,-3.170489892E-2,-1.018146038E1,-3.780659735E-1,1.018852661E1
8.859246400E-1,-1.734796353E-2,-1.016471100E1,-3.684946895E-1,1.017140300E1
8.883684420E-1,-2.691925503E-2,-1.016949654E1,-3.876372576E-1,1.017691737E1
8.908131300E-1,-1.734796353E-2,-1.014796066E1,-3.828516304E-1,1.015519483E1
8.932577650E-1,-7.776673418E-3,-1.017188931E1,-4.019941986E-1,1.017983260E1
8.957022970E-1,-1.734796353E-2,-1.016949654E1,-3.900300860E-1,1.017698797E1
8.981477650E-1,-4.845465720E-2,-1.018863869E1,-3.852444589E-1,1.019603450E1
9.005915670E-1,-2.931207791E-2,-1.016471100E1,-3.708875179E-1,1.017151741E1
9.030362550E-1,-2.452643216E-2,-1.017188931E1,-3.708875179E-1,1.017867826E1
9.054816720E-1,-2.452643216E-2,-1.018863869E1,-3.661018610E-1,1.019524352E1
9.079254740E-1,-2.213360928E-2,-1.018624592E1,-3.684946895E-1,1.019293305E1
9.103701610E-1,-4.366901144E-2,-1.017428207E1,-3.756731451E-1,1.018130900E1
9.128146920E-1,-3.170489892E-2,-1.015753174E1,-3.684946895E-1,1.016426311E1
9.152593800E-1,-2.691925503E-2,-1.016231823E1,-3.804588020E-1,1.016947321E1
9.177047970E-1,-2.691925503E-2,-1.016231823E1,-3.637090325E-1,1.016886034E1
9.201485990E-1,-1.256231871E-2,-1.017188931E1,-3.565305769E-1,1.017814344E1
9.225932860E-1,-2.452643216E-2,-1.016710377E1,-3.732803464E-1,1.017398343E1
9.250387030E-1,-1.734796353E-2,-1.016710377E1,-3.732803464E-1,1.017396865E1
9.274825050E-1,-2.452643216E-2,-1.015513897E1,-3.780659735E-1,1.016220364E1
9.299271920E-1,-4.606183618E-2,-1.016231823E1,-3.804588020E-1,1.016954190E1
9.323718280E-1,-1.734796353E-2,-1.016231823E1,-3.756731451E-1,1.016927446E1
9.348163590E-1,-3.649054468E-2,-1.016710377E1,-3.804588020E-1,1.017428521E1
9.372618800E-1,-2.931207791E-2,-1.016949654E1,-3.661018610E-1,1.017612645E1
9.397056300E-1,-2.452643216E-2,-1.017188931E1,-3.565305769E-1,1.017816524E1
9.421503170E-1,-3.649054468E-2,-1.017188931E1,-3.637090325E-1,1.017845508E1
9.445957340E-1,-1.974078640E-2,-1.017906761E1,-3.828516304E-1,1.018628404E1
9.470395360E-1,-2.452643216E-2,-1.018146038E1,-3.469592929E-1,1.018739995E1
9.494842240E-1,-2.213360928E-2,-1.017188931E1,-3.637090325E-1,1.017841374E1
9.519288590E-1,-3.170489892E-2,-1.016710377E1,-3.565305769E-1,1.017340249E1
9.543733900E-1,-2.452643216E-2,-1.017428207E1,-3.828516304E-1,1.018151230E1
9.568189110E-1,-1.974078640E-2,-1.017428207E1,-3.708875179E-1,1.018105903E1
9.592626610E-1,-2.931207791E-2,-1.017906761E1,-3.613162339E-1,1.018552041E1
9.617073490E-1,-4.127619043E-2,-1.017667484E1,-3.732803464E-1,1.018360215E1
9.641527650E-1,-3.170489892E-2,-1.014796066E1,-3.780659735E-1,1.015505021E1
9.665965670E-1,-1.974078640E-2,-1.017428207E1,-3.756731451E-1,1.018123449E1
9.690412550E-1,-3.649054468E-2,-1.016949654E1,-3.708875179E-1,1.017632296E1
9.714858900E-1,-3.649054468E-2,-1.016949654E1,-3.852444589E-1,1.017685632E1
9.739304220E-1,-2.452643216E-2,-1.016949654E1,-3.876372576E-1,1.017691132E1
9.763758900E-1,-3.409772366E-2,-1.015274620E1,-3.852444589E-1,1.016010981E1
9.788196920E-1,-2.691925503E-2,-1.015753174E1,-3.756731451E-1,1.016451209E1
9.812643800E-1,-3.170489892E-2,-1.017428207E1,-3.852444589E-1,1.018162238E1
9.837097970E-1,-2.931207791E-2,-1.017188931E1,-3.661018610E-1,1.017851766E1
9.861535990E-1,-1.256231871E-2,-1.016231823E1,-3.493520916E-1,1.016832909E1
9.885982860E-1,-1.256231871E-2,-1.015753174E1,-3.780659735E-1,1.016457292E1
9.910429220E-1,-3.170489892E-2,-1.016471100E1,-3.876372576E-1,1.017214911E1
9.934874530E-1,-2.691925503E-2,-1.014556789E1,-3.780659735E-1,1.015264529E1
9.959329740E-1,-1.974078640E-2,-1.017188931E1,-3.804588020E-1,1.017902110E1
9.983767240E-1,-5.383851007E-3,-1.016231823E1,-3.661018610E-1,1.016891200E1
1.000821411E0,-3.170489892E-2,-1.017188931E1,-3.996013701E-1,1.017978480E1
1.003266828E0,-2.213360928E-2,-1.016949654E1,-3.852444589E-1,1.017681497E1
1.005710630E0,-2.691925503E-2,-1.017428207E1,-3.852444589E-1,1.018160860E1
1.008155317E0,-1.734796353E-2,-1.016231823E1,-3.756731451E-1,1.016927446E1
1.010599953E0,-1.974078640E-2,-1.016710377E1,-3.828516304E-1,1.017432868E1
1.013044484E0,-2.931207791E-2,-1.017188931E1,-3.780659735E-1,1.017895501E1
1.015490005E0,-1.256231871E-2,-1.016231823E1,-3.756731451E-1,1.016926742E1
1.017933755E0,-3.649054468E-2,-1.015992451E1,-3.780659735E-1,1.016702176E1
1.020378442E0,-2.452643216E-2,-1.018146038E1,-3.804588020E-1,1.018859588E1
1.022823859E0,-3.888336942E-2,-1.017906761E1,-3.613162339E-1,1.018555245E1
1.025267661E0,-2.991028363E-3,-1.016949654E1,-3.900300860E-1,1.017697363E1
1.027712349E0,-2.452643216E-2,-1.017906761E1,-3.613162339E-1,1.018550776E1
1.030156984E0,-1.734796353E-2,-1.015274620E1,-3.613162339E-1,1.015918824E1
1.032601515E0,-1.734796353E-2,-1.015513897E1,-3.732803464E-1,1.016201194E1
1.035047036E0,-1.974078640E-2,-1.017428207E1,-3.732803464E-1,1.018114648E1
1.037490786E0,-3.888336942E-2,-1.017667484E1,-3.684946895E-1,1.018341844E1
1.039935474E0,-1.974078640E-2,-1.016231823E1,-3.732803464E-1,1.016919071E1
1.042380890E0,-4.845465720E-2,-1.017188931E1,-3.900300860E-1,1.017947952E1
1.044824692E0,-4.127619043E-2,-1.015992451E1,-3.876372576E-1,1.016740047E1
1.047269380E0,-3.409772366E-2,-1.016949654E1,-3.828516304E-1,1.017675773E1
1.049714015E0,-2.452643216E-2,-1.014317513E1,-3.852444589E-1,1.015051804E1
1.052158547E0,-2.931207791E-2,-1.016949654E1,-3.756731451E-1,1.017647529E1
1.054604067E0,-2.691925503E-2,-1.015513897E1,-3.708875179E-1,1.016194517E1
1.057047817E0,-7.776673418E-3,-1.015274620E1,-3.876372576E-1,1.016014658E1
1.059492505E0,-2.691925503E-2,-1.017667484E1,-3.900300860E-1,1.018418180E1
1.061937922E0,-4.606183618E-2,-1.016949654E1,-3.948157430E-1,1.017726196E1
1.064381724E0,-3.170489892E-2,-1.016471100E1,-3.804588020E-1,1.017187809E1
1.066826411E0,-3.649054468E-2,-1.016949654E1,-3.756731451E-1,1.017649850E1
1.069271047E0,-2.991028363E-3,-1.015992451E1,-3.924229145E-1,1.016750071E1
1.071715578E0,-1.974078640E-2,-1.016710377E1,-3.589234054E-1,1.017345638E1
1.074161099E0,-2.452643216E-2,-1.017667484E1,-3.565305769E-1,1.018294783E1
1.076604849E0,-3.888336942E-2,-1.016471100E1,-3.397808075E-1,1.017046275E1
1.079049536E0,-1.734796353E-2,-1.016231823E1,-3.828516304E-1,1.016954218E1
1.081494953E0,-4.845465720E-2,-1.018863869E1,-3.684946895E-1,1.019541537E1
1.083938755E0,-7.776673418E-3,-1.016231823E1,-3.900300860E-1,1.016980313E1
1.086383442E0,-1.734796353E-2,-1.016949654E1,-3.541377485E-1,1.017567562E1
1.088828078E0,-2.931207791E-2,-1.016231823E1,-3.708875179E-1,1.016912624E1
1.091272609E0,-1.734796353E-2,-1.017188931E1,-3.852444589E-1,1.017919674E1
1.093718130E0,-2.213360928E-2,-1.016949654E1,-3.876372576E-1,1.017690583E1
1.096161880E0,-2.691925503E-2,-1.015992451E1,-3.780659735E-1,1.016699191E1
1.098606567E0,-2.213360928E-2,-1.015753174E1,-3.876372576E-1,1.016494976E1
1.101051984E0,-2.931207791E-2,-1.016231823E1,-3.876372576E-1,1.016975091E1
1.103495786E0,-3.409772366E-2,-1.017667484E1,-3.756731451E-1,1.018366358E1
1.105940474E0,-3.409772366E-2,-1.017906761E1,-3.972085714E-1,1.018687169E1
1.108385109E0,-4.366901144E-2,-1.015753174E1,-3.708875179E-1,1.016439450E1
1.110829640E0,-1.734796353E-2,-1.016231823E1,-3.852444589E-1,1.016963254E1
1.113275161E0,-4.366901144E-2,-1.017428207E1,-3.804588020E-1,1.018148671E1
1.115718911E0,-2.213360928E-2,-1.016949654E1,-3.637090325E-1,1.017602250E1
1.118163599E0,-2.452643216E-2,-1.018146038E1,-3.589234054E-1,1.018781444E1
1.120609015E0,-3.649054468E-2,-1.016710377E1,-3.804588020E-1,1.017428521E1
1.123052817E0,-3.170489892E-2,-1.017667484E1,-3.948157430E-1,1.018437998E1
1.125497505E0,-3.409772366E-2,-1.015513897E1,-3.804588020E-1,1.016232055E1
1.127942140E0,-4.127619043E-2,-1.018385315E1,-3.828516304E-1,1.019113066E1
1.130386672E0,-3.649054468E-2,-1.018146038E1,-3.828516304E-1,1.018872133E1
1.132832192E0,-2.691925503E-2,-1.018146038E1,-3.661018610E-1,1.018807591E1
1.135275942E0,-3.409772366E-2,-1.017188931E1,-3.565305769E-1,1.017819280E1
1.137720630E0,-2.452643216E-2,-1.016471100E1,-3.900300860E-1,1.017222074E1
1.140166047E0,-2.213360928E-2,-1.015753174E1,-3.972085714E-1,1.016531926E1
1.142609849E0,-1.734796353E-2,-1.017428207E1,-3.828516304E-1,1.018149753E1
1.145054536E0,-4.127619043E-2,-1.017667484E1,-3.828516304E-1,1.018395748E1
1.147499172E0,-3.170489892E-2,-1.018385315E1,-4.043870270E-1,1.019192813E1
1.149943703E0,-2.691925503E-2,-1.015753174E1,-3.804588020E-1,1.016469009E1
1.152389224E0,-3.888336942E-2,-1.017188931E1,-3.804588020E-1,1.017907623E1
1.154832974E0,-3.888336942E-2,-1.018385315E1,-3.637090325E-1,1.019042007E1
1.157277661E0,-3.888336942E-2,-1.016710377E1,-3.589234054E-1,1.017351153E1
1.159723078E0,-1.974078640E-2,-1.015753174E1,-3.661018610E-1,1.016414636E1
1.162166880E0,-1.495514158E-2,-1.016710377E1,-3.684946895E-1,1.017379040E1
1.164611567E0,-3.170489892E-2,-1.016710377E1,-3.756731451E-1,1.017409134E1
1.167056099E0,-2.452643216E-2,-1.016231823E1,-3.756731451E-1,1.016928924E1
1.169500786E0,-3.170489892E-2,-1.017906761E1,-3.589234054E-1,1.018544298E1
1.171946255E0,-2.213360928E-2,-1.017188931E1,-3.996013701E-1,1.017975949E1
1.174390005E0,-5.324030295E-2,-1.017188931E1,-3.589234054E-1,1.017835903E1
1.176834692E0,-3.649054468E-2,-1.016231823E1,-3.637090325E-1,1.016889019E1
1.179280109E0,-3.649054468E-2,-1.015513897E1,-3.708875179E-1,1.016197503E1
1.181723911E0,-1.974078640E-2,-1.015513897E1,-3.780659735E-1,1.016219322E1
1.184168599E0,-3.888336942E-2,-1.016710377E1,-3.804588020E-1,1.017429407E1
1.186613234E0,-1.974078640E-2,-1.017906761E1,-3.637090325E-1,1.018558253E1
1.189057765E0,-3.170489892E-2,-1.018146038E1,-3.828516304E-1,1.018870532E1
1.191503286E0,-3.170489892E-2,-1.018385315E1,-3.780659735E-1,1.019091772E1
1.193947036E0,-1.974078640E-2,-1.017428207E1,-3.732803464E-1,1.018114648E1
1.196391724E0,-3.649054468E-2,-1.017428207E1,-3.732803464E-1,1.018119273E1
1.198837140E0,-3.409772366E-2,-1.016949654E1,-3.756731451E-1,1.017649020E1
1.201280942E0,-4.366901144E-2,-1.017188931E1,-3.708875179E-1,1.017874239E1
1.203725630E0,-1.495514158E-2,-1.018146038E1,-3.589234054E-1,1.018779589E1
1.206170161E0,-2.931207791E-2,-1.016471100E1,-3.708875179E-1,1.017151741E1
1.208614849E0,-2.691925503E-2,-1.016471100E1,-3.828516304E-1,1.017195407E1
1.211060317E0,-2.991028363E-3,-1.015513897E1,-3.876372576E-1,1.016253507E1
1.213504067E0,-2.213360928E-2,-1.017188931E1,-3.684946895E-1,1.017858587E1
1.215948755E0,-3.409772366E-2,-1.016710377E1,-3.852444589E-1,1.017445699E1
1.218394172E0,-3.170489892E-2,-1.017188931E1,-3.780659735E-1,1.017896218E1
1.220837974E0,-2.931207791E-2,-1.016710377E1,-3.684946895E-1,1.017382163E1
1.223282661E0,-2.452643216E-2,-1.015753174E1,-3.708875179E-1,1.016433028E1
1.225727297E0,-4.845465720E-2,-1.015274620E1,-3.708875179E-1,1.015963389E1
1.228171828E0,-3.409772366E-2,-1.017667484E1,-3.900300860E-1,1.018420331E1
1.230617349E0,-1.974078640E-2,-1.015992451E1,-3.828516304E-1,1.016715452E1
1.233061099E0,-4.366901144E-2,-1.016949654E1,-3.589234054E-1,1.017592221E1
1.235505786E0,-2.691925503E-2,-1.015992451E1,-3.661018610E-1,1.016655405E1
1.237951203E0,-2.691925503E-2,-1.016710377E1,-3.637090325E-1,1.017364280E1
1.240395005E0,-4.606183618E-2,-1.015753174E1,-3.732803464E-1,1.016449265E1
1.242839692E0,-1.974078640E-2,-1.016231823E1,-3.852444589E-1,1.016963691E1
1.245284224E0,-1.734796353E-2,-1.015992451E1,-3.852444589E-1,1.016724054E1
1.247728911E0,-3.649054468E-2,-1.015513897E1,-3.876372576E-1,1.016260014E1
1.250174328E0,-3.409772366E-2,-1.015992451E1,-3.780659735E-1,1.016701345E1
1.252618130E0,-3.409772366E-2,-1.017188931E1,-3.804588020E-1,1.017905907E1
1.255062817E0,-1.974078640E-2,-1.017428207E1,-3.732803464E-1,1.018114648E1
1.257508234E0,-1.256231871E-2,-1.017667484E1,-3.852444589E-1,1.018397182E1
1.259952036E0,-4.127619043E-2,-1.018624592E1,-3.708875179E-1,1.019307938E1
1.262396724E0,-3.649054468E-2,-1.017428207E1,-3.804588020E-1,1.018145845E1
1.264841255E0,-4.606183618E-2,-1.016471100E1,-3.684946895E-1,1.017149250E1
1.267285942E0,-1.974078640E-2,-1.016949654E1,-3.684946895E-1,1.017618975E1
1.269731359E0,-2.452643216E-2,-1.017188931E1,-3.517449200E-1,1.017799873E1
1.272175161E0,-3.170489892E-2,-1.016231823E1,-3.684946895E-1,1.016904643E1
1.274619849E0,-4.845465720E-2,-1.017428207E1,-3.828516304E-1,1.018159805E1
1.277065265E0,-3.409772366E-2,-1.016710377E1,-3.852444589E-1,1.017445699E1
1.279509067E0,-3.409772366E-2,-1.016471100E1,-3.972085714E-1,1.017252609E1
1.281953755E0,-3.649054468E-2,-1.017428207E1,-3.804588020E-1,1.018145845E1
1.284398286E0,-3.888336942E-2,-1.016949654E1,-3.852444589E-1,1.017686519E1
1.286842974E0,-3.888336942E-2,-1.017667484E1,-3.708875179E-1,1.018350531E1
1.289288390E0,-1.734796353E-2,-1.018146038E1,-3.708875179E-1,1.018822821E1
1.291732192E0,-5.324030295E-2,-1.017188931E1,-3.948157430E-1,1.017968791E1
1.294176880E0,-3.888336942E-2,-1.017906761E1,-3.780659735E-1,1.018616038E1
1.296622297E0,-4.606183618E-2,-1.018385315E1,-3.708875179E-1,1.019070872E1
1.299066099E0,-3.170489892E-2,-1.017906761E1,-3.900300860E-1,1.018658658E1
1.301510734E0,-2.452643216E-2,-1.015753174E1,-3.613162339E-1,1.016398554E1
1.303955369E0,-3.888336942E-2,-1.017188931E1,-3.684946895E-1,1.017863607E1
1.306400005E0,-2.931207791E-2,-1.017906761E1,-3.661018610E-1,1.018569130E1
1.308845422E0,-2.931207791E-2,-1.016710377E1,-3.804588020E-1,1.017426199E1
1.311289224E0,-2.213360928E-2,-1.018863869E1,-3.756731451E-1,1.019558623E1
1.313733911E0,-1.256231871E-2,-1.018385315E1,-3.924229145E-1,1.019141887E1
1.316179328E0,-3.888336942E-2,-1.016471100E1,-3.804588020E-1,1.017190299E1
1.318623130E0,-3.409772366E-2,-1.015992451E1,-3.876372576E-1,1.016737386E1
1.321067765E0,-2.931207791E-2,-1.018146038E1,-3.828516304E-1,1.018869815E1
1.323512401E0,-1.974078640E-2,-1.015753174E1,-3.637090325E-1,1.016406046E1
1.325957036E0,-1.256231871E-2,-1.016710377E1,-3.637090325E-1,1.017361495E1
1.328402453E0,-1.734796353E-2,-1.017188931E1,-3.613162339E-1,1.017831923E1
1.330846255E0,-4.127619043E-2,-1.015753174E1,-3.661018610E-1,1.016421100E1
1.333290942E0,-3.649054468E-2,-1.017188931E1,-3.708875179E-1,1.017871412E1
1.335736359E0,-1.256231871E-2,-1.016471100E1,-3.684946895E-1,1.017139596E1
1.338180161E0,-1.734796353E-2,-1.016710377E1,-3.637090325E-1,1.017362198E1
1.340624797E0,-2.931207791E-2,-1.014796066E1,-3.708875179E-1,1.015477830E1
1.343069432E0,-7.776673418E-3,-1.016949654E1,-3.684946895E-1,1.017617357E1
1.345514067E0,-2.452643216E-2,-1.016231823E1,-3.780659735E-1,1.016937792E1
1.347959484E0,-2.452643216E-2,-1.016949654E1,-3.589234054E-1,1.017585806E1
1.350403286E0,-1.256231871E-2,-1.017428207E1,-3.708875179E-1,1.018104764E1
1.352847974E0,-2.691925503E-2,-1.017188931E1,-3.732803464E-1,1.017877178E1
1.355293390E0,-5.084748194E-2,-1.016710377E1,-3.828516304E-1,1.017443659E1
1.357737192E0,-3.649054468E-2,-1.017906761E1,-3.661018610E-1,1.018571449E1
1.360181828E0,-3.170489892E-2,-1.015992451E1,-3.541377485E-1,1.016614404E1
1.362626463E0,-5.084748194E-2,-1.016710377E1,-3.637090325E-1,1.017373426E1
1.365071099E0,-3.409772366E-2,-1.016949654E1,-3.756731451E-1,1.017649020E1
1.367516515E0,-3.888336942E-2,-1.015753174E1,-3.637090325E-1,1.016411566E1
1.369960317E0,-2.691925503E-2,-1.015992451E1,-3.756731451E-1,1.016690321E1
1.372405005E0,-2.931207791E-2,-1.014796066E1,-3.684946895E-1,1.015469119E1
1.374850422E0,-2.931207791E-2,-1.017667484E1,-4.019941986E-1,1.018465362E1
1.377294172E0,-2.691925503E-2,-1.017667484E1,-3.948157430E-1,1.018436620E1
1.379738859E0,-3.170489892E-2,-1.017906761E1,-3.732803464E-1,1.018595901E1
1.382183494E0,-3.649054468E-2,-1.016471100E1,-3.565305769E-1,1.017102725E1
1.384628130E0,-5.084748194E-2,-1.015992451E1,-3.613162339E-1,1.016647436E1
1.387073547E0,-3.649054468E-2,-1.015992451E1,-3.684946895E-1,1.016667034E1
1.389517349E0,-2.213360928E-2,-1.015992451E1,-3.661018610E-1,1.016654250E1
1.391962036E0,-2.691925503E-2,-1.015035343E1,-3.684946895E-1,1.015707575E1
1.394407453E0,-2.691925503E-2,-1.017667484E1,-3.613162339E-1,1.018312255E1
1.396851255E0,-3.170489892E-2,-1.017188931E1,-3.900300860E-1,1.017941357E1
1.399295890E0,-3.409772366E-2,-1.015992451E1,-3.924229145E-1,1.016755744E1
1.401740526E0,-2.213360928E-2,-1.018624592E1,-3.804588020E-1,1.019337259E1
1.404185161E0,-2.691925503E-2,-1.019103146E1,-3.684946895E-1,1.019772696E1
1.406630578E0,-3.170489892E-2,-1.016710377E1,-3.852444589E-1,1.017444925E1
1.409074380E0,-3.170489892E-2,-1.017188931E1,-3.732803464E-1,1.017878556E1
1.411519067E0,-3.409772366E-2,-1.015992451E1,-3.637090325E-1,1.016648970E1
1.413964484E0,-3.409772366E-2,-1.017667484E1,-3.637090325E-1,1.018322924E1
1.416408234E0,-1.256231871E-2,-1.017188931E1,-3.637090325E-1,1.017839742E1
1.418852922E0,-1.734796353E-2,-1.016949654E1,-3.852444589E-1,1.017680569E1
1.421297557E0,-2.213360928E-2,-1.016949654E1,-3.828516304E-1,1.017672467E1
1.423742192E0,-4.127619043E-2,-1.015992451E1,-3.684946895E-1,1.016668865E1
1.426187609E0,-3.409772366E-2,-1.018146038E1,-3.900300860E-1,1.018898531E1
1.428631411E0,-1.495514158E-2,-1.015992451E1,-3.732803464E-1,1.016679044E1
1.431076099E0,-2.452643216E-2,-1.016949654E1,-3.708875179E-1,1.017628709E1
1.433521515E0,-2.931207791E-2,-1.017428207E1,-3.373879790E-1,1.017991678E1
1.435965265E0,-2.691925503E-2,-1.017188931E1,-3.708875179E-1,1.017868431E1
1.438409953E0,-2.931207791E-2,-1.016949654E1,-3.804588020E-1,1.017665308E1
1.440854588E0,-2.213360928E-2,-1.017667484E1,-3.900300860E-1,1.018417028E1
1.443299224E0,-2.213360928E-2,-1.016710377E1,-3.924229145E-1,1.017469826E1
1.445744640E0,-2.931207791E-2,-1.018385315E1,-3.637090325E-1,1.019038804E1
1.448188442E0,-1.974078640E-2,-1.016949654E1,-3.637090325E-1,1.017601758E1
1.450633130E0,-3.649054468E-2,-1.018385315E1,-3.661018610E-1,1.019049690E1
1.453078547E0,-5.324030295E-2,-1.017667484E1,-3.684946895E-1,1.018348338E1
1.455522297E0,-1.256231871E-2,-1.018146038E1,-3.780659735E-1,1.018848503E1
1.457966984E0,-5.383851007E-3,-1.017188931E1,-3.613162339E-1,1.017830587E1
1.460411619E0,-1.495514158E-2,-1.015513897E1,-3.732803464E-1,1.016200814E1
1.462856255E0,-2.213360928E-2,-1.016710377E1,-3.613162339E-1,1.017354601E1
1.465301672E0,-2.931207791E-2,-1.015992451E1,-3.756731451E-1,1.016690983E1
1.467745474E0,-2.452643216E-2,-1.016949654E1,-3.613162339E-1,1.017594275E1
1.470190161E0,-1.974078640E-2,-1.016949654E1,-3.828516304E-1,1.017671975E1
1.472635578E0,-3.888336942E-2,-1.019342422E1,-3.780659735E-1,1.020050701E1
1.475079328E0,-3.170489892E-2,-1.016471100E1,-3.900300860E-1,1.017224058E1
1.477524015E0,-2.691925503E-2,-1.016231823E1,-3.780659735E-1,1.016938397E1
1.479968651E0,-2.931207791E-2,-1.015035343E1,-3.804588020E-1,1.015752346E1
1.482413286E0,-2.213360928E-2,-1.016231823E1,-3.708875179E-1,1.016910809E1
1.484858703E0,-3.409772366E-2,-1.017667484E1,-3.708875179E-1,1.018348816E1
1.487302453E0,-1.495514158E-2,-1.016949654E1,-3.637090325E-1,1.017600942E1
1.489747140E0,-2.931207791E-2,-1.015035343E1,-3.756731451E-1,1.015734534E1
1.492192609E0,-2.213360928E-2,-1.016231823E1,-3.780659735E-1,1.016937243E1
1.494636359E0,-3.409772366E-2,-1.016710377E1,-3.804588020E-1,1.017427691E1
1.497081047E0,-3.409772366E-2,-1.016949654E1,-3.828516304E-1,1.017675773E1
1.499525682E0,-4.366901144E-2,-1.016710377E1,-3.780659735E-1,1.017422429E1
1.501970317E0,-3.888336942E-2,-1.015274620E1,-3.661018610E-1,1.015941917E1
1.504415734E0,-3.649054468E-2,-1.016471100E1,-3.852444589E-1,1.017207425E1
1.506859536E0,-2.691925503E-2,-1.016231823E1,-3.661018610E-1,1.016894621E1
1.509304172E0,-1.734796353E-2,-1.015992451E1,-4.737788737E-1,1.017097996E1
1.511749640E0,-3.888336942E-2,-1.018385315E1,-6.439684033E-1,1.020426735E1
1.514193390E0,-3.409772366E-2,-1.017906761E1,-6.774678826E-1,1.020164412E1
1.516638078E0,-6.311069429E-2,-1.018385315E1,-5.410770178E-1,1.019841224E1
1.519082713E0,-1.734796353E-2,-1.017428207E1,-5.386841893E-1,1.018854736E1
1.521527349E0,6.580262445E-3,-1.014078236E1,-6.631109715E-1,1.016244194E1
1.523972765E0,-2.991028363E-3,-1.014796066E1,-3.996013701E-1,1.015582571E1
1.526416515E0,-5.324030295E-2,-1.016710377E1,-7.896314561E-2,1.016754979E1
1.528861203E0,-4.606183618E-2,-1.016471100E1,1.151545867E-1,1.016546762E1
1.531306672E0,-4.366901144E-2,-1.014078236E1,4.067798331E-2,1.014095797E1
1.533750422E0,-2.931207791E-2,-1.015035343E1,-2.033899277E-1,1.015243328E1
1.536195109E0,1.136590727E-2,-1.016231823E1,-4.187439680E-1,1.017094821E1
1.538639744E0,-7.776673418E-3,-1.017428207E1,-4.378865361E-1,1.018370369E1
1.541084380E0,-3.409772366E-2,-1.017188931E1,-3.062812984E-1,1.017655654E1
1.543529797E0,-5.084748194E-2,-1.017667484E1,-1.890329868E-1,1.017855735E1
1.545973547E0,-2.213360928E-2,-1.017428207E1,-1.722832322E-1,1.017576470E1
1.548418234E0,-2.213360928E-2,-1.015992451E1,-1.866401732E-1,1.016166278E1
1.550863651E0,-3.170489892E-2,-1.015035343E1,-2.321037948E-1,1.015305630E1
1.553307453E0,-2.452643216E-2,-1.017428207E1,-2.440679073E-1,1.017723864E1
1.555752140E0,-2.213360928E-2,-1.017188931E1,-2.703889608E-1,1.017550648E1
1.558196776E0,-3.649054468E-2,-1.017188931E1,-2.919243574E-1,1.017614286E1
1.560641411E0,-5.084748194E-2,-1.016231823E1,-1.172483116E-1,1.016312179E1
1.563086828E0,-7.028916478E-2,-1.017667484E1,-1.316052526E-1,1.017776849E1
1.565530578E0,-3.170489892E-2,-1.017188931E1,-2.967100143E-1,1.017626523E1
1.567975265E0,-2.452643216E-2,-1.017188931E1,-7.061817646E-1,1.019640261E1
1.570420682E0,4.247260094E-2,-1.014078236E1,-9.646066427E-1,1.018664502E1
1.572864484E0,1.615155302E-2,-1.012164021E1,-1.378864050E0,1.021514206E1
1.575309172E0,-6.071787328E-2,-1.014556789E1,-1.050748229E0,1.020001502E1
1.577753807E0,-1.495514158E-2,-1.019581699E1,-5.793621540E-1,1.021227537E1
1.580198442E0,-9.182456881E-2,-1.019342422E1,-4.067798555E-1,1.020195075E1
1.582643859E0,-8.225327730E-2,-1.021735287E1,3.185445070E-1,1.022264818E1
1.585087609E0,-4.127619043E-2,-1.024636555E1,5.721837282E-1,1.026241223E1
1.587532297E0,-5.383851007E-3,-1.017667484E1,-4.833501875E-1,1.018814837E1
1.589977713E0,-5.982056609E-4,-1.013360405E1,-3.469592929E-1,1.013954201E1
1.592421515E0,-7.776673418E-3,-1.013360405E1,-3.517449200E-1,1.013970986E1
1.594866203E0,-2.213360928E-2,-1.018146038E1,-4.618147612E-1,1.019195262E1
1.597310838E0,8.973085321E-3,-1.014078236E1,-7.947162390E-1,1.017187894E1
1.599755369E0,4.187439568E-3,-1.015992451E1,-8.856434822E-1,1.019845321E1
1.602200890E0,-6.071787328E-2,-1.016231823E1,-4.187439680E-1,1.017112309E1
1.604644640E0,-2.691925503E-2,-1.019103146E1,3.828516230E-2,1.019113892E1
1.607089328E0,-4.127619043E-2,-1.020299530E1,1.007976532E-1,1.020357668E1
1.609534744E0,-3.649054468E-2,-1.017667484E1,-3.637090325E-1,1.018323753E1
1.611978547E0,-4.845465720E-2,-1.015513897E1,-4.785645306E-1,1.016652445E1
1.614423234E0,-1.016949583E-2,-1.019820976E1,-4.402793646E-1,1.020771432E1
1.616867869E0,-1.734796353E-2,-1.015274620E1,-3.062812984E-1,1.015737981E1
1.619312401E0,-3.649054468E-2,-1.016949654E1,-2.847459018E-1,1.017354764E1
1.621757869E0,-2.931207791E-2,-1.015992451E1,-3.708875179E-1,1.016673412E1
1.624201672E0,-4.845465720E-2,-1.016710377E1,-4.307080805E-1,1.017633806E1
1.626646359E0,-4.366901144E-2,-1.016471100E1,-4.235295951E-1,1.017362443E1
1.629091776E0,-4.366901144E-2,-1.015992451E1,-3.852444589E-1,1.016731952E1
1.631535578E0,-1.734796353E-2,-1.016710377E1,-3.421736360E-1,1.017287485E1
1.633980265E0,-2.931207791E-2,-1.017188931E1,-3.493520916E-1,1.017792897E1
1.636424797E0,-5.563312769E-2,-1.017188931E1,-3.924229145E-1,1.017960819E1
1.638869484E0,-4.366901144E-2,-1.014317513E1,-4.043870270E-1,1.015132688E1
1.641314901E0,-1.495514158E-2,-1.017428207E1,-3.708875179E-1,1.018105088E1
1.643758703E0,-2.691925503E-2,-1.016710377E1,-4.043870270E-1,1.017517826E1
1.646203390E0,-2.213360928E-2,-1.016471100E1,-3.589234054E-1,1.017107003E1
1.648648807E0,-3.170489892E-2,-1.017667484E1,-4.091726840E-1,1.018494665E1
1.651092609E0,-2.931207791E-2,-1.018146038E1,-4.043870270E-1,1.018953009E1
1.653537244E0,-1.974078640E-2,-1.017428207E1,-4.235295951E-1,1.018311263E1
1.655981880E0,-3.649054468E-2,-1.017428207E1,-3.996013701E-1,1.018219174E1
1.658426515E0,-2.691925503E-2,-1.016471100E1,-3.876372576E-1,1.017213532E1
1.660871932E0,-3.888336942E-2,-1.016471100E1,-3.780659735E-1,1.017181378E1
1.663315734E0,-4.127619043E-2,-1.016949654E1,-3.804588020E-1,1.017669457E1
1.665760422E0,-1.495514158E-2,-1.016710377E1,-3.996013701E-1,1.017496457E1
1.668205838E0,-7.776673418E-3,-1.018624592E1,-4.019941986E-1,1.019417803E1
1.670649640E0,-2.452643216E-2,-1.018624592E1,-3.852444589E-1,1.019355781E1
1.673094276E0,-2.691925503E-2,-1.017428207E1,-3.828516304E-1,1.018151834E1
1.675538911E0,-2.691925503E-2,-1.014556789E1,-4.043870270E-1,1.015365951E1
1.677983547E0,-1.495514158E-2,-1.016231823E1,-3.972085714E-1,1.017008899E1
1.680428963E0,-2.691925503E-2,-1.017906761E1,-3.924229145E-1,1.018666471E1
1.682872765E0,-3.649054468E-2,-1.016710377E1,-3.876372576E-1,1.017455617E1
1.685317453E0,-3.409772366E-2,-1.016949654E1,-3.900300860E-1,1.017703031E1
1.687762869E0,-2.931207791E-2,-1.017428207E1,-3.996013701E-1,1.018216854E1
1.690206619E0,-3.170489892E-2,-1.016949654E1,-3.996013701E-1,1.017739388E1
1.692651307E0,-2.452643216E-2,-1.015274620E1,-3.948157430E-1,1.016044962E1
1.695095942E0,-2.691925503E-2,-1.016231823E1,-4.211367965E-1,1.017107628E1
1.697540578E0,-3.409772366E-2,-1.018146038E1,-3.900300860E-1,1.018898531E1
1.699985994E0,-2.452643216E-2,-1.015513897E1,-3.924229145E-1,1.016274790E1
1.702429797E0,-2.691925503E-2,-1.016949654E1,-4.019941986E-1,1.017747433E1
1.704874432E0,-2.691925503E-2,-1.017428207E1,-3.924229145E-1,1.018188274E1
1.707319901E0,-1.734796353E-2,-1.015513897E1,-3.972085714E-1,1.016291902E1
1.709763651E0,-2.452643216E-2,-1.016949654E1,-3.804588020E-1,1.017664042E1
1.712208338E0,-3.888336942E-2,-1.017428207E1,-3.756731451E-1,1.018128960E1
1.714652974E0,-3.888336942E-2,-1.015274620E1,-3.756731451E-1,1.015976858E1
1.717097609E0,-4.127619043E-2,-1.015753174E1,-3.852444589E-1,1.016491850E1
1.719543026E0,-2.931207791E-2,-1.017667484E1,-3.756731451E-1,1.018364868E1
1.721986828E0,-2.452643216E-2,-1.017188931E1,-3.876372576E-1,1.017930234E1
1.724431463E0,-1.256231871E-2,-1.016710377E1,-3.613162339E-1,1.017352968E1
1.726876932E0,-1.256231871E-2,-1.015992451E1,-3.684946895E-1,1.016661262E1
1.729320682E0,-3.888336942E-2,-1.016471100E1,-3.613162339E-1,1.017120499E1
1.731765369E0,-3.409772366E-2,-1.015274620E1,-3.852444589E-1,1.016010981E1
1.734210005E0,-3.409772366E-2,-1.014556789E1,-3.684946895E-1,1.015231495E1
1.736654640E0,-4.606183618E-2,-1.016710377E1,-3.732803464E-1,1.017405813E1
1.739100057E0,-4.127619043E-2,-1.015753174E1,-3.828516304E-1,1.016482809E1
1.741543859E0,-2.452643216E-2,-1.016710377E1,-3.780659735E-1,1.017416013E1
1.743988494E0,-1.734796353E-2,-1.017667484E1,-4.450650215E-1,1.018641717E1
1.746433911E0,-2.213360928E-2,-1.016949654E1,-4.307080805E-1,1.017863739E1
1.748877713E0,-3.170489892E-2,-1.014078236E1,-4.498506486E-1,1.015080478E1
1.751322401E0,-3.409772366E-2,-1.015992451E1,-4.187439680E-1,1.016860734E1
1.753767036E0,-2.691925503E-2,-1.017428207E1,-4.019941986E-1,1.018225612E1
1.756211672E0,-5.084748194E-2,-1.017188931E1,-3.661018610E-1,1.017860246E1
1.758657088E0,-1.974078640E-2,-1.016471100E1,-3.517449200E-1,1.017081432E1
1.761100838E0,-2.931207791E-2,-1.019103146E1,-3.469592929E-1,1.019697809E1
1.763545526E0,-1.016949583E-2,-1.017188931E1,-3.996013701E-1,1.017974050E1
1.765990942E0,-7.776673418E-3,-1.017428207E1,-3.924229145E-1,1.018185012E1
1.768434744E0,-3.409772366E-2,-1.016710377E1,-3.684946895E-1,1.017383654E1
1.770879432E0,-1.734796353E-2,-1.018146038E1,-3.948157430E-1,1.018912734E1
1.773324067E0,-3.649054468E-2,-1.016949654E1,-3.828516304E-1,1.017676603E1
1.775768703E0,-3.649054468E-2,-1.016710377E1,-4.043870270E-1,1.017520808E1
1.778214119E0,-5.084748194E-2,-1.016710377E1,-4.043870270E-1,1.017526969E1
1.780657869E0,-3.170489892E-2,-1.018385315E1,-3.852444589E-1,1.019118656E1
1.783102557E0,-2.931207791E-2,-1.015274620E1,-3.828516304E-1,1.016000443E1
1.785547974E0,-1.734796353E-2,-1.015753174E1,-3.828516304E-1,1.016475909E1
1.787991776E0,-4.127619043E-2,-1.016949654E1,-3.613162339E-1,1.017599690E1
1.790436463E0,-1.256231871E-2,-1.015992451E1,-3.708875179E-1,1.016669963E1
1.792881099E0,-1.016949583E-2,-1.018385315E1,-3.828516304E-1,1.019105214E1
1.795325630E0,-2.691925503E-2,-1.015753174E1,-3.828516304E-1,1.016477993E1
1.797771151E0,-2.691925503E-2,-1.017188931E1,-3.900300860E-1,1.017939979E1
1.800214901E0,-2.691925503E-2,-1.016949654E1,-3.613162339E-1,1.017594879E1
1.802659588E0,-4.606183618E-2,-1.015035343E1,-3.948157430E-1,1.015813349E1
1.805105005E0,-3.649054468E-2,-1.015753174E1,-3.804588020E-1,1.016471994E1
1.807548807E0,-2.691925503E-2,-1.015753174E1,-3.804588020E-1,1.016469009E1
1.809993494E0,-3.170489892E-2,-1.016231823E1,-3.732803464E-1,1.016922097E1
1.812438026E0,-2.691925503E-2,-1.015753174E1,-3.924229145E-1,1.016514493E1
1.814882713E0,-2.691925503E-2,-1.016471100E1,-3.996013701E-1,1.017259827E1
1.817328130E0,-1.734796353E-2,-1.017667484E1,-3.756731451E-1,1.018362127E1
1.819771932E0,-3.409772366E-2,-1.016710377E1,-3.828516304E-1,1.017436667E1
1.822216619E0,-2.991028363E-3,-1.017428207E1,-3.804588020E-1,1.018139350E1
1.824662036E0,-2.931207791E-2,-1.015753174E1,-3.996013701E-1,1.016543120E1
1.827105838E0,-3.170489892E-2,-1.015513897E1,-3.852444589E-1,1.016249310E1
1.829550474E0,-3.409772366E-2,-1.017667484E1,-3.996013701E-1,1.018457435E1
1.831995109E0,-4.606183618E-2,-1.017188931E1,-4.067798555E-1,1.018012395E1
1.834439744E0,-3.170489892E-2,-1.016949654E1,-3.948157430E-1,1.017720711E1
1.836885161E0,-1.256231871E-2,-1.016949654E1,-4.043870270E-1,1.017754128E1
1.839328963E0,-1.495514158E-2,-1.015992451E1,-3.804588020E-1,1.016705653E1
1.841773651E0,-1.974078640E-2,-1.016471100E1,-3.900300860E-1,1.017221032E1
1.844219067E0,-2.452643216E-2,-1.016710377E1,-4.043870270E-1,1.017517221E1
1.846662817E0,-2.691925503E-2,-1.015513897E1,-3.972085714E-1,1.016293987E1
1.849107505E0,-1.974078640E-2,-1.015753174E1,-3.780659735E-1,1.016458433E1
1.851552140E0,-2.213360928E-2,-1.015274620E1,-3.852444589E-1,1.016007670E1
1.853996776E0,-4.127619043E-2,-1.017906761E1,-4.139583111E-1,1.018756510E1
1.856442192E0,-2.213360928E-2,-1.017906761E1,-3.900300860E-1,1.018656128E1
1.858885994E0,-2.452643216E-2,-1.016231823E1,-3.876372576E-1,1.016973825E1
1.861330630E0,-2.213360928E-2,-1.016710377E1,-3.876372576E-1,1.017451481E1
1.863776099E0,-2.931207791E-2,-1.016949654E1,-3.876372576E-1,1.017692398E1
1.866219849E0,-1.974078640E-2,-1.016231823E1,-3.924229145E-1,1.016991137E1
1.868664536E0,-1.974078640E-2,-1.014796066E1,-3.780659735E-1,1.015501990E1
1.871109172E0,-3.649054468E-2,-1.016471100E1,-4.019941986E-1,1.017272238E1
1.873553807E0,-2.213360928E-2,-1.016710377E1,-4.115654826E-1,1.017545454E1
1.875999224E0,-4.845465720E-2,-1.017188931E1,-4.091726840E-1,1.018023095E1
1.878442974E0,-4.366901144E-2,-1.017906761E1,-3.876372576E-1,1.018653950E1
1.880887661E0,-2.931207791E-2,-1.017906761E1,-3.924229145E-1,1.018667131E1
1.883333078E0,-3.170489892E-2,-1.016710377E1,-4.091726840E-1,1.017538336E1
1.885776880E0,-1.974078640E-2,-1.016471100E1,-3.948157430E-1,1.017239494E1
1.888221567E0,-2.213360928E-2,-1.017188931E1,-3.996013701E-1,1.017975949E1
1.890666203E0,-2.452643216E-2,-1.016710377E1,-4.043870270E-1,1.017517221E1
1.893110838E0,-2.691925503E-2,-1.015753174E1,-3.732803464E-1,1.016442393E1
1.895556255E0,-2.691925503E-2,-1.017906761E1,-3.948157430E-1,1.018675717E1
1.898000005E0,-3.649054468E-2,-1.016471100E1,-3.972085714E-1,1.017253439E1
1.900444692E0,-2.452643216E-2,-1.019103146E1,-3.828516304E-1,1.019824980E1
1.902890109E0,-1.974078640E-2,-1.015513897E1,-3.948157430E-1,1.016283015E1
1.905333911E0,-2.452643216E-2,-1.016231823E1,-4.043870270E-1,1.017039047E1
1.907778599E0,-3.888336942E-2,-1.017428207E1,-3.900300860E-1,1.018182946E1
1.910223234E0,-3.409772366E-2,-1.017667484E1,-3.852444589E-1,1.018402115E1
1.912667869E0,-2.452643216E-2,-1.017906761E1,-3.756731451E-1,1.018602716E1
1.915113286E0,-2.213360928E-2,-1.017188931E1,-3.972085714E-1,1.017966584E1
1.917557036E0,-1.974078640E-2,-1.015035343E1,-3.972085714E-1,1.015814152E1
1.920001724E0,-3.409772366E-2,-1.017906761E1,-3.852444589E-1,1.018641219E1
1.922447140E0,-3.170489892E-2,-1.016471100E1,-3.948157430E-1,1.017242520E1
1.924890942E0,-1.495514158E-2,-1.015513897E1,-3.852444589E-1,1.016245465E1
1.927335630E0,-2.931207791E-2,-1.018624592E1,-3.852444589E-1,1.019357044E1
1.929780265E0,-2.931207791E-2,-1.015035343E1,-3.852444589E-1,1.015770384E1
1.932224797E0,-1.974078640E-2,-1.016231823E1,-3.996013701E-1,1.017019089E1
1.934670265E0,-2.691925503E-2,-1.015274620E1,-3.756731451E-1,1.015972984E1
1.937114067E0,-1.974078640E-2,-1.017906761E1,-3.756731451E-1,1.018601676E1
1.939558755E0,-2.931207791E-2,-1.018863869E1,-3.828516304E-1,1.019587136E1
1.942004172E0,-3.649054468E-2,-1.016231823E1,-3.828516304E-1,1.016959285E1
1.944447974E0,-1.734796353E-2,-1.018624592E1,-3.900300860E-1,1.019372505E1
1.946892609E0,-1.974078640E-2,-1.018624592E1,-3.756731451E-1,1.019319017E1
1.949337244E0,-1.256231871E-2,-1.018146038E1,-3.996013701E-1,1.018930687E1
1.951781880E0,-1.974078640E-2,-1.016949654E1,-4.067798555E-1,1.017764803E1
1.954227297E0,-2.213360928E-2,-1.016949654E1,-4.091726840E-1,1.017774887E1
1.956671099E0,-1.974078640E-2,-1.015274620E1,-3.852444589E-1,1.016007177E1
1.959115786E0,-5.383851007E-3,-1.017188931E1,-3.948157430E-1,1.017955011E1
1.961561203E0,-7.776673418E-3,-1.016231823E1,-3.876372576E-1,1.016971164E1
1.964005005E0,-3.170489892E-2,-1.017188931E1,-4.139583111E-1,1.018035848E1
1.966449640E0,-1.974078640E-2,-1.017188931E1,-3.972085714E-1,1.017966092E1
1.968894276E0,-3.888336942E-2,-1.015274620E1,-4.235295951E-1,1.016165069E1
1.971338911E0,-2.213360928E-2,-1.016949654E1,-4.043870270E-1,1.017755759E1
1.973784328E0,-2.452643216E-2,-1.016231823E1,-3.948157430E-1,1.017001440E1
1.976228130E0,-2.691925503E-2,-1.015753174E1,-3.996013701E-1,1.016542458E1
1.978672817E0,-3.170489892E-2,-1.017667484E1,-3.900300860E-1,1.018419558E1
1.981118234E0,-2.213360928E-2,-1.017667484E1,-4.019941986E-1,1.018463549E1
1.983561984E0,-3.649054468E-2,-1.015992451E1,-4.187439680E-1,1.016861564E1
1.986006672E0,-3.888336942E-2,-1.015513897E1,-4.307080805E-1,1.016434301E1
1.988451307E0,-3.888336942E-2,-1.016231823E1,-4.235295951E-1,1.017121433E1
1.990895942E0,-1.734796353E-2,-1.015513897E1,-4.187439680E-1,1.016378350E1
1.993341359E0,-3.409772366E-2,-1.016710377E1,-4.139583111E-1,1.017558466E1
1.995785161E0,-6.550352275E-2,-1.015753174E1,-4.067798555E-1,1.016588469E1
1.998229849E0,-2.213360928E-2,-1.017188931E1,-4.091726840E-1,1.018013970E1
2.000675265E0,-1.256231871E-2,-1.015753174E1,-4.474578202E-1,1.016739039E1
2.003119015E0,-1.256231871E-2,-1.015992451E1,-4.259224236E-1,1.016885607E1
2.005563703E0,-3.170489892E-2,-1.016710377E1,-4.163511395E-1,1.017567455E1
2.008008338E0,-2.691925503E-2,-1.017188931E1,-3.780659735E-1,1.017894840E1
2.010452974E0,-2.452643216E-2,-1.018863869E1,-3.517449200E-1,1.019473807E1
2.012898390E0,-3.649054468E-2,-1.017667484E1,-3.948157430E-1,1.018439600E1
2.015342140E0,-3.649054468E-2,-1.015513897E1,-4.067798555E-1,1.016334831E1
2.017786828E0,-2.452643216E-2,-1.015992451E1,-3.804588020E-1,1.016707512E1
2.020232244E0,-7.776673418E-3,-1.015753174E1,-3.661018610E-1,1.016413017E1
2.022676047E0,-1.734796353E-2,-1.016710377E1,-3.397808075E-1,1.017279465E1
2.025120734E0,-3.649054468E-2,-1.016231823E1,-3.565305769E-1,1.016863597E1
2.027565369E0,-1.734796353E-2,-1.016949654E1,-3.804588020E-1,1.017662565E1
2.030010005E0,-2.213360928E-2,-1.017906761E1,-3.637090325E-1,1.018558745E1
2.032455422E0,-2.931207791E-2,-1.019581699E1,-3.732803464E-1,1.020268992E1
2.034899172E0,-2.691925503E-2,-1.016710377E1,-3.613162339E-1,1.017355754E1
2.037343859E0,-2.931207791E-2,-1.016231823E1,-3.828516304E-1,1.016956963E1
2.039789276E0,-2.452643216E-2,-1.016949654E1,-3.900300860E-1,1.017700274E1
2.042233078E0,-1.256231871E-2,-1.017667484E1,-4.043870270E-1,1.018471392E1
2.044677765E0,-1.256231871E-2,-1.016231823E1,-4.067798555E-1,1.017046407E1
2.047122401E0,-1.734796353E-2,-1.016471100E1,-3.780659735E-1,1.017175425E1
2.049566932E0,-1.974078640E-2,-1.015035343E1,-3.804588020E-1,1.015750035E1
2.052012453E0,-4.366901144E-2,-1.016231823E1,-4.283152521E-1,1.017143415E1
2.054456203E0,-2.931207791E-2,-1.015992451E1,-3.996013701E-1,1.016782211E1
2.056900890E0,-1.974078640E-2,-1.017428207E1,-4.067798555E-1,1.018242973E1
2.059346307E0,-2.452643216E-2,-1.016231823E1,-3.780659735E-1,1.016937792E1
2.061790109E0,-3.888336942E-2,-1.015513897E1,-3.876372576E-1,1.016260902E1
2.064234797E0,-3.170489892E-2,-1.016949654E1,-3.924229145E-1,1.017711456E1
2.066679328E0,-3.170489892E-2,-1.015513897E1,-4.091726840E-1,1.016342831E1
2.069124015E0,-1.495514158E-2,-1.016710377E1,-4.091726840E-1,1.017534496E1
2.071569432E0,-4.127619043E-2,-1.018146038E1,-3.900300860E-1,1.018901186E1
2.074013234E0,-3.409772366E-2,-1.017667484E1,-4.091726840E-1,1.018495438E1
2.076457922E0,-2.213360928E-2,-1.016471100E1,-4.163511395E-1,1.017325847E1
2.078903338E0,-3.649054468E-2,-1.016710377E1,-4.043870270E-1,1.017520808E1
2.081347088E0,-3.888336942E-2,-1.015992451E1,-4.067798555E-1,1.016813885E1
2.083791776E0,-3.649054468E-2,-1.017188931E1,-3.996013701E-1,1.017980083E1
2.086236411E0,-2.931207791E-2,-1.018385315E1,-4.043870270E-1,1.019192097E1
2.088681047E0,-4.606183618E-2,-1.016231823E1,-4.139583111E-1,1.017085026E1
2.091126463E0,-1.016949583E-2,-1.017906761E1,-4.019941986E-1,1.018700742E1
2.093570265E0,-4.127619043E-2,-1.016231823E1,-3.876372576E-1,1.016979243E1
2.096014953E0,-2.452643216E-2,-1.017428207E1,-4.163511395E-1,1.018282699E1
2.098460369E0,-2.213360928E-2,-1.015753174E1,-4.043870270E-1,1.016560228E1
2.100904119E0,-1.495514158E-2,-1.018624592E1,-3.948157430E-1,1.019390548E1
2.103348807E0,-1.974078640E-2,-1.015035343E1,-3.852444589E-1,1.015768073E1
2.105793442E0,-4.127619043E-2,-1.017667484E1,-3.900300860E-1,1.018422987E1
2.108238078E0,-2.931207791E-2,-1.016949654E1,-3.924229145E-1,1.017710739E1
2.110683494E0,-3.170489892E-2,-1.016231823E1,-4.091726840E-1,1.017060172E1
2.113127297E0,-4.366901144E-2,-1.015035343E1,-4.043870270E-1,1.015849943E1
2.115571932E0,-2.931207791E-2,-1.015035343E1,-4.139583111E-1,1.015883337E1
2.118017349E0,-2.213360928E-2,-1.015992451E1,-3.780659735E-1,1.016698037E1
2.120461151E0,-2.213360928E-2,-1.016471100E1,-4.139583111E-1,1.017316082E1
2.122905838E0,-2.691925503E-2,-1.015753174E1,-4.091726840E-1,1.016580533E1
2.125350474E0,-1.256231871E-2,-1.018146038E1,-3.900300860E-1,1.018893600E1
2.127795109E0,-2.213360928E-2,-1.017906761E1,-3.972085714E-1,1.018683867E1
2.130240526E0,-2.931207791E-2,-1.015274620E1,-4.019941986E-1,1.016074377E1
2.132684276E0,-2.213360928E-2,-1.017428207E1,-4.067798555E-1,1.018243465E1
2.135128963E0,-2.213360928E-2,-1.016710377E1,-3.972085714E-1,1.017488396E1
2.137574380E0,-3.649054468E-2,-1.016949654E1,-4.331009090E-1,1.017878027E1
2.140018182E0,-3.170489892E-2,-1.016710377E1,-4.019941986E-1,1.017509723E1
2.142462869E0,-2.931207791E-2,-1.018385315E1,-4.187439680E-1,1.019250071E1
2.144907505E0,-4.127619043E-2,-1.016231823E1,-3.996013701E-1,1.017025549E1
2.147352036E0,-3.170489892E-2,-1.016231823E1,-4.115654826E-1,1.017069826E1
2.149797505E0,-2.691925503E-2,-1.016710377E1,-4.163511395E-1,1.017566076E1
2.152241307E0,-2.931207791E-2,-1.017906761E1,-3.972085714E-1,1.018685679E1
2.154685994E0,-2.691925503E-2,-1.017188931E1,-4.043870270E-1,1.017996000E1
2.157131411E0,-1.734796353E-2,-1.016471100E1,-3.924229145E-1,1.017229799E1
2.159575213E0,-2.931207791E-2,-1.015035343E1,-4.067798555E-1,1.015854339E1
2.162019849E0,-5.084748194E-2,-1.015513897E1,-3.972085714E-1,1.016303142E1
2.164464484E0,-3.409772366E-2,-1.014317513E1,-4.163511395E-1,1.015177386E1
2.166909119E0,-1.256231871E-2,-1.017667484E1,-4.067798555E-1,1.018480920E1
2.169354536E0,-2.452643216E-2,-1.014317513E1,-3.996013701E-1,1.015107307E1
2.171798338E0,-4.127619043E-2,-1.018863869E1,-4.139583111E-1,1.019712820E1
2.174243026E0,-4.606183618E-2,-1.017428207E1,-4.115654826E-1,1.018270708E1
2.176688442E0,-1.016949583E-2,-1.016231823E1,-4.043870270E-1,1.017036598E1
2.179132192E0,-1.495514158E-2,-1.017188931E1,-4.139583111E-1,1.018032009E1
2.181576880E0,-3.170489892E-2,-1.016710377E1,-4.115654826E-1,1.017547986E1
2.184021515E0,-2.931207791E-2,-1.016471100E1,-4.019941986E-1,1.017269916E1
2.186466151E0,-3.888336942E-2,-1.016231823E1,-4.043870270E-1,1.017043522E1
2.188911567E0,-1.256231871E-2,-1.014796066E1,-4.283152521E-1,1.015700337E1
2.191355369E0,-2.691925503E-2,-1.016710377E1,-3.924229145E-1,1.017470979E1
2.193800057E0,-1.495514158E-2,-1.016231823E1,-4.067798555E-1,1.017046731E1
2.196245474E0,-1.256231871E-2,-1.015992451E1,-4.043870270E-1,1.016797682E1
2.198689224E0,-1.016949583E-2,-1.016949654E1,-3.876372576E-1,1.017688685E1
2.201133911E0,-1.734796353E-2,-1.017188931E1,-4.043870270E-1,1.017993919E1
2.203578547E0,-2.691925503E-2,-1.016471100E1,-4.187439680E-1,1.017336822E1
2.206023182E0,-2.691925503E-2,-1.015753174E1,-4.115654826E-1,1.016590192E1
2.208468599E0,-1.495514158E-2,-1.016231823E1,-3.996013701E-1,1.017018273E1
2.210912401E0,-3.409772366E-2,-1.017188931E1,-4.115654826E-1,1.018026919E1
2.213357036E0,-3.409772366E-2,-1.018385315E1,-3.972085714E-1,1.019165356E1
2.215802453E0,-2.691925503E-2,-1.016710377E1,-4.019941986E-1,1.017508344E1
2.218246255E0,-2.931207791E-2,-1.014556789E1,-4.211367965E-1,1.015434701E1
2.220690942E0,-1.974078640E-2,-1.017667484E1,-4.019941986E-1,1.018463057E1
2.223135578E0,-2.931207791E-2,-1.017188931E1,-4.019941986E-1,1.017987183E1
2.225580213E0,-4.366901144E-2,-1.016949654E1,-4.163511395E-1,1.017810960E1
2.228025630E0,-2.691925503E-2,-1.016710377E1,-4.067798555E-1,1.017527363E1
2.230469380E0,-4.606183618E-2,-1.016710377E1,-4.139583111E-1,1.017563178E1
2.232914067E0,-4.845465720E-2,-1.015513897E1,-4.115654826E-1,1.016359097E1
2.235359484E0,-7.776673418E-3,-1.016231823E1,-3.876372576E-1,1.016971164E1
2.237803286E0,-2.452643216E-2,-1.016231823E1,-3.804588020E-1,1.016946716E1
2.240247974E0,-1.974078640E-2,-1.016949654E1,-4.139583111E-1,1.017793746E1
2.242692609E0,-1.016949583E-2,-1.016710377E1,-3.996013701E-1,1.017495866E1
2.245137140E0,-3.170489892E-2,-1.018146038E1,-4.043870270E-1,1.018953726E1
2.247582609E0,-4.127619043E-2,-1.016471100E1,-4.211367965E-1,1.017351511E1
2.250026411E0,-2.931207791E-2,-1.016710377E1,-4.115654826E-1,1.017547268E1
2.252471099E0,-2.691925503E-2,-1.015513897E1,-3.948157430E-1,1.016284663E1
2.254916515E0,-2.691925503E-2,-1.016231823E1,-4.019941986E-1,1.017030166E1
2.257360317E0,-2.452643216E-2,-1.017667484E1,-3.972085714E-1,1.018445320E1
2.259804953E0,-2.213360928E-2,-1.016949654E1,-4.019941986E-1,1.017746280E1
2.262249588E0,-2.691925503E-2,-1.015992451E1,-4.115654826E-1,1.016829272E1
2.264694224E0,-4.845465720E-2,-1.015274620E1,-4.019941986E-1,1.016081702E1
2.267139640E0,-2.452643216E-2,-1.017667484E1,-4.115654826E-1,1.018502325E1
2.269583442E0,-2.931207791E-2,-1.016231823E1,-4.019941986E-1,1.017030827E1
2.272028130E0,-1.734796353E-2,-1.016231823E1,-3.900300860E-1,1.016981496E1
2.274473547E0,-1.256231871E-2,-1.015753174E1,-3.876372576E-1,1.016493342E1
2.276917297E0,-2.213360928E-2,-1.017667484E1,-3.996013701E-1,1.018454133E1
2.279361984E0,-1.974078640E-2,-1.017667484E1,-4.115654826E-1,1.018501285E1
2.281806619E0,-3.649054468E-2,-1.016949654E1,-3.996013701E-1,1.017740992E1
2.284251255E0,-3.888336942E-2,-1.017428207E1,-4.043870270E-1,1.018238953E1
2.286696672E0,-1.734796353E-2,-1.017667484E1,-4.091726840E-1,1.018491208E1
2.289140474E0,-1.734796353E-2,-1.017906761E1,-3.972085714E-1,1.018682939E1
2.291585161E0,-1.734796353E-2,-1.017188931E1,-3.996013701E-1,1.017975021E1
2.294030578E0,-1.495514158E-2,-1.014796066E1,-3.996013701E-1,1.015583628E1
2.296474328E0,-3.170489892E-2,-1.016231823E1,-5.697908998E-1,1.017832887E1
2.298919015E0,-3.649054468E-2,-1.018863869E1,-6.798607111E-1,1.021136134E1
2.301363651E0,-4.845465720E-2,-1.016710377E1,-6.583253145E-1,1.018851015E1
2.303808286E0,-2.991028363E-3,-1.016949654E1,-6.655037999E-1,1.019124939E1
2.306253703E0,-1.016949583E-2,-1.016231823E1,-7.588238716E-1,1.019061475E1
2.308697453E0,1.615155302E-2,-1.014796066E1,-6.894320250E-1,1.017136584E1
2.311142140E0,-5.383851007E-3,-1.010728264E1,-1.000499010E0,1.015668202E1
2.313587557E0,-7.028916478E-2,-1.009531879E1,-8.282157183E-1,1.012947893E1
2.316031359E0,-2.931207791E-2,-1.017428207E1,-2.344966233E-1,1.017702626E1
2.318476047E0,1.615155302E-2,-1.018385315E1,-2.201396823E-1,1.018624501E1
2.320920682E0,2.093719877E-2,-1.021017456E1,-1.459621787E-1,1.021123929E1
2.323365317E0,-5.383851007E-3,-1.017906761E1,-4.426721931E-1,1.018869006E1
2.325810734E0,6.580262445E-3,-1.016471100E1,-6.966105103E-1,1.018855530E1
2.328254484E0,-4.845465720E-2,-1.013360405E1,-6.966105103E-1,1.015763482E1
2.330699172E0,-4.606183618E-2,-1.014796066E1,-7.085745931E-1,1.017277274E1
2.333144588E0,-1.256231871E-2,-1.017188931E1,-5.769693851E-1,1.018824732E1
2.335588390E0,-1.495514158E-2,-1.014796066E1,-5.985047817E-1,1.016560560E1
2.338033078E0,1.854437590E-2,-1.012164021E1,-5.338985324E-1,1.013572849E1
2.340477609E0,1.615155302E-2,-1.016471100E1,-3.661018610E-1,1.017131462E1
2.342922297E0,9.990034252E-2,-1.025593662E1,-2.177468538E-1,1.025873432E1
2.345367713E0,1.375873014E-2,-1.016949654E1,-5.865406394E-1,1.018640658E1
2.347811515E0,1.375873014E-2,-1.016949654E1,-6.463612318E-1,1.019002610E1
2.350256203E0,-4.366901144E-2,-1.016471100E1,-3.278166950E-1,1.017008950E1
2.352701619E0,-2.213360928E-2,-1.018146038E1,-1.148554832E-1,1.018213225E1
2.355145369E0,-2.691925503E-2,-1.015035343E1,1.914258115E-2,1.015040718E1
2.357590057E0,-8.225327730E-2,-1.016949654E1,3.376871049E-1,1.017543404E1
2.360034692E0,-1.734796353E-2,-1.018624592E1,4.549354017E-1,1.019641472E1
2.362479328E0,-5.563312769E-2,-1.018624592E1,-9.092725813E-2,1.018680366E1
2.364924744E0,-8.464609832E-2,-1.015753174E1,1.007976532E-1,1.015838452E1
2.367368547E0,-7.268198580E-2,-1.017667484E1,-7.417750359E-2,1.017720472E1
2.369813234E0,-5.563312769E-2,-1.018385315E1,2.392822690E-2,1.018403322E1
2.372258651E0,-8.225327730E-2,-1.018385315E1,9.840483218E-2,1.018466072E1
2.374702401E0,-6.311069429E-2,-1.016710377E1,1.271187067E-1,1.016809427E1
2.377147088E0,-3.888336942E-2,-1.016710377E1,7.447660714E-2,1.016745089E1
2.379591724E0,-3.888336942E-2,-1.017667484E1,9.361918271E-2,1.017717973E1
2.382036359E0,-6.071787328E-2,-1.017428207E1,1.438684613E-1,1.017548036E1
2.384481776E0,-1.157527938E-1,-1.015035343E1,2.276172489E-1,1.015356504E1
2.386925526E0,-1.492523104E-1,-1.015753174E1,2.084746659E-1,1.016076714E1
2.389370213E0,-5.324030295E-2,-1.016710377E1,6.969095767E-2,1.016748201E1
2.391815630E0,-7.028916478E-2,-1.014796066E1,3.828516230E-2,1.014827630E1
2.394259432E0,-2.691925503E-2,-1.014556789E1,3.349951655E-2,1.014565891E1
2.396704119E0,-3.649054468E-2,-1.015513897E1,-7.178467698E-3,1.015520707E1
2.399148755E0,-2.452643216E-2,-1.014556789E1,7.178467698E-3,1.014560008E1
2.401593390E0,-2.691925503E-2,-1.015513897E1,-1.435693540E-2,1.015518480E1
2.404038807E0,-7.776673418E-3,-1.018624592E1,4.546362907E-2,1.018635034E1
2.406482557E0,-3.649054468E-2,-1.017667484E1,1.558325738E-1,1.017793330E1
2.408927244E0,-4.127619043E-2,-1.016949654E1,2.252244353E-1,1.017207401E1
2.411372661E0,-6.311069429E-2,-1.023170948E1,4.429712892E-1,1.024148844E1
2.413816463E0,-3.047857881E-1,-1.025832939E1,8.668000102E-1,1.029939603E1
2.416261151E0,3.367897868E-1,-1.004985523E1,-7.524529934E0,1.255912291E1
2.418705682E0,2.572284266E-2,-1.009053326E1,-4.388137817E0,1.100342113E1
2.421150369E0,-9.182456881E-2,-1.022692394E1,9.571290575E-3,1.022734065E1
2.423595786E0,-1.205384433E-1,-1.015753174E1,3.234498024E0,1.066076723E1
2.426039588E0,2.626122832E-1,-1.031097221E1,9.218349457E-1,1.035542818E1
2.428484276E0,7.836493850E-2,-1.011206818E1,-3.351746321E0,1.065336882E1
2.430929692E0,-7.776673418E-3,-1.009771156E1,-2.506481647E0,1.040414771E1
2.433373494E0,3.290131316E-2,-1.013599682E1,-7.013961077E-1,1.016028890E1
2.435818130E0,3.290131316E-2,-1.013838959E1,-1.304686546E0,1.022204641E1
2.438262765E0,-1.037886813E-1,-1.013838959E1,-1.290329576E0,1.022069792E1
2.440707401E0,-3.409772366E-2,-1.019581699E1,1.482054472E0,1.030302539E1
2.443152817E0,-1.396810263E-1,-1.020299530E1,1.730908036E0,1.034971819E1
2.445596619E0,-7.986045629E-2,-1.018146038E1,1.366899908E-1,1.018269107E1
2.448041255E0,1.136590727E-2,-1.019820976E1,8.404789865E-2,1.019856243E1
2.450486724E0,-3.170489892E-2,-1.017188931E1,-2.249253243E-1,1.017442522E1
2.452930474E0,-6.311069429E-2,-1.014078236E1,-3.278166950E-1,1.014627585E1
2.455375161E0,-2.931207791E-2,-1.018624592E1,-3.972085714E-1,1.019402961E1
2.457819797E0,-1.037886813E-1,-1.014317513E1,-3.924229145E-1,1.015129398E1
2.460264432E0,-3.649054468E-2,-1.013121128E1,-6.320042610E-1,1.015097054E1
2.462709849E0,4.725824669E-2,-1.015753174E1,-9.358927608E-1,1.020066565E1
2.465153599E0,1.854437590E-2,-1.014796066E1,-3.684946895E-1,1.015466582E1
2.467598286E0,6.580262445E-3,-1.015513897E1,-5.171487927E-1,1.016830043E1
2.470043703E0,-2.213360928E-2,-1.016949654E1,-5.048855543E-1,1.018204592E1
2.472487505E0,-2.452643216E-2,-1.016231823E1,-5.048855543E-1,1.017488195E1
2.474932192E0,-3.649054468E-2,-1.014317513E1,-4.402793646E-1,1.015279169E1
2.477376828E0,-4.366901144E-2,-1.015753174E1,-4.259224236E-1,1.016655143E1
2.479821359E0,-4.366901144E-2,-1.017188931E1,-1.651047617E-1,1.017332289E1
2.482266880E0,-2.691925503E-2,-1.015992451E1,-2.991028428E-1,1.016436192E1
2.484710630E0,-5.832505226E-2,-1.017667484E1,-2.536391914E-1,1.018000224E1
2.487155317E0,-2.931207791E-2,-1.016949654E1,-3.326023519E-1,1.017497633E1
2.489600734E0,-1.495514158E-2,-1.015274620E1,-3.302095234E-1,1.015812568E1
2.492044536E0,-1.016949583E-2,-1.016949654E1,-3.541377485E-1,1.017566591E1
2.494489224E0,-1.256231871E-2,-1.015753174E1,-3.062812984E-1,1.016215612E1
2.496933755E0,-7.776673418E-3,-1.017667484E1,-3.972085714E-1,1.018442664E1
2.499378442E0,-1.734796353E-2,-1.018385315E1,-7.612167001E-1,1.021227775E1
2.501823859E0,-2.931207791E-2,-1.019103146E1,-8.808578253E-1,1.022907092E1
2.504267661E0,-2.213360928E-2,-1.016710377E1,-7.133602500E-1,1.019212303E1
2.506712349E0,-2.931207791E-2,-1.016949654E1,-6.439684033E-1,1.018990747E1
2.509157765E0,-2.931207791E-2,-1.018146038E1,-5.243272781E-1,1.019499455E1
2.511601515E0,-3.170489892E-2,-1.018624592E1,-4.666004181E-1,1.019697637E1
2.514046203E0,-6.071787328E-2,-1.017667484E1,-3.876372576E-1,1.018423587E1
2.516490838E0,-1.256231871E-2,-1.016231823E1,-3.996013701E-1,1.017017949E1
2.518935474E0,-2.213360928E-2,-1.014317513E1,-4.378865361E-1,1.015264676E1
2.521380890E0,-3.649054468E-2,-1.015035343E1,-3.326023519E-1,1.015586681E1
2.523824692E0,-1.016949583E-2,-1.015274620E1,-3.038884699E-1,1.015729822E1
2.526269328E0,-2.213360928E-2,-1.015274620E1,-1.770688742E-1,1.015431429E1
2.528714797E0,-2.213360928E-2,-1.014556789E1,-2.560320199E-1,1.014882211E1
2.531158547E0,-1.256231871E-2,-1.016949654E1,-3.756731451E-1,1.017644083E1
2.533603234E0,-1.974078640E-2,-1.016471100E1,-3.996013701E-1,1.017258181E1
2.536047869E0,-2.931207791E-2,-1.014796066E1,-3.804588020E-1,1.015513238E1
2.538492505E0,-2.452643216E-2,-1.017428207E1,-4.474578202E-1,1.018414630E1
2.540937922E0,-2.213360928E-2,-1.017428207E1,-4.043870270E-1,1.018233934E1
2.543381672E0,-2.931207791E-2,-1.015513897E1,-3.900300860E-1,1.016266846E1
2.545826359E0,-2.452643216E-2,-1.015513897E1,-4.187439680E-1,1.016379828E1
2.548271776E0,-1.734796353E-2,-1.016949654E1,-3.924229145E-1,1.017707996E1
2.550715578E0,-3.170489892E-2,-1.015992451E1,-3.852444589E-1,1.016727518E1
2.553160265E0,-1.495514158E-2,-1.016231823E1,-4.043870270E-1,1.017037189E1
2.555604901E0,-5.982056609E-4,-1.015513897E1,-3.876372576E-1,1.016253465E1
2.558049432E0,-1.495514158E-2,-1.018146038E1,-4.331009090E-1,1.019067886E1
2.560494901E0,-7.776673418E-3,-1.016710377E1,-4.211367965E-1,1.017582506E1
2.562938703E0,-2.213360928E-2,-1.016471100E1,-4.618147612E-1,1.017522051E1
2.565383390E0,-4.366901144E-2,-1.016471100E1,-4.426721931E-1,1.017443931E1
2.567828807E0,-3.170489892E-2,-1.015513897E1,-4.833501875E-1,1.016668481E1
2.570272609E0,-3.409772366E-2,-1.017188931E1,-4.833501875E-1,1.018342389E1
2.572717244E0,-2.931207791E-2,-1.017667484E1,-4.761717021E-1,1.018785108E1
2.575161880E0,-3.649054468E-2,-1.016471100E1,-4.426721931E-1,1.017441104E1
2.577606515E0,-4.606183618E-2,-1.016471100E1,-4.737788737E-1,1.017585072E1
2.580051932E0,-4.366901144E-2,-1.017188931E1,-4.283152521E-1,1.018099666E1
2.582495734E0,-3.649054468E-2,-1.018146038E1,-4.259224236E-1,1.019043066E1
2.584940422E0,-2.691925503E-2,-1.015274620E1,-4.019941986E-1,1.016073715E1
2.587385838E0,-2.452643216E-2,-1.015753174E1,-3.948157430E-1,1.016523153E1
2.589829588E0,-4.127619043E-2,-1.015035343E1,-3.661018610E-1,1.015703742E1
2.592274276E0,-1.256231871E-2,-1.017428207E1,-3.756731451E-1,1.018122310E1
2.594718911E0,-3.409772366E-2,-1.015274620E1,-3.493520916E-1,1.015881218E1
2.597163547E0,-2.213360928E-2,-1.015753174E1,-3.876372576E-1,1.016494976E1
2.599608963E0,-7.776673418E-3,-1.016949654E1,-3.732803464E-1,1.017634799E1
2.602052713E0,-1.734796353E-2,-1.017188931E1,-4.115654826E-1,1.018022687E1
2.604497401E0,-2.213360928E-2,-1.016949654E1,-3.948157430E-1,1.017718179E1
2.606942817E0,-1.016949583E-2,-1.016949654E1,-4.307080805E-1,1.017861841E1
2.609386619E0,-1.256231871E-2,-1.017667484E1,-4.498506486E-1,1.018662036E1
2.611831307E0,-3.409772366E-2,-1.018863869E1,-4.331009090E-1,1.019789671E1
2.614275942E0,-2.691925503E-2,-1.016710377E1,-4.211367965E-1,1.017585770E1
2.616720474E0,-2.213360928E-2,-1.016471100E1,-4.283152521E-1,1.017375513E1
2.619165994E0,-2.452643216E-2,-1.017188931E1,-4.043870270E-1,1.017995395E1
2.621609744E0,-1.974078640E-2,-1.016471100E1,-4.043870270E-1,1.017277092E1
2.624054432E0,-3.170489892E-2,-1.015513897E1,-4.139583111E-1,1.016362210E1
2.626499849E0,-1.974078640E-2,-1.013599682E1,-4.331009090E-1,1.014526479E1
2.628943651E0,-4.606183618E-2,-1.015035343E1,-4.067798555E-1,1.015860553E1
2.631388286E0,-1.495514158E-2,-1.018146038E1,-4.187439680E-1,1.019007879E1
2.633832922E0,-2.213360928E-2,-1.016231823E1,-4.354937077E-1,1.017166931E1
2.636277557E0,-3.888336942E-2,-1.016471100E1,-4.091726840E-1,1.017301744E1
2.638722974E0,-1.495514158E-2,-1.016231823E1,-4.067798555E-1,1.017046731E1
2.641166776E0,-2.931207791E-2,-1.016949654E1,-3.996013701E-1,1.017738671E1
2.643611463E0,-4.845465720E-2,-1.017188931E1,-4.307080805E-1,1.018111926E1
2.646056880E0,-4.366901144E-2,-1.017188931E1,-4.115654826E-1,1.018030575E1
2.648500630E0,-5.383851007E-3,-1.015992451E1,-4.067798555E-1,1.016806593E1
2.650945317E0,-1.256231871E-2,-1.014796066E1,-3.996013701E-1,1.015583304E1
2.653389953E0,-2.931207791E-2,-1.015513897E1,-3.852444589E-1,1.016248592E1
2.655834588E0,-1.256231871E-2,-1.016231823E1,-3.972085714E-1,1.017008575E1
2.658280005E0,-3.649054468E-2,-1.016231823E1,-4.043870270E-1,1.017042635E1
2.660723807E0,-3.170489892E-2,-1.016471100E1,-4.043870270E-1,1.017280118E1
2.663168442E0,-4.127619043E-2,-1.015274620E1,-4.283152521E-1,1.016186071E1
2.665613911E0,-5.982056609E-4,-1.015753174E1,-4.259224236E-1,1.016645766E1
2.668057661E0,-1.495514158E-2,-1.017906761E1,-4.163511395E-1,1.018758997E1
2.670502349E0,-1.734796353E-2,-1.016231823E1,-4.187439680E-1,1.017095665E1
2.672946984E0,-4.127619043E-2,-1.015035343E1,-4.378865361E-1,1.015987811E1
2.675391619E0,-2.452643216E-2,-1.017428207E1,-4.115654826E-1,1.018263244E1
2.677837036E0,-2.931207791E-2,-1.017428207E1,-4.211367965E-1,1.018303644E1
2.680280786E0,-2.213360928E-2,-1.017188931E1,-4.235295951E-1,1.018072685E1
2.682725474E0,-3.888336942E-2,-1.017906761E1,-4.331009090E-1,1.018835147E1
2.685170890E0,-2.213360928E-2,-1.016231823E1,-3.948157430E-1,1.017000891E1
2.687614692E0,-3.409772366E-2,-1.017428207E1,-4.307080805E-1,1.018345167E1
2.690059380E0,-3.409772366E-2,-1.016231823E1,-4.091726840E-1,1.017060946E1
2.692503911E0,-1.256231871E-2,-1.016710377E1,-3.996013701E-1,1.017496133E1
2.694948599E0,-1.734796353E-2,-1.015992451E1,-4.259224236E-1,1.016886311E1
2.697394015E0,-2.691925503E-2,-1.016710377E1,-4.283152521E-1,1.017615731E1
2.699837817E0,-2.452643216E-2,-1.016231823E1,-4.019941986E-1,1.017029560E1
2.702282505E0,-2.452643216E-2,-1.015992451E1,-3.996013701E-1,1.016780944E1
2.704727922E0,-2.691925503E-2,-1.016949654E1,-4.043870270E-1,1.017756913E1
2.707171724E0,-2.931207791E-2,-1.016471100E1,-4.211367965E-1,1.017347360E1
2.709616359E0,-2.931207791E-2,-1.017667484E1,-4.139583111E-1,1.018513287E1
2.712060994E0,-7.776673418E-3,-1.015035343E1,-4.283152521E-1,1.015938921E1
2.714505630E0,-2.213360928E-2,-1.016710377E1,-3.900300860E-1,1.017460625E1
2.716951047E0,-2.931207791E-2,-1.018385315E1,-4.019941986E-1,1.019182631E1
2.719394849E0,-2.213360928E-2,-1.016949654E1,-4.115654826E-1,1.017784534E1
2.721839484E0,-2.452643216E-2,-1.015753174E1,-4.283152521E-1,1.016658775E1
2.724284953E0,-2.931207791E-2,-1.015753174E1,-3.972085714E-1,1.016533742E1
2.726728703E0,-3.170489892E-2,-1.015992451E1,-4.139583111E-1,1.016840364E1
2.729173390E0,-2.931207791E-2,-1.017667484E1,-4.139583111E-1,1.018513287E1
2.731618026E0,-1.974078640E-2,-1.015513897E1,-4.307080805E-1,1.016428781E1
2.734062661E0,-4.366901144E-2,-1.015753174E1,-4.115654826E-1,1.016596007E1
2.736508078E0,-5.383851007E-3,-1.016471100E1,-4.331009090E-1,1.017393508E1
2.738951828E0,-2.691925503E-2,-1.016949654E1,-4.187439680E-1,1.017814968E1
2.741396515E0,-2.213360928E-2,-1.015753174E1,-4.067798555E-1,1.016569775E1
2.743841932E0,-4.127619043E-2,-1.016710377E1,-4.283152521E-1,1.017620542E1
2.746285734E0,-1.256231871E-2,-1.017667484E1,-4.235295951E-1,1.018549194E1
2.748730422E0,-2.931207791E-2,-1.015513897E1,-4.235295951E-1,1.016400925E1
2.751174953E0,-4.127619043E-2,-1.016949654E1,-4.331009090E-1,1.017879855E1
2.753619640E0,-1.734796353E-2,-1.015992451E1,-4.211367965E-1,1.016866378E1
2.756065057E0,-1.974078640E-2,-1.015753174E1,-4.235295951E-1,1.016637684E1
2.758508859E0,-3.170489892E-2,-1.016949654E1,-4.546363056E-1,1.017970329E1
2.760953547E0,-2.452643216E-2,-1.016471100E1,-4.163511395E-1,1.017326396E1
2.763398963E0,-3.649054468E-2,-1.015513897E1,-4.091726840E-1,1.016344436E1
2.765842713E0,-2.213360928E-2,-1.015992451E1,-4.235295951E-1,1.016877245E1
2.768287401E0,-4.606183618E-2,-1.015992451E1,-4.091726840E-1,1.016826485E1
2.770732036E0,-2.931207791E-2,-1.016949654E1,-4.211367965E-1,1.017825502E1
2.773176672E0,-2.452643216E-2,-1.016471100E1,-4.139583111E-1,1.017316631E1
2.775622088E0,-3.409772366E-2,-1.016710377E1,-4.139583111E-1,1.017558466E1
2.778065890E0,-2.452643216E-2,-1.016471100E1,-4.115654826E-1,1.017306922E1
2.780510526E0,-2.452643216E-2,-1.016471100E1,-4.091726840E-1,1.017297270E1
2.782955994E0,-3.888336942E-2,-1.017188931E1,-4.211367965E-1,1.018067778E1
2.785399744E0,-3.649054468E-2,-1.015753174E1,-4.307080805E-1,1.016672474E1
2.787844432E0,-3.888336942E-2,-1.016231823E1,-4.235295951E-1,1.017121433E1
2.790289067E0,-1.734796353E-2,-1.015992451E1,-4.163511395E-1,1.016846671E1
2.792733703E0,-1.016949583E-2,-1.018146038E1,-3.996013701E-1,1.018930420E1
2.795179119E0,-3.649054468E-2,-1.015992451E1,-4.187439680E-1,1.016861564E1
2.797622869E0,-3.170489892E-2,-1.016710377E1,-3.948157430E-1,1.017481615E1
2.800067557E0,-3.409772366E-2,-1.017188931E1,-4.019941986E-1,1.017988674E1
2.802512974E0,-2.931207791E-2,-1.017667484E1,-4.211367965E-1,1.018542715E1
2.804956776E0,-5.084748194E-2,-1.017428207E1,-4.331009090E-1,1.018362301E1
2.807401463E0,-5.084748194E-2,-1.016231823E1,-4.211367965E-1,1.017116775E1
2.809845994E0,-2.931207791E-2,-1.017188931E1,-4.163511395E-1,1.018044889E1
2.812290682E0,-3.409772366E-2,-1.015274620E1,-4.091726840E-1,1.016104524E1
2.814736099E0,-5.383851007E-3,-1.016710377E1,-4.091726840E-1,1.017533539E1
2.817179901E0,-2.452643216E-2,-1.016949654E1,-4.331009090E-1,1.017874441E1
2.819624588E0,-1.495514158E-2,-1.016231823E1,-4.163511395E-1,1.017085462E1
2.822070005E0,-2.991028363E-3,-1.017188931E1,-4.187439680E-1,1.018050527E1
2.824513755E0,-1.734796353E-2,-1.017428207E1,-4.019941986E-1,1.018223531E1
2.826958442E0,-1.256231871E-2,-1.018863869E1,-4.067798555E-1,1.019676350E1
2.829403078E0,-4.845465720E-2,-1.015753174E1,-4.402793646E-1,1.016718470E1
2.831847713E0,-3.409772366E-2,-1.016231823E1,-4.187439680E-1,1.017099902E1
2.834293130E0,-4.366901144E-2,-1.015992451E1,-3.852444589E-1,1.016731952E1
2.836736932E0,-3.170489892E-2,-1.017188931E1,-4.163511395E-1,1.018045606E1
2.839181567E0,-1.974078640E-2,-1.015274620E1,-3.996013701E-1,1.016062628E1
2.841627036E0,-2.691925503E-2,-1.016471100E1,-3.948157430E-1,1.017241141E1
2.844070786E0,-4.366901144E-2,-1.017428207E1,-3.996013701E-1,1.018221999E1
2.846515474E0,-2.931207791E-2,-1.015274620E1,-4.115654826E-1,1.016112694E1
2.848960109E0,-2.213360928E-2,-1.016471100E1,-4.259224236E-1,1.017365468E1
2.851404744E0,-1.016949583E-2,-1.017428207E1,-4.067798555E-1,1.018241568E1
2.853850161E0,-3.409772366E-2,-1.015274620E1,-4.331009090E-1,1.016203693E1
2.856293911E0,-2.931207791E-2,-1.017188931E1,-4.091726840E-1,1.018015783E1
2.858738599E0,-3.170489892E-2,-1.015992451E1,-4.211367965E-1,1.016869841E1
2.861184015E0,-2.213360928E-2,-1.016710377E1,-4.043870270E-1,1.017516672E1
2.863627817E0,-4.606183618E-2,-1.015992451E1,-4.163511395E-1,1.016855624E1
2.866072505E0,-3.409772366E-2,-1.015274620E1,-4.163511395E-1,1.016133684E1
2.868517140E0,-1.974078640E-2,-1.019342422E1,-4.115654826E-1,1.020174854E1
2.870961672E0,-2.691925503E-2,-1.017188931E1,-4.043870270E-1,1.017996000E1
2.873407140E0,-2.691925503E-2,-1.018146038E1,-3.996013701E-1,1.018933469E1
2.875850942E0,-1.974078640E-2,-1.017428207E1,-3.948157430E-1,1.018195879E1
2.878295630E0,-2.452643216E-2,-1.017428207E1,-4.115654826E-1,1.018263244E1
2.880741047E0,-4.366901144E-2,-1.017188931E1,-4.259224236E-1,1.018089627E1
2.883184849E0,-5.084748194E-2,-1.016231823E1,-4.115654826E-1,1.017077595E1
2.885629484E0,-1.734796353E-2,-1.015992451E1,-3.900300860E-1,1.016742300E1
2.888074119E0,-3.170489892E-2,-1.016710377E1,-4.307080805E-1,1.017627209E1
2.890518755E0,-2.452643216E-2,-1.017667484E1,-4.211367965E-1,1.018541450E1
2.892964172E0,-4.366901144E-2,-1.018624592E1,-4.402793646E-1,1.019585008E1
2.895407974E0,-2.452643216E-2,-1.016710377E1,-4.259224236E-1,1.017605083E1
2.897852609E0,-2.213360928E-2,-1.015274620E1,-4.115654826E-1,1.016110877E1
2.900298078E0,-5.324030295E-2,-1.016471100E1,-4.067798555E-1,1.017298649E1
2.902741828E0,-5.084748194E-2,-1.015513897E1,-4.019941986E-1,1.016321958E1
2.905186515E0,-2.931207791E-2,-1.013360405E1,-4.043870270E-1,1.014171184E1
2.907631151E0,-3.409772366E-2,-1.016471100E1,-4.163511395E-1,1.017329153E1
2.910075786E0,-3.170489892E-2,-1.016710377E1,-4.307080805E-1,1.017627209E1
2.912521203E0,-4.127619043E-2,-1.015513897E1,-4.187439680E-1,1.016385250E1
2.914964953E0,-1.256231871E-2,-1.016710377E1,-4.019941986E-1,1.017505559E1
2.917409640E0,-2.931207791E-2,-1.016231823E1,-4.354937077E-1,1.017168746E1
2.919855057E0,-2.931207791E-2,-1.017428207E1,-4.043870270E-1,1.018235748E1
2.922298859E0,-2.931207791E-2,-1.017667484E1,-4.307080805E-1,1.018582738E1
2.924743547E0,-1.734796353E-2,-1.016471100E1,-4.091726840E-1,1.017295792E1
2.927188078E0,-3.888336942E-2,-1.016471100E1,-4.259224236E-1,1.017370491E1
2.929632765E0,-3.649054468E-2,-1.016471100E1,-4.163511395E-1,1.017329983E1
2.932078182E0,-1.734796353E-2,-1.018385315E1,-4.354937077E-1,1.019317520E1
2.934521984E0,-2.691925503E-2,-1.017188931E1,-4.187439680E-1,1.018054042E1
2.936966672E0,-2.452643216E-2,-1.017428207E1,-4.235295951E-1,1.018312303E1
2.939412088E0,-2.213360928E-2,-1.017667484E1,-4.043870270E-1,1.018473022E1
2.941855838E0,-2.452643216E-2,-1.016949654E1,-4.235295951E-1,1.017834165E1
2.944300526E0,-2.452643216E-2,-1.015992451E1,-4.187439680E-1,1.016857975E1
2.946745161E0,-1.495514158E-2,-1.015274620E1,-4.187439680E-1,1.016138896E1
2.949189797E0,-2.213360928E-2,-1.016231823E1,-4.235295951E-1,1.017116409E1
2.951635213E0,-3.649054468E-2,-1.016471100E1,-4.211367965E-1,1.017349682E1
2.954079015E0,-2.931207791E-2,-1.016949654E1,-4.139583111E-1,1.017796053E1
2.956523651E0,-3.170489892E-2,-1.016471100E1,-4.139583111E-1,1.017318615E1
2.958969067E0,-1.495514158E-2,-1.016710377E1,-4.331009090E-1,1.017633525E1
2.961412869E0,-1.495514158E-2,-1.015753174E1,-4.091726840E-1,1.016578069E1
2.963857557E0,-3.649054468E-2,-1.014796066E1,-3.996013701E-1,1.015589082E1
2.966302192E0,-3.649054468E-2,-1.017188931E1,-3.924229145E-1,1.017952157E1
2.968746724E0,-3.409772366E-2,-1.016231823E1,-3.828516304E-1,1.016958455E1
2.971192244E0,-1.016949583E-2,-1.015753174E1,-4.259224236E-1,1.016646273E1
2.973635994E0,-7.776673418E-3,-1.016471100E1,-4.235295951E-1,1.017353368E1
2.976080682E0,-2.452643216E-2,-1.017188931E1,-4.163511395E-1,1.018043623E1
2.978526099E0,-2.213360928E-2,-1.015753174E1,-4.187439680E-1,1.016618352E1
2.980969901E0,-2.931207791E-2,-1.017188931E1,-4.498506486E-1,1.018187394E1
2.983414536E0,-3.649054468E-2,-1.016949654E1,-4.354937077E-1,1.017888236E1
2.985859172E0,-3.888336942E-2,-1.015992451E1,-4.115654826E-1,1.016833143E1
2.988303807E0,-2.213360928E-2,-1.016710377E1,-4.139583111E-1,1.017555160E1
2.990749224E0,-4.127619043E-2,-1.015992451E1,-4.115654826E-1,1.016834086E1
2.993193026E0,-2.452643216E-2,-1.017188931E1,-3.876372576E-1,1.017930234E1
2.995637713E0,-2.931207791E-2,-1.015513897E1,-4.091726840E-1,1.016342113E1
2.998083130E0,-2.452643216E-2,-1.016471100E1,-4.163511395E-1,1.017326396E1
3.000526880E0,-2.931207791E-2,-1.017906761E1,-4.402793646E-1,1.018862712E1
3.002971567E0,-3.888336942E-2,-1.015992451E1,-4.235295951E-1,1.016882271E1
3.005416203E0,-1.974078640E-2,-1.015274620E1,-3.996013701E-1,1.016062628E1
3.007860838E0,-2.213360928E-2,-1.016710377E1,-4.043870270E-1,1.017516672E1
3.010306255E0,-2.452643216E-2,-1.016231823E1,-4.283152521E-1,1.017136998E1
3.012750005E0,-3.649054468E-2,-1.017428207E1,-4.043870270E-1,1.018238067E1
3.015194692E0,-3.649054468E-2,-1.016949654E1,-4.211367965E-1,1.017827822E1
3.017640109E0,-7.776673418E-3,-1.017667484E1,-4.354937077E-1,1.018599166E1
3.020083911E0,-1.734796353E-2,-1.017667484E1,-4.139583111E-1,1.018510546E1
3.022528599E0,-1.974078640E-2,-1.015992451E1,-4.139583111E-1,1.016837338E1
3.024973130E0,-7.776673418E-3,-1.015753174E1,-4.139583111E-1,1.016596641E1
3.027417817E0,-1.974078640E-2,-1.017428207E1,-4.019941986E-1,1.018223967E1
3.029863286E0,-2.452643216E-2,-1.016710377E1,-4.283152521E-1,1.017615126E1
3.032307036E0,-2.452643216E-2,-1.016710377E1,-4.163511395E-1,1.017565471E1
3.034751724E0,-2.691925503E-2,-1.015992451E1,-4.307080805E-1,1.016908551E1
3.037197140E0,-1.974078640E-2,-1.016231823E1,-4.139583111E-1,1.017076511E1
3.039640890E0,-3.649054468E-2,-1.014556789E1,-4.354937077E-1,1.015497584E1
3.042085578E0,-1.974078640E-2,-1.016710377E1,-4.115654826E-1,1.017544961E1
3.044530213E0,-1.495514158E-2,-1.016471100E1,-4.139583111E-1,1.017314773E1
3.046974849E0,-1.974078640E-2,-1.016471100E1,-4.235295951E-1,1.017354986E1
3.049420265E0,-2.213360928E-2,-1.018146038E1,-4.163511395E-1,1.018999380E1
3.051864067E0,-2.691925503E-2,-1.017667484E1,-4.187439680E-1,1.018532189E1
3.054308755E0,-2.931207791E-2,-1.015513897E1,-4.307080805E-1,1.016431090E1
3.056754172E0,-2.691925503E-2,-1.016231823E1,-4.259224236E-1,1.017127555E1
3.059197922E0,-1.734796353E-2,-1.016231823E1,-4.211367965E-1,1.017105545E1
3.061642609E0,-3.888336942E-2,-1.017188931E1,-4.091726840E-1,1.018018989E1
3.064087244E0,-3.649054468E-2,-1.017906761E1,-4.187439680E-1,1.018774241E1
3.066531776E0,-2.691925503E-2,-1.015035343E1,-4.235295951E-1,1.015922127E1
3.068977297E0,-2.213360928E-2,-1.015513897E1,-4.187439680E-1,1.016379279E1
3.071421047E0,-2.452643216E-2,-1.016710377E1,-4.307080805E-1,1.017625226E1
3.073865734E0,-7.776673418E-3,-1.018385315E1,-4.139583111E-1,1.019226604E1
3.076311151E0,-1.256231871E-2,-1.016949654E1,-4.139583111E-1,1.017792607E1
3.078754953E0,-3.888336942E-2,-1.015513897E1,-4.139583111E-1,1.016364703E1
3.081199640E0,-2.931207791E-2,-1.015992451E1,-4.426721931E-1,1.016960589E1
3.083644172E0,-7.776673418E-3,-1.015753174E1,-4.235295951E-1,1.016636065E1
3.086088859E0,-3.409772366E-2,-1.015992451E1,-4.187439680E-1,1.016860734E1
3.088534276E0,-2.213360928E-2,-1.016949654E1,-4.307080805E-1,1.017863739E1
3.090978078E0,-1.734796353E-2,-1.016471100E1,-4.354937077E-1,1.017405059E1
3.093422765E0,-3.170489892E-2,-1.016949654E1,-4.307080805E-1,1.017866270E1
3.095868182E0,-4.366901144E-2,-1.015992451E1,-4.139583111E-1,1.016844799E1
3.098311932E0,-1.734796353E-2,-1.016231823E1,-4.091726840E-1,1.017056710E1
3.100756619E0,-2.691925503E-2,-1.016710377E1,-4.043870270E-1,1.017517826E1
3.103201255E0,-2.213360928E-2,-1.015992451E1,-4.139583111E-1,1.016837831E1
3.105645890E0,-1.734796353E-2,-1.015513897E1,-4.067798555E-1,1.016329761E1
3.108091307E0,-3.170489892E-2,-1.016710377E1,-4.019941986E-1,1.017509723E1
3.110535057E0,-4.606183618E-2,-1.017188931E1,-3.996013701E-1,1.017983963E1
3.112979744E0,-2.452643216E-2,-1.015513897E1,-4.163511395E-1,1.016369998E1
3.115425161E0,-1.734796353E-2,-1.015753174E1,-4.067798555E-1,1.016568846E1
3.117868963E0,-2.213360928E-2,-1.017667484E1,-4.115654826E-1,1.018501777E1
3.120313651E0,-2.452643216E-2,-1.017667484E1,-4.091726840E-1,1.018492684E1
3.122758286E0,-1.734796353E-2,-1.016471100E1,-4.259224236E-1,1.017364539E1
3.125202817E0,-1.016949583E-2,-1.016471100E1,-4.235295951E-1,1.017353579E1
3.127648338E0,-3.409772366E-2,-1.016471100E1,-3.996013701E-1,1.017261980E1
3.130092088E0,-3.649054468E-2,-1.019342422E1,-4.019941986E-1,1.020141306E1
3.132536776E0,-3.888336942E-2,-1.018146038E1,-4.259224236E-1,1.019043951E1
3.134982192E0,-2.931207791E-2,-1.016949654E1,-4.235295951E-1,1.017835430E1
3.137425994E0,-1.256231871E-2,-1.016231823E1,-4.283152521E-1,1.017134817E1
3.139870630E0,-1.734796353E-2,-1.017906761E1,-4.211367965E-1,1.018779047E1
3.142315265E0,-1.974078640E-2,-1.016471100E1,-4.307080805E-1,1.017385123E1
3.144759901E0,-3.170489892E-2,-1.016471100E1,-4.307080805E-1,1.017388148E1
3.147205317E0,-2.691925503E-2,-1.016710377E1,-4.163511395E-1,1.017566076E1
3.149649119E0,-2.931207791E-2,-1.016471100E1,-4.163511395E-1,1.017327662E1
3.152093755E0,-4.366901144E-2,-1.014556789E1,-4.139583111E-1,1.015410342E1
3.154539224E0,-1.734796353E-2,-1.017188931E1,-4.019941986E-1,1.017984442E1
3.156982974E0,-3.649054468E-2,-1.016710377E1,-4.331009090E-1,1.017638968E1
3.159427661E0,-2.691925503E-2,-1.015035343E1,-4.331009090E-1,1.015962479E1
3.161872297E0,-3.409772366E-2,-1.016471100E1,-4.187439680E-1,1.017338974E1
3.164316932E0,-4.127619043E-2,-1.017188931E1,-4.163511395E-1,1.018049036E1
3.166762349E0,-1.734796353E-2,-1.016471100E1,-4.211367965E-1,1.017344616E1
3.169206099E0,-1.974078640E-2,-1.015992451E1,-4.115654826E-1,1.016827625E1
3.171650786E0,-2.931207791E-2,-1.018624592E1,-4.043870270E-1,1.019431184E1
3.174096203E0,-2.691925503E-2,-1.017428207E1,-4.402793646E-1,1.018383947E1
3.176540005E0,-2.213360928E-2,-1.016471100E1,-4.259224236E-1,1.017365468E1
3.178984692E0,-2.213360928E-2,-1.016710377E1,-4.091726840E-1,1.017535804E1
3.181429224E0,-2.691925503E-2,-1.014556789E1,-4.331009090E-1,1.015484362E1
3.183873911E0,-2.691925503E-2,-1.017667484E1,-4.354937077E-1,1.018602426E1
3.186319328E0,-2.213360928E-2,-1.015753174E1,-3.948157430E-1,1.016522604E1
3.188763130E0,-2.931207791E-2,-1.017188931E1,-4.235295951E-1,1.018074499E1
3.191207817E0,-4.366901144E-2,-1.015274620E1,-4.139583111E-1,1.016127570E1
3.193653234E0,-4.845465720E-2,-1.016471100E1,-4.163511395E-1,1.017334978E1
3.196096984E0,-2.452643216E-2,-1.015513897E1,-3.996013701E-1,1.016302761E1
3.198541672E0,-2.452643216E-2,-1.014796066E1,-4.187439680E-1,1.015662610E1
3.200986307E0,-2.931207791E-2,-1.015513897E1,-4.235295951E-1,1.016400925E1
3.203430942E0,-3.170489892E-2,-1.016949654E1,-4.187439680E-1,1.017816346E1
3.205876359E0,-2.213360928E-2,-1.018146038E1,-4.211367965E-1,1.019019046E1
3.208320161E0,-4.127619043E-2,-1.015513897E1,-4.115654826E-1,1.016355929E1
3.210764797E0,-3.409772366E-2,-1.018146038E1,-4.091726840E-1,1.018973603E1
3.213210213E0,-2.691925503E-2,-1.017428207E1,-4.115654826E-1,1.018263848E1
3.215654015E0,-3.409772366E-2,-1.016231823E1,-3.996013701E-1,1.017022889E1
3.218098703E0,-2.691925503E-2,-1.015992451E1,-4.139583111E-1,1.016838985E1
3.220543234E0,-1.256231871E-2,-1.014796066E1,-4.043870270E-1,1.015602246E1
3.222987922E0,-1.495514158E-2,-1.015035343E1,-4.115654826E-1,1.015870487E1
3.225433338E0,-2.991028363E-3,-1.015992451E1,-4.115654826E-1,1.016825752E1
3.227877140E0,-7.776673418E-3,-1.017188931E1,-3.924229145E-1,1.017945913E1
3.230321828E0,-2.931207791E-2,-1.016471100E1,-4.187439680E-1,1.017337483E1
3.232767244E0,-3.409772366E-2,-1.016231823E1,-3.924229145E-1,1.016994937E1
3.235210994E0,-2.213360928E-2,-1.015992451E1,-4.067798555E-1,1.016808860E1
3.237655682E0,-2.452643216E-2,-1.016231823E1,-4.211367965E-1,1.017107023E1
3.240100317E0,-2.931207791E-2,-1.015992451E1,-4.019941986E-1,1.016791643E1
3.242544953E0,-2.213360928E-2,-1.015992451E1,-4.331009090E-1,1.016917560E1
3.244990369E0,-4.366901144E-2,-1.016710377E1,-3.996013701E-1,1.017504729E1
3.247434172E0,-3.409772366E-2,-1.018385315E1,-4.211367965E-1,1.019261418E1
3.249878859E0,-1.495514158E-2,-1.017428207E1,-4.283152521E-1,1.018330464E1
3.252324276E0,-4.845465720E-2,-1.016471100E1,-4.235295951E-1,1.017364609E1
3.254768026E0,-1.974078640E-2,-1.015513897E1,-4.307080805E-1,1.016428781E1
3.257212713E0,-3.170489892E-2,-1.016710377E1,-4.187439680E-1,1.017577273E1
3.259657349E0,-1.495514158E-2,-1.014796066E1,-4.091726840E-1,1.015621738E1
3.262101984E0,-1.495514158E-2,-1.013838959E1,-4.187439680E-1,1.014704457E1
3.264547401E0,-1.016949583E-2,-1.015753174E1,-4.091726840E-1,1.016577477E1
3.266991151E0,-1.495514158E-2,-1.016471100E1,-4.211367965E-1,1.017344236E1
3.269435838E0,-2.691925503E-2,-1.014796066E1,-4.211367965E-1,1.015673109E1
3.271881255E0,-2.213360928E-2,-1.016231823E1,-4.139583111E-1,1.017077004E1
3.274325057E0,-1.974078640E-2,-1.016471100E1,-4.115654826E-1,1.017305881E1
3.276769692E0,-2.691925503E-2,-1.016710377E1,-4.259224236E-1,1.017605688E1
3.279214328E0,-4.366901144E-2,-1.016471100E1,-4.043870270E-1,1.017284550E1
3.281658963E0,-3.649054468E-2,-1.015753174E1,-4.139583111E-1,1.016602892E1
3.284104380E0,-5.383851007E-3,-1.016471100E1,-4.163511395E-1,1.017323581E1
3.286548182E0,-3.649054468E-2,-1.015753174E1,-4.043870270E-1,1.016564368E1
3.288992869E0,-1.974078640E-2,-1.016471100E1,-4.163511395E-1,1.017325354E1
3.291438286E0,-7.776673418E-3,-1.018146038E1,-4.283152521E-1,1.019046858E1
3.293882036E0,-1.974078640E-2,-1.015992451E1,-4.043870270E-1,1.016798823E1
3.296326724E0,-1.016949583E-2,-1.016231823E1,-4.139583111E-1,1.017075104E1
3.298771359E0,-2.452643216E-2,-1.015992451E1,-4.115654826E-1,1.016828666E1
3.301215994E0,-2.452643216E-2,-1.015274620E1,-4.259224236E-1,1.016170590E1
3.303661411E0,-1.974078640E-2,-1.013838959E1,-4.139583111E-1,1.014685639E1
3.306105161E0,-1.256231871E-2,-1.017428207E1,-4.163511395E-1,1.018280520E1
3.308549849E0,-1.734796353E-2,-1.014317513E1,-4.259224236E-1,1.015212847E1
3.310995265E0,-2.931207791E-2,-1.015992451E1,-4.354937077E-1,1.016929594E1
3.313439067E0,-1.974078640E-2,-1.020060253E1,-4.043870270E-1,1.020863412E1
3.315883755E0,-2.213360928E-2,-1.015274620E1,-4.163511395E-1,1.016130373E1
3.318328286E0,-4.606183618E-2,-1.017667484E1,-3.972085714E-1,1.018452783E1
3.320772974E0,-3.649054468E-2,-1.016471100E1,-4.091726840E-1,1.017300858E1
3.323218390E0,-3.888336942E-2,-1.016471100E1,-4.091726840E-1,1.017301744E1
3.325662192E0,-1.974078640E-2,-1.017906761E1,-4.187439680E-1,1.018769619E1
3.328106880E0,-2.452643216E-2,-1.014796066E1,-4.211367965E-1,1.015672503E1
3.330552297E0,-1.734796353E-2,-1.015035343E1,-4.163511395E-1,1.015890368E1
3.332996047E0,-3.888336942E-2,-1.017906761E1,-4.163511395E-1,1.018765320E1
3.335440734E0,-3.649054468E-2,-1.017667484E1,-3.996013701E-1,1.018458265E1
3.337885369E0,-2.213360928E-2,-1.015753174E1,-4.139583111E-1,1.016598753E1
3.340330005E0,-2.213360928E-2,-1.018146038E1,-4.091726840E-1,1.018970302E1
3.342775422E0,-1.256231871E-2,-1.018624592E1,-4.211367965E-1,1.019495561E1
3.345219172E0,-2.691925503E-2,-1.015992451E1,-4.043870270E-1,1.016800470E1
3.347663859E0,-2.691925503E-2,-1.015035343E1,-4.067798555E-1,1.015853677E1
3.350109276E0,-1.974078640E-2,-1.017188931E1,-4.067798555E-1,1.018003888E1
3.352553078E0,-1.734796353E-2,-1.018146038E1,-4.211367965E-1,1.019018119E1
3.354997765E0,-4.127619043E-2,-1.016949654E1,-3.972085714E-1,1.017733453E1
3.357442297E0,-4.366901144E-2,-1.016710377E1,-4.187439680E-1,1.017581704E1
3.359886984E0,-1.734796353E-2,-1.014317513E1,-4.211367965E-1,1.015192882E1
3.362332401E0,-2.213360928E-2,-1.016231823E1,-4.378865361E-1,1.017177203E1
3.364776203E0,-3.170489892E-2,-1.018624592E1,-4.235295951E-1,1.019509629E1
3.367220890E0,-1.495514158E-2,-1.017906761E1,-4.283152521E-1,1.018808594E1
3.369666307E0,-4.127619043E-2,-1.015753174E1,-4.187439680E-1,1.016624322E1
3.372110057E0,-2.213360928E-2,-1.016471100E1,-4.283152521E-1,1.017375513E1
3.374554744E0,-2.931207791E-2,-1.017188931E1,-4.163511395E-1,1.018044889E1
3.376999380E0,-3.888336942E-2,-1.015513897E1,-4.235295951E-1,1.016404136E1
3.379444015E0,-4.127619043E-2,-1.016471100E1,-4.235295951E-1,1.017361444E1
3.381889432E0,-3.409772366E-2,-1.016710377E1,-4.187439680E-1,1.017578047E1
3.384333234E0,-2.452643216E-2,-1.016710377E1,-4.259224236E-1,1.017605083E1
3.386777869E0,-1.974078640E-2,-1.017428207E1,-4.211367965E-1,1.018301339E1
3.389223286E0,-3.888336942E-2,-1.017667484E1,-4.091726840E-1,1.018497153E1
3.391667088E0,-3.649054468E-2,-1.013838959E1,-4.115654826E-1,1.014680546E1
3.394111776E0,-3.409772366E-2,-1.016949654E1,-4.139583111E-1,1.017797543E1
3.396556411E0,-2.691925503E-2,-1.016231823E1,-4.331009090E-1,1.017157868E1
3.399000942E0,-2.213360928E-2,-1.016949654E1,-4.091726840E-1,1.017774887E1
3.401446411E0,-2.213360928E-2,-1.015992451E1,-4.163511395E-1,1.016847600E1
3.403890213E0,-2.931207791E-2,-1.017428207E1,-4.235295951E-1,1.018313568E1
3.406334901E0,-1.495514158E-2,-1.017188931E1,-4.283152521E-1,1.018091399E1
3.408780317E0,-4.606183618E-2,-1.018146038E1,-4.307080805E-1,1.019067057E1
3.411224119E0,-5.324030295E-2,-1.017428207E1,-3.948157430E-1,1.018207885E1
3.413668755E0,-2.452643216E-2,-1.015513897E1,-4.259224236E-1,1.016409656E1
3.416113390E0,-4.127619043E-2,-1.015513897E1,-4.091726840E-1,1.016346267E1
3.418558026E0,-3.649054468E-2,-1.015753174E1,-4.187439680E-1,1.016622492E1
3.421003442E0,-5.563312769E-2,-1.018146038E1,-4.235295951E-1,1.019041745E1
3.423447244E0,-2.931207791E-2,-1.016710377E1,-4.019941986E-1,1.017509005E1
3.425891880E0,-2.691925503E-2,-1.015992451E1,-4.211367965E-1,1.016868462E1
3.428337349E0,-1.974078640E-2,-1.015035343E1,-4.259224236E-1,1.015930482E1
3.430781099E0,-2.931207791E-2,-1.015274620E1,-4.259224236E-1,1.016171858E1
3.433225786E0,-2.931207791E-2,-1.015274620E1,-3.996013701E-1,1.016064938E1
3.435670422E0,-3.888336942E-2,-1.015513897E1,-3.900300860E-1,1.016270057E1
3.438114953E0,-3.170489892E-2,-1.016710377E1,-4.115654826E-1,1.017547986E1
3.440560474E0,-2.452643216E-2,-1.016949654E1,-4.019941986E-1,1.017746828E1
3.443004224E0,-2.452643216E-2,-1.015513897E1,-4.019941986E-1,1.016312198E1
3.445448911E0,-1.974078640E-2,-1.017428207E1,-4.115654826E-1,1.018262204E1
3.447894328E0,-1.734796353E-2,-1.017188931E1,-3.972085714E-1,1.017965656E1
3.450338130E0,-4.366901144E-2,-1.014796066E1,-4.307080805E-1,1.015719066E1
3.452782817E0,-4.127619043E-2,-1.015992451E1,-4.259224236E-1,1.016893208E1
3.455227349E0,-4.127619043E-2,-1.017906761E1,-4.043870270E-1,1.018718067E1
3.457672036E0,-3.170489892E-2,-1.015274620E1,-4.067798555E-1,1.016094142E1
3.460117453E0,-3.409772366E-2,-1.016471100E1,-4.235295951E-1,1.017358785E1
3.462561255E0,-4.127619043E-2,-1.015753174E1,-4.187439680E-1,1.016624322E1
3.465005890E0,-2.931207791E-2,-1.016231823E1,-4.163511395E-1,1.017088586E1
3.467451359E0,-3.888336942E-2,-1.015513897E1,-4.019941986E-1,1.016316677E1
3.469895109E0,-1.974078640E-2,-1.017667484E1,-4.091726840E-1,1.018491644E1
3.472339797E0,-2.213360928E-2,-1.015753174E1,-4.354937077E-1,1.016688722E1
3.474784432E0,-3.170489892E-2,-1.016231823E1,-4.163511395E-1,1.017089304E1
3.477229067E0,-3.888336942E-2,-1.017667484E1,-4.019941986E-1,1.018468567E1
3.479674484E0,-3.649054468E-2,-1.016471100E1,-4.211367965E-1,1.017349682E1
3.482118234E0,-5.324030295E-2,-1.017428207E1,-4.091726840E-1,1.018264566E1
3.484562922E0,-3.409772366E-2,-1.016231823E1,-3.996013701E-1,1.017022889E1
3.487008338E0,-2.213360928E-2,-1.016471100E1,-4.211367965E-1,1.017345545E1
3.489452140E0,-2.213360928E-2,-1.015274620E1,-4.259224236E-1,1.016170041E1
3.491896828E0,-2.691925503E-2,-1.017428207E1,-4.283152521E-1,1.018332924E1
3.494341359E0,-2.931207791E-2,-1.017188931E1,-4.283152521E-1,1.018094520E1
3.496786047E0,-2.213360928E-2,-1.016471100E1,-4.043870270E-1,1.017277585E1
3.499231463E0,-1.495514158E-2,-1.017188931E1,-4.067798555E-1,1.018003072E1
3.501675265E0,-4.366901144E-2,-1.015992451E1,-4.211367965E-1,1.016874275E1
3.504119953E0,-2.213360928E-2,-1.017188931E1,-4.259224236E-1,1.018082668E1
3.506565369E0,-2.452643216E-2,-1.015992451E1,-4.115654826E-1,1.016828666E1
3.509009119E0,-2.691925503E-2,-1.016710377E1,-4.187439680E-1,1.017575895E1
3.511453807E0,-2.452643216E-2,-1.015035343E1,-4.163511395E-1,1.015891848E1
3.513898442E0,-4.366901144E-2,-1.016471100E1,-4.187439680E-1,1.017342632E1
3.516343078E0,-5.084748194E-2,-1.015513897E1,-4.115654826E-1,1.016360266E1
3.518788494E0,-2.691925503E-2,-1.016949654E1,-4.187439680E-1,1.017814968E1
3.521232244E0,-3.409772366E-2,-1.016231823E1,-4.139583111E-1,1.017080311E1
3.523676932E0,-1.734796353E-2,-1.015992451E1,-4.043870270E-1,1.016798386E1
3.526122349E0,-1.734796353E-2,-1.016471100E1,-4.043870270E-1,1.017276656E1
3.528566151E0,-2.213360928E-2,-1.016710377E1,-4.259224236E-1,1.017604534E1
3.531010838E0,-3.170489892E-2,-1.017188931E1,-4.139583111E-1,1.018035848E1
3.533455369E0,-4.366901144E-2,-1.015274620E1,-4.187439680E-1,1.016147179E1
3.535900057E0,-4.127619043E-2,-1.017667484E1,-4.450650215E-1,1.018648602E1
3.538345474E0,-3.409772366E-2,-1.017188931E1,-4.211367965E-1,1.018066063E1
3.540789276E0,-2.931207791E-2,-1.015513897E1,-3.996013701E-1,1.016304029E1
3.543233963E0,-2.213360928E-2,-1.014556789E1,-4.115654826E-1,1.015393638E1
3.545679380E0,-2.931207791E-2,-1.014317513E1,-4.211367965E-1,1.015195631E1
3.548123130E0,-1.974078640E-2,-1.017667484E1,-3.780659735E-1,1.018371418E1
3.550567817E0,-1.974078640E-2,-1.017667484E1,-4.307080805E-1,1.018580434E1
3.553012453E0,-1.974078640E-2,-1.017428207E1,-4.211367965E-1,1.018301339E1
3.555457088E0,-2.931207791E-2,-1.015513897E1,-4.043870270E-1,1.016322958E1
3.557902505E0,-1.256231871E-2,-1.016710377E1,-4.043870270E-1,1.017515040E1
3.560346255E0,-1.974078640E-2,-1.016710377E1,-4.211367965E-1,1.017584124E1
3.562790942E0,-4.366901144E-2,-1.018146038E1,-4.259224236E-1,1.019045889E1
3.565236359E0,-3.888336942E-2,-1.016710377E1,-4.331009090E-1,1.017639854E1
3.567680161E0,-4.845465720E-2,-1.017906761E1,-4.067798555E-1,1.018730755E1
3.570124849E0,-5.324030295E-2,-1.016231823E1,-4.187439680E-1,1.017108120E1
3.572569380E0,-1.495514158E-2,-1.016949654E1,-4.307080805E-1,1.017862431E1
3.575014067E0,-5.982056609E-4,-1.014556789E1,-4.115654826E-1,1.015391227E1
3.577459484E0,-2.452643216E-2,-1.017428207E1,-4.235295951E-1,1.018312303E1
3.579903286E0,-3.170489892E-2,-1.018863869E1,-4.283152521E-1,1.019768687E1
3.582347974E0,-4.127619043E-2,-1.015513897E1,-4.331009090E-1,1.016445412E1
3.584793390E0,-3.170489892E-2,-1.016710377E1,-4.091726840E-1,1.017538336E1
3.587237140E0,-2.931207791E-2,-1.015035343E1,-3.972085714E-1,1.015816463E1
3.589681828E0,-2.691925503E-2,-1.017188931E1,-3.924229145E-1,1.017949176E1
3.592126463E0,-3.409772366E-2,-1.015753174E1,-4.235295951E-1,1.016641485E1
3.594571099E0,-2.691925503E-2,-1.017667484E1,-3.924229145E-1,1.018427372E1
3.597016515E0,-2.691925503E-2,-1.016949654E1,-4.091726840E-1,1.017776040E1
3.599460265E0,-2.691925503E-2,-1.015753174E1,-4.235295951E-1,1.016639331E1
3.601904953E0,-1.495514158E-2,-1.016471100E1,-4.115654826E-1,1.017305065E1
3.604350369E0,-3.649054468E-2,-1.015035343E1,-4.187439680E-1,1.015905275E1
3.606794172E0,-2.691925503E-2,-1.016471100E1,-4.115654826E-1,1.017307527E1
3.609238859E0,-2.452643216E-2,-1.017428207E1,-4.043870270E-1,1.018234482E1
3.611683390E0,-2.213360928E-2,-1.017188931E1,-3.996013701E-1,1.017975949E1
3.614128078E0,-4.366901144E-2,-1.014556789E1,-4.163511395E-1,1.015420126E1
3.616573494E0,-3.170489892E-2,-1.016710377E1,-4.307080805E-1,1.017627209E1
3.619017297E0,-2.452643216E-2,-1.015753174E1,-4.211367965E-1,1.016628786E1
3.621461984E0,-3.649054468E-2,-1.017906761E1,-4.259224236E-1,1.018803999E1
3.623907401E0,-3.170489892E-2,-1.016949654E1,-4.139583111E-1,1.017796770E1
3.626351151E0,-4.127619043E-2,-1.016710377E1,-4.235295951E-1,1.017600511E1
3.628795838E0,-5.383851007E-3,-1.015753174E1,-4.235295951E-1,1.016635910E1
3.631240474E0,-1.495514158E-2,-1.015992451E1,-4.235295951E-1,1.016875936E1
3.633685109E0,-1.974078640E-2,-1.016471100E1,-4.043870270E-1,1.017277092E1
3.636130526E0,-2.452643216E-2,-1.018863869E1,-4.331009090E-1,1.019786920E1
3.638574276E0,-3.649054468E-2,-1.017188931E1,-4.067798555E-1,1.018008514E1
3.641018963E0,-3.649054468E-2,-1.017188931E1,-3.996013701E-1,1.017980083E1
3.643464380E0,-7.776673418E-3,-1.016710377E1,-3.924229145E-1,1.017467716E1
3.645908182E0,-2.213360928E-2,-1.017188931E1,-4.235295951E-1,1.018072685E1
3.648352869E0,-2.213360928E-2,-1.015513897E1,-4.067798555E-1,1.016330690E1
3.650797401E0,-3.170489892E-2,-1.017667484E1,-4.211367965E-1,1.018543432E1
3.653242088E0,-2.691925503E-2,-1.015513897E1,-4.187439680E-1,1.016380434E1
3.655687505E0,-3.409772366E-2,-1.016710377E1,-4.354937077E-1,1.017648350E1
3.658131307E0,-3.649054468E-2,-1.017906761E1,-4.378865361E-1,1.018854718E1
3.660575994E0,-2.213360928E-2,-1.016949654E1,-4.091726840E-1,1.017774887E1
3.663021411E0,-1.256231871E-2,-1.016710377E1,-4.115654826E-1,1.017543822E1
3.665465161E0,-2.691925503E-2,-1.016231823E1,-4.163511395E-1,1.017087925E1
3.667909849E0,-2.213360928E-2,-1.016231823E1,-3.996013701E-1,1.017019582E1
3.670354484E0,-2.691925503E-2,-1.017667484E1,-4.091726840E-1,1.018493288E1
3.672799119E0,-5.383851007E-3,-1.016710377E1,-4.307080805E-1,1.017622413E1
3.675244536E0,-4.127619043E-2,-1.016710377E1,-4.139583111E-1,1.017561125E1
3.677688286E0,-1.974078640E-2,-1.018863869E1,-4.187439680E-1,1.019725917E1
3.680132974E0,-3.649054468E-2,-1.018624592E1,-4.331009090E-1,1.019551440E1
3.682578390E0,-4.127619043E-2,-1.017428207E1,-3.900300860E-1,1.018183888E1
3.685022192E0,-2.213360928E-2,-1.016471100E1,-4.043870270E-1,1.017277585E1
3.687466880E0,-3.409772366E-2,-1.016949654E1,-3.924229145E-1,1.017712229E1
3.689911411E0,-2.991028363E-3,-1.015992451E1,-4.115654826E-1,1.016825752E1
3.692356099E0,-3.170489892E-2,-1.018385315E1,-4.163511395E-1,1.019240984E1
3.694801515E0,-1.016949583E-2,-1.017428207E1,-3.924229145E-1,1.018185223E1
3.697245317E0,-3.170489892E-2,-1.016471100E1,-3.972085714E-1,1.017251835E1
3.699690005E0,-1.734796353E-2,-1.017428207E1,-4.139583111E-1,1.018271468E1
3.702135422E0,-2.991028363E-3,-1.017667484E1,-4.163511395E-1,1.018518866E1
3.704579172E0,-3.649054468E-2,-1.016471100E1,-4.331009090E-1,1.017399910E1
3.707023859E0,-3.409772366E-2,-1.017667484E1,-4.163511395E-1,1.018524530E1
3.709468494E0,-1.734796353E-2,-1.017906761E1,-4.259224236E-1,1.018798941E1
3.711913130E0,-3.409772366E-2,-1.017188931E1,-4.211367965E-1,1.018066063E1
3.714358547E0,-3.649054468E-2,-1.016471100E1,-4.091726840E-1,1.017300858E1
3.716802297E0,-3.888336942E-2,-1.016710377E1,-3.876372576E-1,1.017456503E1
3.719246984E0,-2.931207791E-2,-1.017667484E1,-4.235295951E-1,1.018552637E1
3.721692401E0,-3.409772366E-2,-1.016471100E1,-4.283152521E-1,1.017378820E1
3.724136203E0,-1.974078640E-2,-1.016710377E1,-4.259224236E-1,1.017604042E1
3.726580890E0,-7.776673418E-3,-1.016710377E1,-4.259224236E-1,1.017602424E1
3.729025526E0,-2.452643216E-2,-1.015513897E1,-4.067798555E-1,1.016331240E1
3.731470057E0,-2.691925503E-2,-1.016231823E1,-4.259224236E-1,1.017127555E1
3.733915526E0,-1.974078640E-2,-1.016471100E1,-4.259224236E-1,1.017364975E1
3.736359328E0,-2.213360928E-2,-1.015513897E1,-4.187439680E-1,1.016379279E1
3.738804015E0,-2.691925503E-2,-1.016471100E1,-4.067798555E-1,1.017288279E1
3.741249432E0,-2.931207791E-2,-1.017906761E1,-4.067798555E-1,1.018723449E1
3.743693182E0,-2.691925503E-2,-1.015753174E1,-4.163511395E-1,1.016609679E1
3.746137869E0,-3.170489892E-2,-1.016710377E1,-4.283152521E-1,1.017617110E1
3.748582505E0,-3.649054468E-2,-1.015992451E1,-3.972085714E-1,1.016775158E1
3.751027140E0,-5.084748194E-2,-1.015992451E1,-4.139583111E-1,1.016848135E1
3.753472557E0,-4.845465720E-2,-1.015992451E1,-4.283152521E-1,1.016906425E1
3.755916307E0,-3.170489892E-2,-1.015513897E1,-4.043870270E-1,1.016323677E1
3.758360994E0,-1.974078640E-2,-1.015513897E1,-4.163511395E-1,1.016368956E1
3.760806411E0,-1.734796353E-2,-1.016710377E1,-4.235295951E-1,1.017593619E1
3.763250213E0,-2.691925503E-2,-1.017188931E1,-4.235295951E-1,1.018073838E1
3.765694901E0,-3.409772366E-2,-1.017428207E1,-4.043870270E-1,1.018237238E1
3.768139432E0,-3.170489892E-2,-1.016231823E1,-4.283152521E-1,1.017138982E1
3.770584119E0,-2.931207791E-2,-1.016471100E1,-4.259224236E-1,1.017367283E1
3.773029536E0,-1.495514158E-2,-1.015513897E1,-4.235295951E-1,1.016397798E1
3.775473338E0,-2.691925503E-2,-1.018385315E1,-4.307080805E-1,1.019299265E1
3.777918026E0,-3.170489892E-2,-1.015753174E1,-4.115654826E-1,1.016591572E1
3.780363442E0,-3.170489892E-2,-1.017188931E1,-3.924229145E-1,1.017950554E1
3.782807192E0,-2.691925503E-2,-1.018385315E1,-4.115654826E-1,1.019220171E1
3.785251880E0,-3.649054468E-2,-1.018863869E1,-4.211367965E-1,1.019740389E1
3.787696515E0,-3.649054468E-2,-1.016471100E1,-4.091726840E-1,1.017300858E1
3.790141151E0,-1.495514158E-2,-1.017188931E1,-4.402793646E-1,1.018142434E1
3.792586567E0,-3.888336942E-2,-1.015992451E1,-4.211367965E-1,1.016872333E1
3.795030317E0,-1.974078640E-2,-1.015992451E1,-4.115654826E-1,1.016827625E1
3.797475005E0,-1.974078640E-2,-1.016471100E1,-4.019941986E-1,1.017267608E1
3.799920422E0,-2.691925503E-2,-1.017667484E1,-4.115654826E-1,1.018502929E1
3.802364224E0,-2.931207791E-2,-1.017667484E1,-4.043870270E-1,1.018474835E1
3.804808911E0,-2.691925503E-2,-1.017188931E1,-4.307080805E-1,1.018103954E1
3.807253442E0,-4.845465720E-2,-1.016949654E1,-4.163511395E-1,1.017813126E1
3.809698130E0,-1.974078640E-2,-1.015274620E1,-4.067798555E-1,1.016091113E1
3.812143547E0,-3.170489892E-2,-1.013360405E1,-4.211367965E-1,1.014240072E1
3.814587349E0,-1.974078640E-2,-1.017428207E1,-4.139583111E-1,1.018271903E1
3.817032036E0,-3.170489892E-2,-1.016949654E1,-4.091726840E-1,1.017777418E1
3.819477453E0,-1.734796353E-2,-1.016231823E1,-4.163511395E-1,1.017085842E1
3.821921203E0,-1.974078640E-2,-1.018146038E1,-4.043870270E-1,1.018950706E1
3.824365890E0,-2.691925503E-2,-1.015753174E1,-4.283152521E-1,1.016659381E1
3.826810526E0,-3.649054468E-2,-1.018385315E1,-4.187439680E-1,1.019252388E1
3.829255161E0,-5.383851007E-3,-1.016949654E1,-4.091726840E-1,1.017772622E1
3.831700578E0,-2.213360928E-2,-1.016949654E1,-4.067798555E-1,1.017765295E1
3.834144328E0,-2.931207791E-2,-1.015513897E1,-4.187439680E-1,1.016381096E1
3.836589015E0,-2.452643216E-2,-1.016471100E1,-4.426721931E-1,1.017437516E1
3.839034432E0,-1.734796353E-2,-1.016231823E1,-4.067798555E-1,1.017047111E1
3.841478234E0,-2.691925503E-2,-1.018385315E1,-4.163511395E-1,1.019239608E1
3.843922922E0,-2.452643216E-2,-1.015274620E1,-4.043870270E-1,1.016082604E1
3.846367453E0,-1.974078640E-2,-1.015274620E1,-4.283152521E-1,1.016179606E1
3.848812140E0,-2.452643216E-2,-1.016949654E1,-4.211367965E-1,1.017824236E1
3.851257557E0,-1.974078640E-2,-1.015753174E1,-4.115654826E-1,1.016588544E1
3.853701359E0,-4.366901144E-2,-1.016710377E1,-4.115654826E-1,1.017552417E1
3.856146047E0,-2.691925503E-2,-1.017667484E1,-4.139583111E-1,1.018512626E1
3.858591463E0,-3.649054468E-2,-1.017188931E1,-4.235295951E-1,1.018076819E1
3.861035213E0,-3.649054468E-2,-1.017906761E1,-4.043870270E-1,1.018716241E1
3.863479901E0,-1.495514158E-2,-1.016471100E1,-4.187439680E-1,1.017334359E1
3.865924536E0,-2.931207791E-2,-1.017188931E1,-4.163511395E-1,1.018044889E1
3.868369172E0,-1.256231871E-2,-1.017188931E1,-4.187439680E-1,1.018051258E1
3.870814588E0,-2.452643216E-2,-1.015992451E1,-4.163511395E-1,1.016848149E1
3.873258338E0,-3.888336942E-2,-1.018146038E1,-4.091726840E-1,1.018975317E1
3.875703026E0,-3.649054468E-2,-1.016710377E1,-4.043870270E-1,1.017520808E1
3.878148442E0,-2.691925503E-2,-1.015513897E1,-4.163511395E-1,1.016370604E1
3.880592244E0,-3.409772366E-2,-1.015992451E1,-4.187439680E-1,1.016860734E1
3.883036880E0,-2.931207791E-2,-1.016949654E1,-4.091726840E-1,1.017776701E1
3.885481515E0,-2.691925503E-2,-1.017428207E1,-4.211367965E-1,1.018302983E1
3.887926151E0,-1.974078640E-2,-1.016710377E1,-4.091726840E-1,1.017535311E1
3.890371567E0,-3.888336942E-2,-1.015992451E1,-4.211367965E-1,1.016872333E1
3.892815369E0,-2.691925503E-2,-1.016949654E1,-4.043870270E-1,1.017756913E1
3.895260057E0,-2.931207791E-2,-1.015274620E1,-4.187439680E-1,1.016142023E1
3.897705474E0,-1.974078640E-2,-1.015992451E1,-4.115654826E-1,1.016827625E1
3.900149224E0,-1.256231871E-2,-1.015992451E1,-4.115654826E-1,1.016826484E1
3.902593911E0,-2.691925503E-2,-1.016710377E1,-4.187439680E-1,1.017575895E1
3.905038547E0,-3.649054468E-2,-1.014556789E1,-3.948157430E-1,1.015331271E1
3.907483182E0,-2.931207791E-2,-1.015992451E1,-4.091726840E-1,1.016820277E1
3.909928599E0,-3.170489892E-2,-1.017428207E1,-4.354937077E-1,1.018364746E1
3.912372349E0,-3.170489892E-2,-1.018146038E1,-4.187439680E-1,1.019011713E1
3.914817036E0,-2.452643216E-2,-1.017188931E1,-4.235295951E-1,1.018073234E1
3.917262453E0,-2.931207791E-2,-1.017428207E1,-4.331009090E-1,1.018353825E1
3.919706255E0,-3.170489892E-2,-1.014556789E1,-4.331009090E-1,1.015485743E1
