"Time (s)","Acceleration x (m/s^2)","Acceleration y (m/s^2)","Acceleration z (m/s^2)"
2.431417800E-2,-2.578266263E-1,-9.810572863E-2,9.950253487E0
2.673949000E-2,-2.195414752E-1,-1.052841991E-1,9.947860718E0
2.916370900E-2,-2.506481707E-1,-9.092725813E-2,9.943075180E0
3.158782300E-2,-2.362912297E-1,-1.100698411E-1,9.902397156E0
3.401162500E-2,-2.315055877E-1,-1.076770201E-1,9.916754723E0
3.643584400E-2,-2.291127741E-1,-1.052841991E-1,9.904789925E0
3.885969800E-2,-2.291127741E-1,-8.853443712E-2,9.868897438E0
4.128521900E-2,-2.291127741E-1,-1.316052526E-1,9.816255569E0
4.371074000E-2,-2.362912297E-1,-9.810572863E-2,9.837791443E0
4.613568800E-2,-2.315055877E-1,-9.810572863E-2,9.844969749E0
4.856016700E-2,-2.721835673E-1,-7.896314561E-2,9.833005905E0
5.098464600E-2,-2.458625287E-1,-8.135596663E-2,9.828220367E0
5.345761500E-2,-2.386840582E-1,-1.220339537E-1,9.840184212E0
5.593162500E-2,-2.434697002E-1,-9.092725813E-2,9.833005905E0
5.836396900E-2,-2.386840582E-1,-9.571290761E-2,9.818648338E0
6.078938600E-2,-2.434697002E-1,-1.124626622E-1,9.823433876E0
6.321490700E-2,-2.195414752E-1,-8.374879509E-2,9.849755287E0
6.564037500E-2,-2.195414752E-1,-1.028913707E-1,9.852148056E0
6.806589600E-2,-2.626122832E-1,-1.004985496E-1,9.880862236E0
7.049146900E-2,-2.410768867E-1,-9.092725813E-2,9.883255005E0
7.291709400E-2,-2.315055877E-1,-1.124626622E-1,9.892826080E0
7.534277100E-2,-2.219343036E-1,-1.100698411E-1,9.880862236E0
7.776860500E-2,-2.267199457E-1,-1.076770201E-1,9.878469467E0
8.019449000E-2,-2.267199457E-1,-1.363908947E-1,9.883255005E0
8.262277100E-2,-2.458625287E-1,-1.076770201E-1,9.876076698E0
8.504636500E-2,-2.530409992E-1,-1.052841991E-1,9.876076698E0
8.747230300E-2,-2.099701911E-1,-1.172483116E-1,9.856933594E0
8.989824000E-2,-2.338984162E-1,-1.004985496E-1,9.864111900E0
9.232417800E-2,-2.386840582E-1,-8.374879509E-2,9.864111900E0
9.475011500E-2,-2.315055877E-1,-9.810572863E-2,9.876076698E0
9.717605300E-2,-2.458625287E-1,-1.100698411E-1,9.885647774E0
9.960199000E-2,-2.386840582E-1,-1.076770201E-1,9.859326363E0
1.020279280E-1,-2.602194548E-1,-1.076770201E-1,9.856933594E0
1.044538650E-1,-2.386840582E-1,-1.268195957E-1,9.864111900E0
1.068798030E-1,-2.195414752E-1,-1.052841991E-1,9.878469467E0
1.093057400E-1,-2.362912297E-1,-6.939185411E-2,9.842576981E0
1.117316250E-1,-2.386840582E-1,-8.614161611E-2,9.849755287E0
1.141576150E-1,-2.578266263E-1,-7.896314561E-2,9.859326363E0
1.165835000E-1,-2.458625287E-1,-8.135596663E-2,9.854540825E0
1.190094380E-1,-2.243271172E-1,-9.092725813E-2,9.864111900E0
1.214353750E-1,-2.291127741E-1,-1.076770201E-1,9.849755287E0
1.238613130E-1,-2.291127741E-1,-1.052841991E-1,9.864111900E0
1.262872500E-1,-2.338984162E-1,-9.810572863E-2,9.868897438E0
1.287131880E-1,-2.386840582E-1,-1.004985496E-1,9.861719131E0
1.311391250E-1,-2.291127741E-1,-1.124626622E-1,9.892826080E0
1.335650630E-1,-2.171486616E-1,-9.810572863E-2,9.878469467E0
1.359910000E-1,-2.386840582E-1,-1.004985496E-1,9.871291161E0
1.384169380E-1,-2.434697002E-1,-1.100698411E-1,9.878469467E0
1.408428750E-1,-2.673979402E-1,-1.172483116E-1,9.868897438E0
1.432688130E-1,-2.362912297E-1,-1.028913707E-1,9.859326363E0
1.456947500E-1,-2.482553422E-1,-1.028913707E-1,9.847362518E0
1.481206880E-1,-2.291127741E-1,-1.004985496E-1,9.859326363E0
1.505466250E-1,-2.530409992E-1,-7.896314561E-2,9.868897438E0
1.529725630E-1,-2.458625287E-1,-1.028913707E-1,9.861719131E0
1.553978230E-1,-2.458625287E-1,-1.004985496E-1,9.856933594E0
1.578244380E-1,-2.530409992E-1,-8.853443712E-2,9.868897438E0
1.602503750E-1,-2.386840582E-1,-1.124626622E-1,9.880862236E0
1.626763130E-1,-2.219343036E-1,-1.124626622E-1,9.868897438E0
1.651022500E-1,-2.362912297E-1,-9.092725813E-2,9.885647774E0
1.675281880E-1,-2.554338276E-1,-1.028913707E-1,9.883255005E0
1.699541250E-1,-2.578266263E-1,-9.571290761E-2,9.866504669E0
1.723800110E-1,-2.434697002E-1,-1.100698411E-1,9.873683929E0
1.748059480E-1,-2.362912297E-1,-1.124626622E-1,9.878469467E0
1.772318860E-1,-2.434697002E-1,-1.196411327E-1,9.868897438E0
1.796578230E-1,-2.267199457E-1,-1.028913707E-1,9.880862236E0
1.820837610E-1,-2.195414752E-1,-9.571290761E-2,9.861719131E0
1.845096980E-1,-2.243271172E-1,-8.614161611E-2,9.856933594E0
1.869356360E-1,-2.219343036E-1,-9.810572863E-2,9.847362518E0
1.893615730E-1,-2.362912297E-1,-1.028913707E-1,9.861719131E0
1.917875110E-1,-2.315055877E-1,-1.100698411E-1,9.873683929E0
1.942134480E-1,-2.458625287E-1,-9.092725813E-2,9.876076698E0
1.966393860E-1,-2.315055877E-1,-8.614161611E-2,9.873683929E0
1.990653230E-1,-2.386840582E-1,-1.076770201E-1,9.888040543E0
2.014912610E-1,-2.386840582E-1,-1.052841991E-1,9.861719131E0
2.039171980E-1,-2.171486616E-1,-9.810572863E-2,9.873683929E0
2.063431360E-1,-2.267199457E-1,-9.332008660E-2,9.878469467E0
2.087690730E-1,-2.482553422E-1,-8.853443712E-2,9.866504669E0
2.111950110E-1,-2.386840582E-1,-9.810572863E-2,9.876076698E0
2.136209480E-1,-2.434697002E-1,-1.004985496E-1,9.866504669E0
2.160468860E-1,-2.554338276E-1,-1.076770201E-1,9.856933594E0
2.184728230E-1,-2.482553422E-1,-1.052841991E-1,9.864111900E0
2.208987610E-1,-2.578266263E-1,-1.028913707E-1,9.878469467E0
2.233246980E-1,-2.386840582E-1,-1.028913707E-1,9.864111900E0
2.257506360E-1,-2.458625287E-1,-1.052841991E-1,9.871291161E0
2.281765730E-1,-2.386840582E-1,-1.076770201E-1,9.873683929E0
2.306025110E-1,-2.482553422E-1,-1.124626622E-1,9.864111900E0
2.330284480E-1,-2.219343036E-1,-9.810572863E-2,9.878469467E0
2.354543340E-1,-2.410768867E-1,-9.571290761E-2,9.861719131E0
2.378802710E-1,-2.506481707E-1,-9.092725813E-2,9.873683929E0
2.403062090E-1,-2.362912297E-1,-8.374879509E-2,9.868897438E0
2.427321460E-1,-2.458625287E-1,-1.387837082E-1,9.880862236E0
2.451580840E-1,-2.099701911E-1,-1.148554832E-1,9.861719131E0
2.475840210E-1,-2.386840582E-1,-1.124626622E-1,9.871291161E0
2.500099590E-1,-2.338984162E-1,-1.028913707E-1,9.852148056E0
2.524358960E-1,-2.650051117E-1,-1.052841991E-1,9.873683929E0
2.548618340E-1,-2.434697002E-1,-9.810572863E-2,9.854540825E0
2.572877710E-1,-2.434697002E-1,-1.028913707E-1,9.871291161E0
2.597137090E-1,-2.338984162E-1,-8.853443712E-2,9.866504669E0
2.621396460E-1,-2.673979402E-1,-1.004985496E-1,9.859326363E0
2.645655840E-1,-2.338984162E-1,-1.124626622E-1,9.876076698E0
2.669915210E-1,-2.410768867E-1,-8.853443712E-2,9.878469467E0
2.694174590E-1,-2.458625287E-1,-1.004985496E-1,9.864111900E0
2.718433960E-1,-2.410768867E-1,-1.124626622E-1,9.880862236E0
2.742693340E-1,-2.243271172E-1,-1.268195957E-1,9.878469467E0
2.766952710E-1,-2.362912297E-1,-1.244267747E-1,9.888040543E0
2.791212090E-1,-2.267199457E-1,-1.052841991E-1,9.856933594E0
2.815471460E-1,-2.315055877E-1,-1.076770201E-1,9.873683929E0
2.839730840E-1,-2.291127741E-1,-1.052841991E-1,9.871291161E0
2.863990210E-1,-2.410768867E-1,-1.028913707E-1,9.871291161E0
2.888249590E-1,-2.482553422E-1,-1.076770201E-1,9.861719131E0
2.912508960E-1,-2.267199457E-1,-8.374879509E-2,9.888040543E0
2.936768340E-1,-2.506481707E-1,-1.004985496E-1,9.864111900E0
2.961027710E-1,-2.338984162E-1,-1.148554832E-1,9.885647774E0
2.985287090E-1,-2.482553422E-1,-1.124626622E-1,9.873683929E0
3.009546460E-1,-2.386840582E-1,-9.332008660E-2,9.885647774E0
3.033805840E-1,-2.530409992E-1,-1.004985496E-1,9.873683929E0
3.058065210E-1,-2.434697002E-1,-1.076770201E-1,9.873683929E0
3.082324590E-1,-2.482553422E-1,-9.092725813E-2,9.864111900E0
3.106583960E-1,-2.578266263E-1,-1.196411327E-1,9.883255005E0
3.130843340E-1,-2.434697002E-1,-1.100698411E-1,9.864111900E0
3.155102190E-1,-2.530409992E-1,-9.571290761E-2,9.876076698E0
3.179361570E-1,-2.434697002E-1,-1.052841991E-1,9.880862236E0
3.203620940E-1,-2.410768867E-1,-1.028913707E-1,9.868897438E0
3.227880320E-1,-2.338984162E-1,-1.076770201E-1,9.880862236E0
3.252139690E-1,-2.410768867E-1,-9.571290761E-2,9.890433311E0
3.276399070E-1,-2.362912297E-1,-1.028913707E-1,9.854540825E0
3.300658440E-1,-2.267199457E-1,-8.853443712E-2,9.864111900E0
3.324917820E-1,-2.291127741E-1,-1.052841991E-1,9.883255005E0
3.349177190E-1,-2.123630047E-1,-1.100698411E-1,9.888040543E0
3.373436570E-1,-2.410768867E-1,-1.100698411E-1,9.856933594E0
3.397695940E-1,-2.506481707E-1,-1.076770201E-1,9.861719131E0
3.421955320E-1,-2.530409992E-1,-9.571290761E-2,9.876076698E0
3.446214690E-1,-2.386840582E-1,-9.810572863E-2,9.873683929E0
3.470474070E-1,-2.267199457E-1,-1.148554832E-1,9.859326363E0
3.494733440E-1,-2.338984162E-1,-9.810572863E-2,9.864111900E0
3.518992820E-1,-2.434697002E-1,-1.052841991E-1,9.868897438E0
3.543252190E-1,-2.291127741E-1,-1.196411327E-1,9.880862236E0
3.567511570E-1,-2.410768867E-1,-1.148554832E-1,9.871291161E0
3.591770940E-1,-2.338984162E-1,-1.124626622E-1,9.878469467E0
3.616030320E-1,-2.243271172E-1,-9.092725813E-2,9.868897438E0
3.640289690E-1,-2.458625287E-1,-9.571290761E-2,9.859326363E0
3.664549070E-1,-2.673979402E-1,-9.810572863E-2,9.878469467E0
3.688808440E-1,-2.458625287E-1,-8.614161611E-2,9.868897438E0
3.713067820E-1,-2.410768867E-1,-1.028913707E-1,9.859326363E0
3.737327190E-1,-2.506481707E-1,-1.052841991E-1,9.880862236E0
3.761586570E-1,-2.386840582E-1,-7.657032460E-2,9.883255005E0
3.785845940E-1,-2.673979402E-1,-1.052841991E-1,9.864111900E0
3.810105320E-1,-2.602194548E-1,-1.124626622E-1,9.871291161E0
3.834364690E-1,-2.578266263E-1,-1.172483116E-1,9.873683929E0
3.858624070E-1,-2.434697002E-1,-1.196411327E-1,9.873683929E0
3.882883440E-1,-2.243271172E-1,-1.052841991E-1,9.864111900E0
3.907142820E-1,-2.482553422E-1,-1.004985496E-1,9.883255005E0
3.931402190E-1,-2.386840582E-1,-1.004985496E-1,9.876076698E0
3.955661570E-1,-2.578266263E-1,-7.657032460E-2,9.876076698E0
3.979920940E-1,-2.386840582E-1,-1.244267747E-1,9.883255005E0
4.004179800E-1,-2.506481707E-1,-1.100698411E-1,9.864111900E0
4.028439170E-1,-2.195414752E-1,-1.268195957E-1,9.873683929E0
4.052698550E-1,-2.434697002E-1,-1.172483116E-1,9.885647774E0
4.076957920E-1,-2.410768867E-1,-1.124626622E-1,9.871291161E0
4.101217820E-1,-2.458625287E-1,-1.028913707E-1,9.876076698E0
4.125476670E-1,-2.626122832E-1,-1.148554832E-1,9.873683929E0
4.149736050E-1,-2.578266263E-1,-1.052841991E-1,9.888040543E0
4.173995420E-1,-2.171486616E-1,-8.853443712E-2,9.873683929E0
4.198254800E-1,-2.315055877E-1,-9.810572863E-2,9.873683929E0
4.222514170E-1,-2.482553422E-1,-9.092725813E-2,9.864111900E0
4.246773550E-1,-2.602194548E-1,-9.092725813E-2,9.892826080E0
4.271032920E-1,-2.386840582E-1,-1.052841991E-1,9.864111900E0
4.295292300E-1,-2.410768867E-1,-1.100698411E-1,9.873683929E0
4.319551670E-1,-2.482553422E-1,-9.810572863E-2,9.900004387E0
4.343811050E-1,-2.386840582E-1,-1.244267747E-1,9.866504669E0
4.368070420E-1,-2.338984162E-1,-1.244267747E-1,9.871291161E0
4.392329800E-1,-2.338984162E-1,-1.172483116E-1,9.873683929E0
4.416589170E-1,-2.386840582E-1,-1.268195957E-1,9.856933594E0
4.440848550E-1,-2.410768867E-1,-1.148554832E-1,9.871291161E0
4.465107920E-1,-2.315055877E-1,-1.172483116E-1,9.897611618E0
4.489367300E-1,-2.315055877E-1,-1.004985496E-1,9.873683929E0
4.513626670E-1,-2.434697002E-1,-1.100698411E-1,9.878469467E0
4.537886050E-1,-2.195414752E-1,-8.374879509E-2,9.895218849E0
4.562145420E-1,-2.434697002E-1,-9.571290761E-2,9.880862236E0
4.586404800E-1,-2.338984162E-1,-1.028913707E-1,9.866504669E0
4.610664170E-1,-2.291127741E-1,-9.810572863E-2,9.864111900E0
4.634923550E-1,-2.338984162E-1,-9.571290761E-2,9.876076698E0
4.659182920E-1,-2.434697002E-1,-1.148554832E-1,9.868897438E0
4.683442300E-1,-2.434697002E-1,-9.332008660E-2,9.866504669E0
4.707701670E-1,-2.315055877E-1,-9.571290761E-2,9.885647774E0
4.731961050E-1,-2.362912297E-1,-1.124626622E-1,9.859326363E0
4.756220420E-1,-2.267199457E-1,-1.124626622E-1,9.859326363E0
4.780479800E-1,-2.386840582E-1,-8.853443712E-2,9.878469467E0
4.804739170E-1,-2.362912297E-1,-1.124626622E-1,9.864111900E0
4.828998550E-1,-2.410768867E-1,-1.292124242E-1,9.878469467E0
4.853257920E-1,-2.482553422E-1,-1.100698411E-1,9.866504669E0
4.877517300E-1,-2.386840582E-1,-8.374879509E-2,9.873683929E0
4.901776670E-1,-2.530409992E-1,-1.004985496E-1,9.885647774E0
4.926036050E-1,-2.482553422E-1,-1.292124242E-1,9.876076698E0
4.950295420E-1,-2.386840582E-1,-1.004985496E-1,9.873683929E0
4.974554800E-1,-2.267199457E-1,-8.614161611E-2,9.871291161E0
4.998814170E-1,-2.410768867E-1,-9.332008660E-2,9.856933594E0
5.023073550E-1,-2.243271172E-1,-1.052841991E-1,9.864111900E0
5.047332920E-1,-2.291127741E-1,-1.004985496E-1,9.859326363E0
5.071592300E-1,-2.362912297E-1,-1.172483116E-1,9.880862236E0
5.095851670E-1,-2.482553422E-1,-1.124626622E-1,9.868897438E0
5.120111050E-1,-2.386840582E-1,-1.004985496E-1,9.866504669E0
5.144369900E-1,-2.386840582E-1,-1.172483116E-1,9.873683929E0
5.168629280E-1,-2.267199457E-1,-8.614161611E-2,9.885647774E0
5.192889170E-1,-2.410768867E-1,-1.196411327E-1,9.890433311E0
5.217148550E-1,-2.219343036E-1,-1.124626622E-1,9.880862236E0
5.241407920E-1,-2.362912297E-1,-8.135596663E-2,9.868897438E0
5.265666780E-1,-2.362912297E-1,-9.092725813E-2,9.892826080E0
5.289926150E-1,-2.410768867E-1,-1.196411327E-1,9.880862236E0
5.314185530E-1,-2.315055877E-1,-9.092725813E-2,9.878469467E0
5.338444900E-1,-2.315055877E-1,-1.148554832E-1,9.854540825E0
5.362704280E-1,-2.554338276E-1,-8.135596663E-2,9.873683929E0
5.386963650E-1,-2.291127741E-1,-1.148554832E-1,9.880862236E0
5.411223030E-1,-2.410768867E-1,-1.148554832E-1,9.880862236E0
5.435482400E-1,-2.410768867E-1,-1.004985496E-1,9.878469467E0
5.459741780E-1,-2.506481707E-1,-1.052841991E-1,9.883255005E0
5.484001150E-1,-2.434697002E-1,-9.571290761E-2,9.883255005E0
5.508260530E-1,-2.506481707E-1,-7.417750359E-2,9.861719131E0
5.532519900E-1,-2.482553422E-1,-1.028913707E-1,9.873683929E0
5.556779280E-1,-2.673979402E-1,-9.810572863E-2,9.859326363E0
5.581038650E-1,-2.458625287E-1,-1.004985496E-1,9.890433311E0
5.605298030E-1,-2.458625287E-1,-9.810572863E-2,9.880862236E0
5.629557400E-1,-2.554338276E-1,-9.571290761E-2,9.890433311E0
5.653816780E-1,-2.338984162E-1,-1.052841991E-1,9.861719131E0
5.678076150E-1,-2.362912297E-1,-9.571290761E-2,9.873683929E0
5.702335530E-1,-2.362912297E-1,-8.135596663E-2,9.880862236E0
5.726594900E-1,-2.530409992E-1,-1.148554832E-1,9.861719131E0
5.750854280E-1,-2.554338276E-1,-9.332008660E-2,9.883255005E0
5.775113650E-1,-2.147558331E-1,-1.076770201E-1,9.878469467E0
5.799373030E-1,-2.267199457E-1,-1.004985496E-1,9.876076698E0
5.823632400E-1,-2.410768867E-1,-1.148554832E-1,9.890433311E0
5.847891780E-1,-2.458625287E-1,-1.052841991E-1,9.880862236E0
5.872151150E-1,-2.291127741E-1,-9.092725813E-2,9.868897438E0
5.896410530E-1,-2.219343036E-1,-9.092725813E-2,9.864111900E0
5.920669900E-1,-2.434697002E-1,-1.076770201E-1,9.888040543E0
5.944929280E-1,-2.506481707E-1,-1.076770201E-1,9.854540825E0
5.969188650E-1,-2.530409992E-1,-1.076770201E-1,9.866504669E0
5.993448030E-1,-2.362912297E-1,-1.052841991E-1,9.880862236E0
6.017707400E-1,-2.338984162E-1,-1.028913707E-1,9.880862236E0
6.041966780E-1,-2.338984162E-1,-1.004985496E-1,9.892826080E0
6.066226150E-1,-2.386840582E-1,-9.810572863E-2,9.871291161E0
6.090485530E-1,-2.434697002E-1,-1.004985496E-1,9.873683929E0
6.114744900E-1,-2.458625287E-1,-1.028913707E-1,9.871291161E0
6.139004280E-1,-2.434697002E-1,-1.148554832E-1,9.871291161E0
6.163263650E-1,-2.362912297E-1,-1.124626622E-1,9.878469467E0
6.187523030E-1,-2.434697002E-1,-8.853443712E-2,9.885647774E0
6.211782400E-1,-2.386840582E-1,-1.076770201E-1,9.868897438E0
6.236041780E-1,-2.362912297E-1,-9.810572863E-2,9.878469467E0
6.260301150E-1,-2.697907388E-1,-1.076770201E-1,9.856933594E0
6.284560530E-1,-2.386840582E-1,-1.148554832E-1,9.854540825E0
6.308819900E-1,-2.482553422E-1,-1.268195957E-1,9.892826080E0
6.333079280E-1,-2.267199457E-1,-1.244267747E-1,9.888040543E0
6.357338650E-1,-2.362912297E-1,-9.332008660E-2,9.885647774E0
6.381598030E-1,-2.434697002E-1,-1.004985496E-1,9.876076698E0
6.405857400E-1,-2.530409992E-1,-7.657032460E-2,9.866504669E0
6.430116780E-1,-2.243271172E-1,-8.614161611E-2,9.861719131E0
6.454376150E-1,-2.554338276E-1,-1.196411327E-1,9.873683929E0
6.478635530E-1,-2.434697002E-1,-1.004985496E-1,9.859326363E0
6.502894900E-1,-2.338984162E-1,-1.004985496E-1,9.864111900E0
6.527154280E-1,-2.458625287E-1,-1.028913707E-1,9.885647774E0
6.551413650E-1,-2.434697002E-1,-9.571290761E-2,9.883255005E0
6.575673030E-1,-2.506481707E-1,-9.332008660E-2,9.900004387E0
6.599932400E-1,-2.291127741E-1,-1.244267747E-1,9.900004387E0
6.624191780E-1,-2.267199457E-1,-1.004985496E-1,9.878469467E0
6.648451150E-1,-2.171486616E-1,-1.076770201E-1,9.876076698E0
6.672710530E-1,-2.338984162E-1,-8.853443712E-2,9.868897438E0
6.696969900E-1,-2.434697002E-1,-1.148554832E-1,9.907182693E0
6.721229280E-1,-2.458625287E-1,-1.196411327E-1,9.892826080E0
6.745488650E-1,-2.315055877E-1,-1.076770201E-1,9.876076698E0
6.769748030E-1,-2.410768867E-1,-1.196411327E-1,9.873683929E0
6.794007400E-1,-2.362912297E-1,-9.092725813E-2,9.871291161E0
6.818266780E-1,-2.434697002E-1,-1.148554832E-1,9.859326363E0
6.842526150E-1,-2.386840582E-1,-1.076770201E-1,9.861719131E0
6.866785000E-1,-2.458625287E-1,-1.148554832E-1,9.883255005E0
6.891044900E-1,-2.626122832E-1,-1.052841991E-1,9.871291161E0
6.915304280E-1,-2.458625287E-1,-1.100698411E-1,9.871291161E0
6.939563650E-1,-2.530409992E-1,-1.076770201E-1,9.888040543E0
6.963823030E-1,-2.506481707E-1,-1.004985496E-1,9.883255005E0
6.988081880E-1,-2.362912297E-1,-9.092725813E-2,9.871291161E0
7.012341780E-1,-2.578266263E-1,-1.244267747E-1,9.873683929E0
7.036600630E-1,-2.650051117E-1,-1.100698411E-1,9.900004387E0
7.060860000E-1,-2.434697002E-1,-8.614161611E-2,9.878469467E0
7.085119380E-1,-2.458625287E-1,-1.052841991E-1,9.876076698E0
7.109378750E-1,-2.219343036E-1,-1.052841991E-1,9.861719131E0
7.133638130E-1,-2.578266263E-1,-9.092725813E-2,9.864111900E0
7.157897500E-1,-2.578266263E-1,-9.571290761E-2,9.883255005E0
7.182157400E-1,-2.482553422E-1,-9.810572863E-2,9.866504669E0
7.206416250E-1,-2.362912297E-1,-7.657032460E-2,9.873683929E0
7.230675630E-1,-2.434697002E-1,-9.092725813E-2,9.871291161E0
7.254935000E-1,-2.315055877E-1,-9.810572863E-2,9.883255005E0
7.279194380E-1,-2.291127741E-1,-1.076770201E-1,9.876076698E0
7.303453750E-1,-2.123630047E-1,-1.268195957E-1,9.866504669E0
7.327713130E-1,-2.530409992E-1,-1.244267747E-1,9.883255005E0
7.351972500E-1,-2.506481707E-1,-1.124626622E-1,9.871291161E0
7.376231880E-1,-2.506481707E-1,-1.076770201E-1,9.876076698E0
7.400491250E-1,-2.243271172E-1,-1.292124242E-1,9.890433311E0
7.424750630E-1,-2.195414752E-1,-1.052841991E-1,9.907182693E0
7.449010000E-1,-2.458625287E-1,-1.028913707E-1,9.892826080E0
7.473269380E-1,-2.506481707E-1,-1.076770201E-1,9.873683929E0
7.497528750E-1,-2.386840582E-1,-9.332008660E-2,9.888040543E0
7.521788130E-1,-2.482553422E-1,-1.148554832E-1,9.876076698E0
7.546047500E-1,-2.362912297E-1,-1.052841991E-1,9.871291161E0
7.570306880E-1,-2.243271172E-1,-1.196411327E-1,9.861719131E0
7.594566250E-1,-2.051845491E-1,-8.853443712E-2,9.878469467E0
7.618825630E-1,-2.195414752E-1,-1.028913707E-1,9.876076698E0
7.643085000E-1,-2.267199457E-1,-1.076770201E-1,9.892826080E0
7.667344380E-1,-2.458625287E-1,-9.332008660E-2,9.897611618E0
7.691603750E-1,-2.410768867E-1,-1.148554832E-1,9.871291161E0
7.715863130E-1,-2.458625287E-1,-9.571290761E-2,9.880862236E0
7.740122500E-1,-2.410768867E-1,-1.148554832E-1,9.880862236E0
7.764381880E-1,-2.506481707E-1,-1.052841991E-1,9.871291161E0
7.788641250E-1,-2.362912297E-1,-1.076770201E-1,9.866504669E0
7.812900630E-1,-2.506481707E-1,-1.028913707E-1,9.885647774E0
7.837160000E-1,-2.386840582E-1,-1.100698411E-1,9.890433311E0
7.861419380E-1,-2.410768867E-1,-8.374879509E-2,9.873683929E0
7.885678750E-1,-2.195414752E-1,-9.810572863E-2,9.878469467E0
7.909938130E-1,-2.362912297E-1,-9.092725813E-2,9.866504669E0
7.934197500E-1,-2.267199457E-1,-1.052841991E-1,9.871291161E0
7.958456880E-1,-2.243271172E-1,-8.614161611E-2,9.876076698E0
7.982716250E-1,-2.434697002E-1,-9.571290761E-2,9.864111900E0
8.006975630E-1,-2.195414752E-1,-1.028913707E-1,9.883255005E0
8.031235000E-1,-2.147558331E-1,-1.028913707E-1,9.890433311E0
8.055494380E-1,-2.267199457E-1,-1.076770201E-1,9.880862236E0
8.079753750E-1,-2.530409992E-1,-9.332008660E-2,9.876076698E0
8.104013130E-1,-2.315055877E-1,-1.004985496E-1,9.883255005E0
8.128272500E-1,-2.315055877E-1,-1.196411327E-1,9.892826080E0
8.152531880E-1,-2.315055877E-1,-1.052841991E-1,9.883255005E0
8.176791250E-1,-2.195414752E-1,-1.220339537E-1,9.890433311E0
8.201050630E-1,-2.291127741E-1,-1.100698411E-1,9.892826080E0
8.225310000E-1,-2.530409992E-1,-8.853443712E-2,9.885647774E0
8.249569380E-1,-2.315055877E-1,-1.124626622E-1,9.871291161E0
8.273828750E-1,-2.482553422E-1,-9.332008660E-2,9.892826080E0
8.298088130E-1,-2.554338276E-1,-1.028913707E-1,9.878469467E0
8.322347500E-1,-2.291127741E-1,-8.374879509E-2,9.876076698E0
8.346606880E-1,-2.099701911E-1,-1.052841991E-1,9.864111900E0
8.370866250E-1,-2.410768867E-1,-1.124626622E-1,9.854540825E0
8.395125630E-1,-2.482553422E-1,-9.092725813E-2,9.880862236E0
8.419385000E-1,-2.386840582E-1,-1.076770201E-1,9.876076698E0
8.443644380E-1,-2.602194548E-1,-1.028913707E-1,9.871291161E0
8.467903750E-1,-2.482553422E-1,-1.196411327E-1,9.885647774E0
8.492163130E-1,-2.506481707E-1,-1.028913707E-1,9.866504669E0
8.516422500E-1,-2.171486616E-1,-9.810572863E-2,9.871291161E0
8.540681880E-1,-2.315055877E-1,-1.220339537E-1,9.844969749E0
8.564941250E-1,-2.410768867E-1,-1.124626622E-1,9.871291161E0
8.589200630E-1,-2.554338276E-1,-9.571290761E-2,9.900004387E0
8.613460000E-1,-2.458625287E-1,-1.076770201E-1,9.868897438E0
8.637719380E-1,-2.530409992E-1,-9.092725813E-2,9.866504669E0
8.661978750E-1,-2.434697002E-1,-9.571290761E-2,9.890433311E0
8.686238130E-1,-2.243271172E-1,-1.172483116E-1,9.873683929E0
8.710497500E-1,-2.267199457E-1,-1.052841991E-1,9.892826080E0
8.734756880E-1,-2.243271172E-1,-1.124626622E-1,9.892826080E0
8.759016250E-1,-2.291127741E-1,-1.076770201E-1,9.897611618E0
8.783275630E-1,-2.147558331E-1,-1.196411327E-1,9.878469467E0
8.807535000E-1,-2.386840582E-1,-7.896314561E-2,9.892826080E0
8.831794380E-1,-2.386840582E-1,-9.571290761E-2,9.873683929E0
8.856053750E-1,-2.434697002E-1,-9.332008660E-2,9.878469467E0
8.880313130E-1,-2.650051117E-1,-1.076770201E-1,9.888040543E0
8.904572500E-1,-2.458625287E-1,-9.810572863E-2,9.888040543E0
8.928831880E-1,-2.171486616E-1,-1.028913707E-1,9.897611618E0
8.953091250E-1,-2.315055877E-1,-9.092725813E-2,9.876076698E0
8.977350630E-1,-2.315055877E-1,-1.028913707E-1,9.878469467E0
9.001610000E-1,-2.434697002E-1,-1.052841991E-1,9.880862236E0
9.025869380E-1,-2.386840582E-1,-1.124626622E-1,9.876076698E0
9.050128750E-1,-2.386840582E-1,-9.092725813E-2,9.868897438E0
9.074388130E-1,-2.362912297E-1,-1.004985496E-1,9.868897438E0
9.098647500E-1,-2.410768867E-1,-1.004985496E-1,9.873683929E0
9.122906880E-1,-2.338984162E-1,-9.332008660E-2,9.883255005E0
9.147166250E-1,-2.362912297E-1,-9.092725813E-2,9.871291161E0
9.171425630E-1,-2.386840582E-1,-1.028913707E-1,9.868897438E0
9.195685000E-1,-2.482553422E-1,-1.004985496E-1,9.883255005E0
9.219944380E-1,-2.243271172E-1,-1.052841991E-1,9.880862236E0
9.244203750E-1,-2.243271172E-1,-9.571290761E-2,9.880862236E0
9.268463130E-1,-2.338984162E-1,-9.810572863E-2,9.885647774E0
9.292722500E-1,-2.410768867E-1,-9.092725813E-2,9.888040543E0
9.316981880E-1,-2.291127741E-1,-1.124626622E-1,9.866504669E0
9.341241250E-1,-2.434697002E-1,-1.172483116E-1,9.866504669E0
9.365500630E-1,-2.338984162E-1,-1.148554832E-1,9.861719131E0
9.389760000E-1,-2.458625287E-1,-1.148554832E-1,9.876076698E0
9.414019380E-1,-2.434697002E-1,-1.124626622E-1,9.888040543E0
9.438278750E-1,-2.267199457E-1,-9.092725813E-2,9.878469467E0
9.462538130E-1,-2.386840582E-1,-1.004985496E-1,9.873683929E0
9.486797500E-1,-2.267199457E-1,-9.571290761E-2,9.885647774E0
9.511056880E-1,-2.195414752E-1,-9.571290761E-2,9.878469467E0
9.535316250E-1,-2.506481707E-1,-1.052841991E-1,9.871291161E0
9.559575630E-1,-2.506481707E-1,-1.148554832E-1,9.852148056E0
9.583835000E-1,-2.267199457E-1,-1.172483116E-1,9.883255005E0
9.608094380E-1,-2.267199457E-1,-9.810572863E-2,9.895218849E0
9.632353750E-1,-2.362912297E-1,-8.853443712E-2,9.876076698E0
9.656613130E-1,-2.673979402E-1,-1.100698411E-1,9.876076698E0
9.680872500E-1,-2.506481707E-1,-9.092725813E-2,9.866504669E0
9.705131880E-1,-2.530409992E-1,-1.172483116E-1,9.888040543E0
9.729391250E-1,-2.386840582E-1,-1.076770201E-1,9.876076698E0
9.753650630E-1,-2.434697002E-1,-1.172483116E-1,9.873683929E0
9.777910000E-1,-2.315055877E-1,-1.076770201E-1,9.888040543E0
9.802169380E-1,-2.386840582E-1,-1.076770201E-1,9.880862236E0
9.826428750E-1,-2.075773627E-1,-1.220339537E-1,9.880862236E0
9.850688130E-1,-2.482553422E-1,-1.124626622E-1,9.883255005E0
9.874947500E-1,-2.530409992E-1,-1.148554832E-1,9.871291161E0
9.899206880E-1,-2.434697002E-1,-9.810572863E-2,9.883255005E0
9.923466250E-1,-2.267199457E-1,-1.220339537E-1,9.871291161E0
9.947725630E-1,-2.554338276E-1,-1.292124242E-1,9.900004387E0
9.971985000E-1,-2.267199457E-1,-1.052841991E-1,9.876076698E0
9.996244380E-1,-2.291127741E-1,-8.374879509E-2,9.880862236E0
1.002050375E0,-2.410768867E-1,-9.810572863E-2,9.883255005E0
1.004476313E0,-2.458625287E-1,-1.076770201E-1,9.861719131E0
1.006902250E0,-2.123630047E-1,-1.028913707E-1,9.890433311E0
1.009328188E0,-2.243271172E-1,-1.172483116E-1,9.883255005E0
1.011754125E0,-2.506481707E-1,-9.571290761E-2,9.885647774E0
1.014180063E0,-2.386840582E-1,-9.571290761E-2,9.892826080E0
1.016606000E0,-2.434697002E-1,-9.332008660E-2,9.856933594E0
1.019031938E0,-2.554338276E-1,-9.810572863E-2,9.859326363E0
1.021457875E0,-2.626122832E-1,-1.004985496E-1,9.880862236E0
1.023883813E0,-2.434697002E-1,-8.853443712E-2,9.871291161E0
1.026309750E0,-2.386840582E-1,-9.092725813E-2,9.876076698E0
1.028735688E0,-2.219343036E-1,-1.124626622E-1,9.900004387E0
1.031161625E0,-2.410768867E-1,-9.571290761E-2,9.904789925E0
1.033587563E0,-2.554338276E-1,-1.004985496E-1,9.890433311E0
1.036013500E0,-2.195414752E-1,-1.172483116E-1,9.880862236E0
1.038439438E0,-2.099701911E-1,-1.172483116E-1,9.866504669E0
1.040865375E0,-2.434697002E-1,-1.148554832E-1,9.878469467E0
1.043291313E0,-2.243271172E-1,-9.571290761E-2,9.890433311E0
1.045717250E0,-2.267199457E-1,-8.614161611E-2,9.878469467E0
1.048143188E0,-2.410768867E-1,-8.135596663E-2,9.866504669E0
1.050569125E0,-2.530409992E-1,-1.100698411E-1,9.868897438E0
1.052995063E0,-2.602194548E-1,-1.028913707E-1,9.880862236E0
1.055421000E0,-2.243271172E-1,-9.092725813E-2,9.876076698E0
1.057846938E0,-2.530409992E-1,-1.076770201E-1,9.895218849E0
1.060272875E0,-2.243271172E-1,-1.148554832E-1,9.890433311E0
1.062698813E0,-2.338984162E-1,-1.244267747E-1,9.873683929E0
1.065124750E0,-2.458625287E-1,-1.100698411E-1,9.878469467E0
1.067550688E0,-2.530409992E-1,-1.124626622E-1,9.888040543E0
1.069976625E0,-2.410768867E-1,-1.220339537E-1,9.873683929E0
1.072402563E0,-2.506481707E-1,-1.028913707E-1,9.883255005E0
1.074828500E0,-2.338984162E-1,-1.076770201E-1,9.861719131E0
1.077254438E0,-2.410768867E-1,-1.244267747E-1,9.880862236E0
1.079680375E0,-2.219343036E-1,-1.100698411E-1,9.864111900E0
1.082106313E0,-2.458625287E-1,-9.571290761E-2,9.866504669E0
1.084532250E0,-2.554338276E-1,-9.571290761E-2,9.873683929E0
1.086958188E0,-2.338984162E-1,-1.052841991E-1,9.883255005E0
1.089384125E0,-2.506481707E-1,-1.076770201E-1,9.873683929E0
1.091810063E0,-2.410768867E-1,-1.244267747E-1,9.888040543E0
1.094236000E0,-2.554338276E-1,-9.810572863E-2,9.890433311E0
1.096661938E0,-2.315055877E-1,-8.374879509E-2,9.864111900E0
1.099087875E0,-2.291127741E-1,-9.332008660E-2,9.878469467E0
1.101513813E0,-2.291127741E-1,-9.810572863E-2,9.888040543E0
1.103939750E0,-2.123630047E-1,-9.092725813E-2,9.888040543E0
1.106365688E0,-2.243271172E-1,-8.374879509E-2,9.878469467E0
1.108791625E0,-2.458625287E-1,-9.810572863E-2,9.885647774E0
1.111217563E0,-2.243271172E-1,-9.092725813E-2,9.897611618E0
1.113643500E0,-2.482553422E-1,-8.853443712E-2,9.878469467E0
1.116069438E0,-2.291127741E-1,-8.135596663E-2,9.885647774E0
1.118495375E0,-2.267199457E-1,-1.124626622E-1,9.880862236E0
1.120921313E0,-2.386840582E-1,-1.244267747E-1,9.880862236E0
1.123347250E0,-2.315055877E-1,-1.148554832E-1,9.888040543E0
1.125773188E0,-2.530409992E-1,-1.076770201E-1,9.892826080E0
1.128199125E0,-2.362912297E-1,-1.124626622E-1,9.902397156E0
1.130625063E0,-2.291127741E-1,-1.052841991E-1,9.885647774E0
1.133051000E0,-2.315055877E-1,-1.052841991E-1,9.876076698E0
1.135476938E0,-2.291127741E-1,-1.196411327E-1,9.878469467E0
1.137902875E0,-2.458625287E-1,-9.332008660E-2,9.888040543E0
1.140328813E0,-2.386840582E-1,-9.571290761E-2,9.895218849E0
1.142754750E0,-2.458625287E-1,-1.148554832E-1,9.883255005E0
1.145180688E0,-2.578266263E-1,-1.004985496E-1,9.895218849E0
1.147606625E0,-2.362912297E-1,-1.052841991E-1,9.880862236E0
1.150032563E0,-2.243271172E-1,-1.220339537E-1,9.897611618E0
1.152458500E0,-2.482553422E-1,-1.148554832E-1,9.885647774E0
1.154884438E0,-2.362912297E-1,-1.100698411E-1,9.888040543E0
1.157310375E0,-2.434697002E-1,-1.004985496E-1,9.878469467E0
1.159736313E0,-2.291127741E-1,-1.052841991E-1,9.897611618E0
1.162162250E0,-2.362912297E-1,-9.810572863E-2,9.880862236E0
1.164588188E0,-2.482553422E-1,-1.052841991E-1,9.892826080E0
1.167014125E0,-2.410768867E-1,-9.092725813E-2,9.873683929E0
1.169440063E0,-2.506481707E-1,-1.004985496E-1,9.873683929E0
1.171866000E0,-2.554338276E-1,-1.100698411E-1,9.878469467E0
1.174291938E0,-2.458625287E-1,-9.810572863E-2,9.861719131E0
1.176717875E0,-2.267199457E-1,-8.135596663E-2,9.871291161E0
1.179143813E0,-2.386840582E-1,-1.052841991E-1,9.873683929E0
1.181569750E0,-2.315055877E-1,-1.004985496E-1,9.895218849E0
1.183995688E0,-2.434697002E-1,-1.220339537E-1,9.890433311E0
1.186421625E0,-2.506481707E-1,-1.004985496E-1,9.888040543E0
1.188847563E0,-2.386840582E-1,-1.196411327E-1,9.885647774E0
1.191273500E0,-2.315055877E-1,-9.810572863E-2,9.868897438E0
1.193699438E0,-2.315055877E-1,-1.028913707E-1,9.890433311E0
1.196125375E0,-2.386840582E-1,-1.124626622E-1,9.883255005E0
1.198551313E0,-2.315055877E-1,-1.100698411E-1,9.885647774E0
1.200977250E0,-2.267199457E-1,-1.316052526E-1,9.880862236E0
1.203403188E0,-2.195414752E-1,-1.148554832E-1,9.878469467E0
1.205829125E0,-2.315055877E-1,-9.571290761E-2,9.878469467E0
1.208255063E0,-2.386840582E-1,-8.614161611E-2,9.883255005E0
1.210681000E0,-2.291127741E-1,-1.124626622E-1,9.890433311E0
1.213106938E0,-2.530409992E-1,-1.196411327E-1,9.885647774E0
1.215532875E0,-2.315055877E-1,-1.244267747E-1,9.878469467E0
1.217958813E0,-2.410768867E-1,-1.004985496E-1,9.873683929E0
1.220384750E0,-2.482553422E-1,-8.853443712E-2,9.871291161E0
1.222810688E0,-2.243271172E-1,-1.100698411E-1,9.895218849E0
1.225236625E0,-2.267199457E-1,-1.100698411E-1,9.880862236E0
1.227662563E0,-2.410768867E-1,-1.004985496E-1,9.885647774E0
1.230088500E0,-2.434697002E-1,-1.028913707E-1,9.883255005E0
1.232514438E0,-2.434697002E-1,-1.148554832E-1,9.900004387E0
1.234940375E0,-2.362912297E-1,-1.004985496E-1,9.880862236E0
1.237366313E0,-2.195414752E-1,-1.028913707E-1,9.861719131E0
1.239792250E0,-2.195414752E-1,-9.571290761E-2,9.897611618E0
1.242218188E0,-2.195414752E-1,-1.028913707E-1,9.876076698E0
1.244644125E0,-2.386840582E-1,-8.135596663E-2,9.895218849E0
1.247070063E0,-2.362912297E-1,-1.028913707E-1,9.880862236E0
1.249496000E0,-2.506481707E-1,-8.853443712E-2,9.888040543E0
1.251921938E0,-2.506481707E-1,-9.571290761E-2,9.883255005E0
1.254347875E0,-2.482553422E-1,-9.092725813E-2,9.880862236E0
1.256773813E0,-2.410768867E-1,-1.172483116E-1,9.883255005E0
1.259199750E0,-2.243271172E-1,-1.028913707E-1,9.864111900E0
1.261625688E0,-2.530409992E-1,-1.100698411E-1,9.878469467E0
1.264051625E0,-2.386840582E-1,-9.092725813E-2,9.876076698E0
1.266477563E0,-2.650051117E-1,-9.332008660E-2,9.880862236E0
1.268903500E0,-2.673979402E-1,-9.571290761E-2,9.885647774E0
1.271329438E0,-2.434697002E-1,-1.052841991E-1,9.876076698E0
1.273755375E0,-2.769692242E-1,-9.571290761E-2,9.885647774E0
1.276181313E0,-2.673979402E-1,-9.810572863E-2,9.883255005E0
1.278607250E0,-2.602194548E-1,-1.052841991E-1,9.888040543E0
1.281033188E0,-2.434697002E-1,-9.810572863E-2,9.888040543E0
1.283459125E0,-2.458625287E-1,-1.028913707E-1,9.888040543E0
1.285885063E0,-2.482553422E-1,-1.052841991E-1,9.871291161E0
1.288311000E0,-2.386840582E-1,-1.028913707E-1,9.883255005E0
1.290736938E0,-2.386840582E-1,-1.172483116E-1,9.880862236E0
1.293162875E0,-2.410768867E-1,-1.052841991E-1,9.873683929E0
1.295588813E0,-2.386840582E-1,-9.810572863E-2,9.885647774E0
1.298014750E0,-2.482553422E-1,-1.244267747E-1,9.883255005E0
1.300440688E0,-2.362912297E-1,-7.417750359E-2,9.873683929E0
1.302866625E0,-2.291127741E-1,-1.004985496E-1,9.890433311E0
1.305292563E0,-2.315055877E-1,-1.292124242E-1,9.890433311E0
1.307718500E0,-2.315055877E-1,-1.028913707E-1,9.888040543E0
1.310144438E0,-2.219343036E-1,-1.004985496E-1,9.878469467E0
1.312570375E0,-2.434697002E-1,-1.028913707E-1,9.890433311E0
1.314996313E0,-2.554338276E-1,-1.052841991E-1,9.895218849E0
1.317422250E0,-2.410768867E-1,-8.853443712E-2,9.885647774E0
1.319848188E0,-2.362912297E-1,-1.004985496E-1,9.890433311E0
1.322274125E0,-2.267199457E-1,-1.220339537E-1,9.888040543E0
1.324700063E0,-2.315055877E-1,-1.124626622E-1,9.895218849E0
1.327126000E0,-2.243271172E-1,-9.571290761E-2,9.888040543E0
1.329551938E0,-2.506481707E-1,-8.374879509E-2,9.885647774E0
1.331977875E0,-2.315055877E-1,-1.148554832E-1,9.885647774E0
1.334403813E0,-2.338984162E-1,-1.100698411E-1,9.880862236E0
1.336829750E0,-2.362912297E-1,-1.052841991E-1,9.873683929E0
1.339255688E0,-2.195414752E-1,-1.028913707E-1,9.892826080E0
1.341681625E0,-2.650051117E-1,-1.028913707E-1,9.880862236E0
1.344107563E0,-2.362912297E-1,-1.100698411E-1,9.888040543E0
1.346533500E0,-2.410768867E-1,-1.004985496E-1,9.885647774E0
1.348959438E0,-2.530409992E-1,-1.148554832E-1,9.880862236E0
1.351385375E0,-2.219343036E-1,-1.004985496E-1,9.888040543E0
1.353811313E0,-2.362912297E-1,-9.332008660E-2,9.895218849E0
1.356237250E0,-2.554338276E-1,-9.571290761E-2,9.868897438E0
1.358663188E0,-2.458625287E-1,-1.076770201E-1,9.868897438E0
1.361089125E0,-2.458625287E-1,-9.092725813E-2,9.892826080E0
1.363515063E0,-2.410768867E-1,-1.028913707E-1,9.873683929E0
1.365941000E0,-2.458625287E-1,-1.100698411E-1,9.864111900E0
1.368366938E0,-2.362912297E-1,-1.148554832E-1,9.890433311E0
1.370792875E0,-2.602194548E-1,-1.028913707E-1,9.892826080E0
1.373218813E0,-2.554338276E-1,-9.810572863E-2,9.892826080E0
1.375644750E0,-2.410768867E-1,-9.571290761E-2,9.876076698E0
1.378070688E0,-2.434697002E-1,-1.148554832E-1,9.904789925E0
1.380496625E0,-2.386840582E-1,-1.052841991E-1,9.895218849E0
1.382922563E0,-2.267199457E-1,-1.052841991E-1,9.888040543E0
1.385348500E0,-2.315055877E-1,-1.268195957E-1,9.883255005E0
1.387774438E0,-2.315055877E-1,-9.571290761E-2,9.883255005E0
1.390200375E0,-2.386840582E-1,-1.076770201E-1,9.885647774E0
1.392626313E0,-2.386840582E-1,-1.052841991E-1,9.866504669E0
1.395052250E0,-2.434697002E-1,-1.052841991E-1,9.871291161E0
1.397478188E0,-2.362912297E-1,-1.052841991E-1,9.888040543E0
1.399904125E0,-2.362912297E-1,-9.332008660E-2,9.892826080E0
1.402330063E0,-2.338984162E-1,-8.614161611E-2,9.888040543E0
1.404756000E0,-2.578266263E-1,-1.076770201E-1,9.888040543E0
1.407181938E0,-2.482553422E-1,-1.004985496E-1,9.880862236E0
1.409607875E0,-2.386840582E-1,-9.571290761E-2,9.878469467E0
1.412033813E0,-2.506481707E-1,-1.148554832E-1,9.878469467E0
1.414459750E0,-2.506481707E-1,-9.571290761E-2,9.890433311E0
1.416885688E0,-2.554338276E-1,-1.100698411E-1,9.878469467E0
1.419311625E0,-2.578266263E-1,-1.148554832E-1,9.885647774E0
1.421737563E0,-2.482553422E-1,-1.100698411E-1,9.890433311E0
1.424163500E0,-2.626122832E-1,-1.052841991E-1,9.892826080E0
1.426589438E0,-2.554338276E-1,-1.172483116E-1,9.871291161E0
1.429015375E0,-2.362912297E-1,-1.028913707E-1,9.871291161E0
1.431441313E0,-2.458625287E-1,-1.220339537E-1,9.888040543E0
1.433867250E0,-2.291127741E-1,-1.148554832E-1,9.895218849E0
1.436293188E0,-2.410768867E-1,-9.810572863E-2,9.904789925E0
1.438719125E0,-2.410768867E-1,-1.244267747E-1,9.888040543E0
1.441145063E0,-2.315055877E-1,-9.810572863E-2,9.885647774E0
1.443571000E0,-2.267199457E-1,-1.004985496E-1,9.911968231E0
1.445996938E0,-2.243271172E-1,-9.571290761E-2,9.868897438E0
1.448422875E0,-2.338984162E-1,-1.076770201E-1,9.871291161E0
1.450848813E0,-2.338984162E-1,-1.124626622E-1,9.890433311E0
1.453274750E0,-2.434697002E-1,-1.148554832E-1,9.885647774E0
1.455700688E0,-2.602194548E-1,-1.196411327E-1,9.883255005E0
1.458126625E0,-2.338984162E-1,-1.004985496E-1,9.871291161E0
1.460552563E0,-2.506481707E-1,-1.052841991E-1,9.883255005E0
1.462978500E0,-2.362912297E-1,-1.172483116E-1,9.880862236E0
1.465404438E0,-2.267199457E-1,-1.316052526E-1,9.878469467E0
1.467830375E0,-2.267199457E-1,-1.052841991E-1,9.890433311E0
1.470256313E0,-2.362912297E-1,-9.092725813E-2,9.883255005E0
1.472682250E0,-2.530409992E-1,-1.100698411E-1,9.890433311E0
1.475108240E0,-2.458625287E-1,-1.028913707E-1,9.900004387E0
1.477534178E0,-2.243271172E-1,-1.052841991E-1,9.883255005E0
1.479960063E0,-2.386840582E-1,-9.571290761E-2,9.883255005E0
1.482386000E0,-2.315055877E-1,-9.332008660E-2,9.856933594E0
1.484811938E0,-2.291127741E-1,-1.028913707E-1,9.866504669E0
1.487237928E0,-2.362912297E-1,-9.092725813E-2,9.859326363E0
1.489663865E0,-2.315055877E-1,-1.148554832E-1,9.892826080E0
1.492089803E0,-2.195414752E-1,-8.853443712E-2,9.883255005E0
1.494515740E0,-2.482553422E-1,-1.004985496E-1,9.878469467E0
1.496941678E0,-2.410768867E-1,-1.100698411E-1,9.880862236E0
1.499367615E0,-2.267199457E-1,-1.028913707E-1,9.883255005E0
1.501793553E0,-2.291127741E-1,-1.076770201E-1,9.878469467E0
1.504219490E0,-2.243271172E-1,-1.148554832E-1,9.871291161E0
1.506645428E0,-2.147558331E-1,-9.810572863E-2,9.868897438E0
1.509071365E0,-2.291127741E-1,-1.076770201E-1,9.864111900E0
1.511497303E0,-2.315055877E-1,-1.076770201E-1,9.883255005E0
1.513923240E0,-2.338984162E-1,-1.052841991E-1,9.878469467E0
1.516349178E0,-2.362912297E-1,-1.028913707E-1,9.888040543E0
1.518775115E0,-2.338984162E-1,-1.292124242E-1,9.873683929E0
1.521201053E0,-2.434697002E-1,-1.196411327E-1,9.878469467E0
1.523626990E0,-2.410768867E-1,-9.810572863E-2,9.876076698E0
1.526052928E0,-2.195414752E-1,-9.810572863E-2,9.892826080E0
1.528478865E0,-2.458625287E-1,-1.100698411E-1,9.888040543E0
1.530904803E0,-2.458625287E-1,-1.196411327E-1,9.885647774E0
1.533330740E0,-2.338984162E-1,-1.148554832E-1,9.873683929E0
1.535756678E0,-2.267199457E-1,-1.172483116E-1,9.852148056E0
1.538182615E0,-2.338984162E-1,-1.052841991E-1,9.883255005E0
1.540608553E0,-2.291127741E-1,-1.100698411E-1,9.885647774E0
1.543034490E0,-2.219343036E-1,-1.148554832E-1,9.885647774E0
1.545460428E0,-2.338984162E-1,-1.172483116E-1,9.883255005E0
1.547886365E0,-2.386840582E-1,-1.124626622E-1,9.873683929E0
1.550312303E0,-2.578266263E-1,-9.092725813E-2,9.878469467E0
1.552738240E0,-2.386840582E-1,-9.810572863E-2,9.876076698E0
1.555164178E0,-2.530409992E-1,-8.853443712E-2,9.871291161E0
1.557590115E0,-2.530409992E-1,-9.332008660E-2,9.883255005E0
1.560016053E0,-2.291127741E-1,-9.092725813E-2,9.890433311E0
1.562441990E0,-2.434697002E-1,-9.571290761E-2,9.902397156E0
1.564867928E0,-2.386840582E-1,-1.076770201E-1,9.888040543E0
1.567293865E0,-2.554338276E-1,-1.124626622E-1,9.883255005E0
1.569719803E0,-2.530409992E-1,-8.374879509E-2,9.876076698E0
1.572145740E0,-2.338984162E-1,-1.028913707E-1,9.873683929E0
1.574571678E0,-2.650051117E-1,-1.220339537E-1,9.883255005E0
1.576997615E0,-2.291127741E-1,-1.076770201E-1,9.866504669E0
1.579423553E0,-2.602194548E-1,-9.332008660E-2,9.852148056E0
1.581849490E0,-2.362912297E-1,-1.028913707E-1,9.876076698E0
1.584275428E0,-2.458625287E-1,-1.028913707E-1,9.878469467E0
1.586701365E0,-2.386840582E-1,-1.052841991E-1,9.871291161E0
1.589127303E0,-2.243271172E-1,-1.052841991E-1,9.902397156E0
1.591553240E0,-2.338984162E-1,-1.220339537E-1,9.873683929E0
1.593979178E0,-2.219343036E-1,-1.004985496E-1,9.878469467E0
1.596405115E0,-2.267199457E-1,-9.810572863E-2,9.888040543E0
1.598831053E0,-2.410768867E-1,-1.076770201E-1,9.897611618E0
1.601256990E0,-2.506481707E-1,-1.076770201E-1,9.883255005E0
1.603682928E0,-2.315055877E-1,-1.196411327E-1,9.878469467E0
1.606108865E0,-2.482553422E-1,-1.148554832E-1,9.873683929E0
1.608534803E0,-2.362912297E-1,-1.076770201E-1,9.885647774E0
1.610960740E0,-2.267199457E-1,-9.332008660E-2,9.885647774E0
1.613386678E0,-2.362912297E-1,-1.004985496E-1,9.895218849E0
1.615812615E0,-2.315055877E-1,-9.810572863E-2,9.892826080E0
1.618238553E0,-2.291127741E-1,-1.124626622E-1,9.854540825E0
1.620664490E0,-2.195414752E-1,-9.092725813E-2,9.873683929E0
1.623090428E0,-2.315055877E-1,-1.172483116E-1,9.897611618E0
1.625516365E0,-2.530409992E-1,-1.172483116E-1,9.890433311E0
1.627942303E0,-2.530409992E-1,-1.100698411E-1,9.864111900E0
1.630368240E0,-2.315055877E-1,-1.148554832E-1,9.878469467E0
1.632794178E0,-2.243271172E-1,-1.004985496E-1,9.873683929E0
1.635220115E0,-2.315055877E-1,-1.148554832E-1,9.885647774E0
1.637646053E0,-2.315055877E-1,-1.028913707E-1,9.878469467E0
1.640071990E0,-2.267199457E-1,-1.052841991E-1,9.890433311E0
1.642497928E0,-2.195414752E-1,-1.148554832E-1,9.880862236E0
1.644923865E0,-2.434697002E-1,-1.100698411E-1,9.883255005E0
1.647349803E0,-2.697907388E-1,-1.316052526E-1,9.883255005E0
1.649775740E0,-2.291127741E-1,-1.148554832E-1,9.880862236E0
1.652201678E0,-2.267199457E-1,-1.196411327E-1,9.878469467E0
1.654627615E0,-2.315055877E-1,-9.810572863E-2,9.888040543E0
1.657053553E0,-2.410768867E-1,-9.810572863E-2,9.873683929E0
1.659479490E0,-2.386840582E-1,-1.100698411E-1,9.873683929E0
1.661905428E0,-2.434697002E-1,-1.028913707E-1,9.890433311E0
1.664331365E0,-2.410768867E-1,-1.196411327E-1,9.866504669E0
1.666757303E0,-2.362912297E-1,-1.004985496E-1,9.873683929E0
1.669183240E0,-2.219343036E-1,-1.148554832E-1,9.883255005E0
1.671609178E0,-2.386840582E-1,-1.100698411E-1,9.892826080E0
1.674035115E0,-2.458625287E-1,-1.148554832E-1,9.871291161E0
1.676461053E0,-2.362912297E-1,-9.810572863E-2,9.892826080E0
1.678886990E0,-2.458625287E-1,-1.100698411E-1,9.866504669E0
1.681312928E0,-2.386840582E-1,-1.076770201E-1,9.888040543E0
1.683738865E0,-2.410768867E-1,-7.896314561E-2,9.900004387E0
1.686164803E0,-2.195414752E-1,-1.004985496E-1,9.895218849E0
1.688590740E0,-2.267199457E-1,-8.853443712E-2,9.900004387E0
1.691016678E0,-2.434697002E-1,-9.092725813E-2,9.902397156E0
1.693442615E0,-2.291127741E-1,-1.196411327E-1,9.871291161E0
1.695868553E0,-2.291127741E-1,-9.332008660E-2,9.873683929E0
1.698294490E0,-2.530409992E-1,-9.571290761E-2,9.880862236E0
1.700720428E0,-2.291127741E-1,-1.148554832E-1,9.892826080E0
1.703146365E0,-2.171486616E-1,-9.332008660E-2,9.890433311E0
1.705572303E0,-2.315055877E-1,-1.292124242E-1,9.890433311E0
1.707998240E0,-2.506481707E-1,-8.374879509E-2,9.885647774E0
1.710424178E0,-2.434697002E-1,-1.100698411E-1,9.888040543E0
1.712850115E0,-2.458625287E-1,-9.571290761E-2,9.861719131E0
1.715276053E0,-2.410768867E-1,-9.810572863E-2,9.871291161E0
1.717701990E0,-2.410768867E-1,-9.571290761E-2,9.878469467E0
1.720127928E0,-2.362912297E-1,-1.052841991E-1,9.873683929E0
1.722553865E0,-2.362912297E-1,-1.028913707E-1,9.880862236E0
1.724979803E0,-2.554338276E-1,-1.268195957E-1,9.888040543E0
1.727405740E0,-2.626122832E-1,-1.004985496E-1,9.883255005E0
1.729831678E0,-2.434697002E-1,-1.220339537E-1,9.878469467E0
1.732257615E0,-2.315055877E-1,-9.571290761E-2,9.883255005E0
1.734683553E0,-2.482553422E-1,-1.244267747E-1,9.895218849E0
1.737109490E0,-2.458625287E-1,-1.172483116E-1,9.871291161E0
1.739535428E0,-2.338984162E-1,-1.196411327E-1,9.873683929E0
1.741961365E0,-2.458625287E-1,-1.076770201E-1,9.866504669E0
1.744387303E0,-2.291127741E-1,-9.571290761E-2,9.883255005E0
1.746813240E0,-2.578266263E-1,-1.004985496E-1,9.883255005E0
1.749239178E0,-2.338984162E-1,-1.100698411E-1,9.885647774E0
1.751665115E0,-2.267199457E-1,-1.124626622E-1,9.873683929E0
1.754091053E0,-2.386840582E-1,-8.374879509E-2,9.890433311E0
1.756516990E0,-2.386840582E-1,-1.124626622E-1,9.883255005E0
1.758942928E0,-2.171486616E-1,-1.148554832E-1,9.876076698E0
1.761368865E0,-2.267199457E-1,-1.196411327E-1,9.883255005E0
1.763794803E0,-2.338984162E-1,-1.052841991E-1,9.880862236E0
1.766220740E0,-2.434697002E-1,-9.810572863E-2,9.876076698E0
1.768646678E0,-2.578266263E-1,-1.052841991E-1,9.864111900E0
1.771072615E0,-2.482553422E-1,-9.810572863E-2,9.892826080E0
1.773498553E0,-2.410768867E-1,-9.571290761E-2,9.880862236E0
1.775924490E0,-2.171486616E-1,-9.571290761E-2,9.878469467E0
1.778350428E0,-2.315055877E-1,-7.657032460E-2,9.888040543E0
1.780776365E0,-2.171486616E-1,-1.100698411E-1,9.878469467E0
1.783202303E0,-2.338984162E-1,-1.100698411E-1,9.883255005E0
1.785628240E0,-2.578266263E-1,-9.092725813E-2,9.883255005E0
1.788054178E0,-2.434697002E-1,-1.100698411E-1,9.880862236E0
1.790480115E0,-2.434697002E-1,-1.028913707E-1,9.878469467E0
1.792906053E0,-2.506481707E-1,-1.052841991E-1,9.854540825E0
1.795331990E0,-2.386840582E-1,-1.052841991E-1,9.854540825E0
1.797757928E0,-2.219343036E-1,-1.076770201E-1,9.878469467E0
1.800183865E0,-2.362912297E-1,-1.124626622E-1,9.883255005E0
1.802609803E0,-2.410768867E-1,-9.810572863E-2,9.902397156E0
1.805035740E0,-2.171486616E-1,-1.172483116E-1,9.883255005E0
1.807461678E0,-2.458625287E-1,-9.332008660E-2,9.876076698E0
1.809887615E0,-2.291127741E-1,-1.028913707E-1,9.890433311E0
1.812313553E0,-2.362912297E-1,-1.268195957E-1,9.868897438E0
1.814739490E0,-2.410768867E-1,-1.124626622E-1,9.888040543E0
1.817165428E0,-2.482553422E-1,-1.196411327E-1,9.888040543E0
1.819591365E0,-2.410768867E-1,-1.100698411E-1,9.873683929E0
1.822017303E0,-2.554338276E-1,-1.220339537E-1,9.900004387E0
1.824443240E0,-2.338984162E-1,-1.124626622E-1,9.880862236E0
1.826869178E0,-2.099701911E-1,-1.028913707E-1,9.876076698E0
1.829295115E0,-2.650051117E-1,-1.124626622E-1,9.883255005E0
1.831721053E0,-2.291127741E-1,-9.571290761E-2,9.871291161E0
1.834146990E0,-2.243271172E-1,-1.076770201E-1,9.878469467E0
1.836572928E0,-2.027917206E-1,-1.124626622E-1,9.892826080E0
1.838998865E0,-2.338984162E-1,-1.100698411E-1,9.873683929E0
1.841424803E0,-2.554338276E-1,-9.571290761E-2,9.900004387E0
1.843850740E0,-2.315055877E-1,-1.004985496E-1,9.871291161E0
1.846276678E0,-2.530409992E-1,-9.810572863E-2,9.885647774E0
1.848702615E0,-2.458625287E-1,-8.853443712E-2,9.890433311E0
1.851128553E0,-2.458625287E-1,-1.028913707E-1,9.880862236E0
1.853554490E0,-2.530409992E-1,-1.076770201E-1,9.871291161E0
1.855980428E0,-2.386840582E-1,-1.292124242E-1,9.883255005E0
1.858406365E0,-2.458625287E-1,-1.124626622E-1,9.864111900E0
1.860832303E0,-2.410768867E-1,-9.332008660E-2,9.876076698E0
1.863258240E0,-2.434697002E-1,-1.316052526E-1,9.885647774E0
1.865684178E0,-2.458625287E-1,-1.052841991E-1,9.878469467E0
1.868110115E0,-2.362912297E-1,-1.076770201E-1,9.878469467E0
1.870536053E0,-2.195414752E-1,-1.004985496E-1,9.871291161E0
1.872961990E0,-2.506481707E-1,-1.172483116E-1,9.885647774E0
1.875387928E0,-2.482553422E-1,-1.124626622E-1,9.885647774E0
1.877813865E0,-2.506481707E-1,-1.292124242E-1,9.878469467E0
1.880239803E0,-2.123630047E-1,-9.810572863E-2,9.883255005E0
1.882665740E0,-2.123630047E-1,-1.028913707E-1,9.876076698E0
1.885091678E0,-2.554338276E-1,-1.148554832E-1,9.873683929E0
1.887517615E0,-2.386840582E-1,-1.004985496E-1,9.880862236E0
1.889943605E0,-2.458625287E-1,-1.028913707E-1,9.888040543E0
1.892369490E0,-2.267199457E-1,-1.124626622E-1,9.902397156E0
1.894795428E0,-2.243271172E-1,-8.374879509E-2,9.852148056E0
1.897221365E0,-2.315055877E-1,-1.124626622E-1,9.876076698E0
1.899647355E0,-2.291127741E-1,-1.124626622E-1,9.883255005E0
1.902073240E0,-2.434697002E-1,-1.220339537E-1,9.897611618E0
1.904499178E0,-2.195414752E-1,-1.004985496E-1,9.880862236E0
1.906925167E0,-2.434697002E-1,-1.196411327E-1,9.878469467E0
1.909351053E0,-2.434697002E-1,-1.124626622E-1,9.876076698E0
1.911776990E0,-2.602194548E-1,-8.853443712E-2,9.885647774E0
1.914202928E0,-2.386840582E-1,-9.810572863E-2,9.878469467E0
1.916628917E0,-2.291127741E-1,-1.100698411E-1,9.883255005E0
1.919054855E0,-2.458625287E-1,-1.244267747E-1,9.900004387E0
1.921480740E0,-2.434697002E-1,-9.810572863E-2,9.890433311E0
1.923906678E0,-2.338984162E-1,-1.076770201E-1,9.873683929E0
1.926332667E0,-2.338984162E-1,-9.571290761E-2,9.878469467E0
1.928758605E0,-2.195414752E-1,-1.292124242E-1,9.871291161E0
1.931184490E0,-2.315055877E-1,-9.092725813E-2,9.885647774E0
1.933610480E0,-2.554338276E-1,-9.810572863E-2,9.878469467E0
1.936036417E0,-2.410768867E-1,-1.124626622E-1,9.878469467E0
1.938462355E0,-2.554338276E-1,-1.196411327E-1,9.878469467E0
1.940888292E0,-2.506481707E-1,-1.100698411E-1,9.873683929E0
1.943314178E0,-2.243271172E-1,-7.896314561E-2,9.892826080E0
1.945740167E0,-2.315055877E-1,-1.052841991E-1,9.888040543E0
1.948166105E0,-2.386840582E-1,-1.196411327E-1,9.883255005E0
1.950592042E0,-2.267199457E-1,-9.571290761E-2,9.892826080E0
1.953017980E0,-2.458625287E-1,-1.124626622E-1,9.873683929E0
1.955443917E0,-2.410768867E-1,-9.332008660E-2,9.871291161E0
1.957869855E0,-2.410768867E-1,-1.004985496E-1,9.876076698E0
1.960295792E0,-2.458625287E-1,-1.004985496E-1,9.892826080E0
1.962721730E0,-2.410768867E-1,-8.614161611E-2,9.904789925E0
1.965147667E0,-2.386840582E-1,-1.052841991E-1,9.892826080E0
1.967573605E0,-2.482553422E-1,-1.076770201E-1,9.880862236E0
1.969999542E0,-2.482553422E-1,-1.076770201E-1,9.902397156E0
1.972425480E0,-2.697907388E-1,-1.076770201E-1,9.878469467E0
1.974851417E0,-2.530409992E-1,-7.896314561E-2,9.890433311E0
1.977277355E0,-2.458625287E-1,-9.332008660E-2,9.897611618E0
1.979703292E0,-2.530409992E-1,-1.100698411E-1,9.885647774E0
1.982129230E0,-2.338984162E-1,-1.244267747E-1,9.895218849E0
1.984555167E0,-2.362912297E-1,-1.292124242E-1,9.892826080E0
1.986981105E0,-2.482553422E-1,-1.028913707E-1,9.876076698E0
1.989407042E0,-2.410768867E-1,-1.028913707E-1,9.885647774E0
1.991832980E0,-2.315055877E-1,-1.004985496E-1,9.880862236E0
1.994258917E0,-2.458625287E-1,-1.028913707E-1,9.876076698E0
1.996684855E0,-2.506481707E-1,-1.052841991E-1,9.885647774E0
1.999110792E0,-2.482553422E-1,-1.172483116E-1,9.873683929E0
2.001536730E0,-2.315055877E-1,-9.332008660E-2,9.880862236E0
2.003962667E0,-2.482553422E-1,-1.052841991E-1,9.890433311E0
2.006388605E0,-2.267199457E-1,-1.292124242E-1,9.892826080E0
2.008814542E0,-2.362912297E-1,-1.244267747E-1,9.895218849E0
2.011240480E0,-2.386840582E-1,-1.148554832E-1,9.878469467E0
2.013666417E0,-2.291127741E-1,-1.052841991E-1,9.864111900E0
2.016092355E0,-2.458625287E-1,-1.172483116E-1,9.895218849E0
2.018518292E0,-2.434697002E-1,-1.363908947E-1,9.878469467E0
2.020944230E0,-2.362912297E-1,-1.028913707E-1,9.888040543E0
2.023370167E0,-2.267199457E-1,-1.268195957E-1,9.878469467E0
2.025796105E0,-2.386840582E-1,-1.052841991E-1,9.890433311E0
2.028222042E0,-2.075773627E-1,-1.028913707E-1,9.883255005E0
2.030647980E0,-2.458625287E-1,-1.052841991E-1,9.878469467E0
2.033073917E0,-2.338984162E-1,-9.571290761E-2,9.880862236E0
2.035499855E0,-2.267199457E-1,-8.135596663E-2,9.892826080E0
2.037925792E0,-2.291127741E-1,-1.076770201E-1,9.902397156E0
2.040351730E0,-2.410768867E-1,-1.004985496E-1,9.900004387E0
2.042777667E0,-2.410768867E-1,-7.896314561E-2,9.876076698E0
2.045203605E0,-2.338984162E-1,-9.571290761E-2,9.885647774E0
2.047629542E0,-2.315055877E-1,-1.435693651E-1,9.880862236E0
2.050055480E0,-2.171486616E-1,-1.004985496E-1,9.890433311E0
2.052481417E0,-2.386840582E-1,-9.810572863E-2,9.871291161E0
2.054907355E0,-2.338984162E-1,-9.810572863E-2,9.873683929E0
2.057333292E0,-2.554338276E-1,-1.124626622E-1,9.883255005E0
2.059759230E0,-2.458625287E-1,-1.052841991E-1,9.885647774E0
2.062185167E0,-2.338984162E-1,-1.244267747E-1,9.888040543E0
2.064611105E0,-2.315055877E-1,-8.853443712E-2,9.878469467E0
2.067037042E0,-2.291127741E-1,-9.332008660E-2,9.866504669E0
2.069462980E0,-2.410768867E-1,-8.853443712E-2,9.890433311E0
2.071888917E0,-2.434697002E-1,-8.853443712E-2,9.890433311E0
2.074314855E0,-2.243271172E-1,-1.124626622E-1,9.883255005E0
2.076740792E0,-2.602194548E-1,-1.076770201E-1,9.873683929E0
2.079166730E0,-2.506481707E-1,-1.076770201E-1,9.876076698E0
2.081592667E0,-2.530409992E-1,-1.004985496E-1,9.876076698E0
2.084018605E0,-2.315055877E-1,-9.810572863E-2,9.876076698E0
2.086444542E0,-2.458625287E-1,-1.004985496E-1,9.888040543E0
2.088870480E0,-2.482553422E-1,-9.810572863E-2,9.904789925E0
2.091296417E0,-2.602194548E-1,-1.004985496E-1,9.895218849E0
2.093722355E0,-2.291127741E-1,-1.124626622E-1,9.876076698E0
2.096148292E0,-2.243271172E-1,-9.332008660E-2,9.878469467E0
2.098574230E0,-2.315055877E-1,-1.220339537E-1,9.878469467E0
2.101000167E0,-2.482553422E-1,-9.810572863E-2,9.876076698E0
2.103426105E0,-2.338984162E-1,-1.052841991E-1,9.866504669E0
2.105852042E0,-2.362912297E-1,-9.810572863E-2,9.888040543E0
2.108277980E0,-2.171486616E-1,-1.052841991E-1,9.907182693E0
2.110703917E0,-2.530409992E-1,-9.092725813E-2,9.885647774E0
2.113129855E0,-2.291127741E-1,-1.172483116E-1,9.900004387E0
2.115555792E0,-2.506481707E-1,-1.172483116E-1,9.911968231E0
2.117981730E0,-2.410768867E-1,-1.076770201E-1,9.885647774E0
2.120407667E0,-2.338984162E-1,-1.052841991E-1,9.885647774E0
2.122833605E0,-2.458625287E-1,-1.196411327E-1,9.871291161E0
2.125259542E0,-2.482553422E-1,-1.268195957E-1,9.876076698E0
2.127685480E0,-2.410768867E-1,-1.196411327E-1,9.876076698E0
2.130111417E0,-2.338984162E-1,-1.076770201E-1,9.873683929E0
2.132537355E0,-2.315055877E-1,-1.124626622E-1,9.885647774E0
2.134963292E0,-2.291127741E-1,-1.052841991E-1,9.883255005E0
2.137389230E0,-2.554338276E-1,-1.052841991E-1,9.888040543E0
2.139815167E0,-2.602194548E-1,-1.172483116E-1,9.885647774E0
2.142241105E0,-2.386840582E-1,-9.332008660E-2,9.871291161E0
2.144667042E0,-2.434697002E-1,-8.614161611E-2,9.876076698E0
2.147092980E0,-2.267199457E-1,-1.076770201E-1,9.873683929E0
2.149518917E0,-2.195414752E-1,-8.853443712E-2,9.888040543E0
2.151944855E0,-2.410768867E-1,-1.172483116E-1,9.883255005E0
2.154370792E0,-2.506481707E-1,-9.810572863E-2,9.883255005E0
2.156796730E0,-2.147558331E-1,-1.172483116E-1,9.885647774E0
2.159222667E0,-2.386840582E-1,-1.028913707E-1,9.892826080E0
2.161648605E0,-2.338984162E-1,-1.172483116E-1,9.871291161E0
2.164074542E0,-2.267199457E-1,-1.028913707E-1,9.883255005E0
2.166500480E0,-2.243271172E-1,-9.810572863E-2,9.895218849E0
2.168926417E0,-2.267199457E-1,-1.196411327E-1,9.902397156E0
2.171352355E0,-2.315055877E-1,-1.220339537E-1,9.888040543E0
2.173778292E0,-2.362912297E-1,-1.004985496E-1,9.902397156E0
2.176204230E0,-2.386840582E-1,-1.100698411E-1,9.885647774E0
2.178630167E0,-2.338984162E-1,-1.004985496E-1,9.890433311E0
2.181056105E0,-2.267199457E-1,-1.076770201E-1,9.880862236E0
2.183482042E0,-2.506481707E-1,-1.220339537E-1,9.888040543E0
2.185907980E0,-2.362912297E-1,-1.268195957E-1,9.880862236E0
2.188333917E0,-2.386840582E-1,-1.124626622E-1,9.895218849E0
2.190759855E0,-2.482553422E-1,-1.196411327E-1,9.876076698E0
2.193185792E0,-2.482553422E-1,-8.614161611E-2,9.888040543E0
2.195611730E0,-2.315055877E-1,-1.220339537E-1,9.861719131E0
2.198037667E0,-2.626122832E-1,-1.004985496E-1,9.880862236E0
2.200463605E0,-2.578266263E-1,-1.004985496E-1,9.878469467E0
2.202889542E0,-2.602194548E-1,-1.004985496E-1,9.871291161E0
2.205315480E0,-2.482553422E-1,-1.124626622E-1,9.880862236E0
2.207741417E0,-2.578266263E-1,-1.196411327E-1,9.885647774E0
2.210167355E0,-2.578266263E-1,-1.196411327E-1,9.890433311E0
2.212593292E0,-2.697907388E-1,-9.332008660E-2,9.892826080E0
2.215019230E0,-2.578266263E-1,-1.220339537E-1,9.873683929E0
2.217445167E0,-2.315055877E-1,-1.076770201E-1,9.868897438E0
2.219871105E0,-2.171486616E-1,-1.100698411E-1,9.873683929E0
2.222297042E0,-2.554338276E-1,-8.374879509E-2,9.883255005E0
2.224722980E0,-2.386840582E-1,-9.332008660E-2,9.866504669E0
2.227148917E0,-2.434697002E-1,-8.374879509E-2,9.873683929E0
2.229574855E0,-2.410768867E-1,-1.124626622E-1,9.878469467E0
2.232000792E0,-2.147558331E-1,-1.028913707E-1,9.888040543E0
2.234426730E0,-2.458625287E-1,-9.092725813E-2,9.888040543E0
2.236852667E0,-2.434697002E-1,-1.052841991E-1,9.902397156E0
2.239278605E0,-2.315055877E-1,-1.004985496E-1,9.864111900E0
2.241704542E0,-2.362912297E-1,-1.172483116E-1,9.876076698E0
2.244130480E0,-2.267199457E-1,-1.124626622E-1,9.888040543E0
2.246556417E0,-2.291127741E-1,-1.220339537E-1,9.892826080E0
2.248982355E0,-2.458625287E-1,-8.853443712E-2,9.888040543E0
2.251408292E0,-2.458625287E-1,-1.100698411E-1,9.880862236E0
2.253834230E0,-2.315055877E-1,-1.100698411E-1,9.888040543E0
2.256260167E0,-2.338984162E-1,-1.028913707E-1,9.873683929E0
2.258686105E0,-2.506481707E-1,-9.571290761E-2,9.876076698E0
2.261112042E0,-2.506481707E-1,-8.135596663E-2,9.856933594E0
2.263537980E0,-2.386840582E-1,-8.374879509E-2,9.864111900E0
2.265963917E0,-2.386840582E-1,-9.571290761E-2,9.880862236E0
2.268389855E0,-2.362912297E-1,-8.374879509E-2,9.892826080E0
2.270815792E0,-2.482553422E-1,-1.100698411E-1,9.873683929E0
2.273241730E0,-2.506481707E-1,-9.571290761E-2,9.888040543E0
2.275667667E0,-2.482553422E-1,-1.148554832E-1,9.866504669E0
2.278093605E0,-2.602194548E-1,-8.614161611E-2,9.873683929E0
2.280519542E0,-2.386840582E-1,-9.332008660E-2,9.868897438E0
2.282945480E0,-2.506481707E-1,-1.028913707E-1,9.888040543E0
2.285371417E0,-2.530409992E-1,-1.052841991E-1,9.888040543E0
2.287797355E0,-2.434697002E-1,-9.332008660E-2,9.888040543E0
2.290223292E0,-2.315055877E-1,-9.332008660E-2,9.871291161E0
2.292649230E0,-2.554338276E-1,-1.100698411E-1,9.892826080E0
2.295075167E0,-2.410768867E-1,-9.092725813E-2,9.885647774E0
2.297501105E0,-2.338984162E-1,-1.076770201E-1,9.904789925E0
2.299927042E0,-2.530409992E-1,-1.124626622E-1,9.883255005E0
2.302352980E0,-2.267199457E-1,-9.332008660E-2,9.868897438E0
2.304778917E0,-2.410768867E-1,-1.052841991E-1,9.885647774E0
2.307204855E0,-2.482553422E-1,-9.810572863E-2,9.859326363E0
2.309630792E0,-2.195414752E-1,-1.172483116E-1,9.849755287E0
2.312056730E0,-2.219343036E-1,-1.028913707E-1,9.871291161E0
2.314482667E0,-2.506481707E-1,-9.810572863E-2,9.871291161E0
2.316908605E0,-2.554338276E-1,-1.004985496E-1,9.888040543E0
2.319334542E0,-2.482553422E-1,-1.004985496E-1,9.876076698E0
2.321760480E0,-2.482553422E-1,-9.810572863E-2,9.900004387E0
2.324186417E0,-2.410768867E-1,-1.268195957E-1,9.880862236E0
2.326612355E0,-2.482553422E-1,-1.052841991E-1,9.868897438E0
2.329038292E0,-2.362912297E-1,-1.052841991E-1,9.878469467E0
2.331464230E0,-2.243271172E-1,-9.810572863E-2,9.880862236E0
2.333890167E0,-2.506481707E-1,-1.076770201E-1,9.888040543E0
2.336316105E0,-2.386840582E-1,-1.196411327E-1,9.868897438E0
2.338742042E0,-2.243271172E-1,-1.172483116E-1,9.885647774E0
2.341167980E0,-2.243271172E-1,-9.332008660E-2,9.883255005E0
2.343593969E0,-2.434697002E-1,-9.571290761E-2,9.871291161E0
2.346019907E0,-2.482553422E-1,-8.614161611E-2,9.892826080E0
2.348445792E0,-2.267199457E-1,-1.220339537E-1,9.895218849E0
2.350871782E0,-2.195414752E-1,-1.100698411E-1,9.878469467E0
2.353297667E0,-2.338984162E-1,-1.196411327E-1,9.892826080E0
2.355723605E0,-2.434697002E-1,-1.196411327E-1,9.900004387E0
2.358149594E0,-2.243271172E-1,-9.332008660E-2,9.876076698E0
2.360575532E0,-2.338984162E-1,-9.332008660E-2,9.900004387E0
2.363001469E0,-2.338984162E-1,-1.028913707E-1,9.888040543E0
2.365427355E0,-2.291127741E-1,-1.268195957E-1,9.885647774E0
2.367853344E0,-2.362912297E-1,-1.100698411E-1,9.883255005E0
2.370279282E0,-2.362912297E-1,-9.810572863E-2,9.883255005E0
2.372705219E0,-2.338984162E-1,-1.100698411E-1,9.880862236E0
2.375131105E0,-2.315055877E-1,-8.614161611E-2,9.864111900E0
2.377557094E0,-2.243271172E-1,-1.028913707E-1,9.861719131E0
2.379983032E0,-2.482553422E-1,-8.135596663E-2,9.880862236E0
2.382408969E0,-2.530409992E-1,-9.571290761E-2,9.888040543E0
2.384834907E0,-2.434697002E-1,-9.810572863E-2,9.883255005E0
2.387260792E0,-2.434697002E-1,-9.332008660E-2,9.880862236E0
2.389686782E0,-2.410768867E-1,-9.571290761E-2,9.878469467E0
2.392112719E0,-2.530409992E-1,-1.172483116E-1,9.885647774E0
2.394538657E0,-2.745763958E-1,-8.374879509E-2,9.883255005E0
2.396964594E0,-2.386840582E-1,-9.571290761E-2,9.854540825E0
2.399390532E0,-2.410768867E-1,-1.124626622E-1,9.871291161E0
2.401816469E0,-2.554338276E-1,-7.896314561E-2,9.866504669E0
2.404242407E0,-2.482553422E-1,-9.571290761E-2,9.876076698E0
2.406668344E0,-2.482553422E-1,-8.853443712E-2,9.897611618E0
2.409094282E0,-2.434697002E-1,-1.028913707E-1,9.895218849E0
2.411520219E0,-2.434697002E-1,-1.124626622E-1,9.895218849E0
2.413946157E0,-2.362912297E-1,-1.244267747E-1,9.892826080E0
2.416372094E0,-2.554338276E-1,-1.196411327E-1,9.890433311E0
2.418798032E0,-2.410768867E-1,-1.076770201E-1,9.876076698E0
2.421223969E0,-2.554338276E-1,-1.100698411E-1,9.904789925E0
2.423649907E0,-2.338984162E-1,-1.028913707E-1,9.892826080E0
2.426075844E0,-2.458625287E-1,-8.853443712E-2,9.895218849E0
2.428501782E0,-2.171486616E-1,-1.028913707E-1,9.880862236E0
2.430927719E0,-2.386840582E-1,-1.052841991E-1,9.880862236E0
2.433353657E0,-2.243271172E-1,-9.571290761E-2,9.883255005E0
2.435779594E0,-2.410768867E-1,-8.614161611E-2,9.880862236E0
2.438205532E0,-2.410768867E-1,-8.853443712E-2,9.895218849E0
2.440631469E0,-2.482553422E-1,-9.092725813E-2,9.880862236E0
2.443057407E0,-2.267199457E-1,-1.052841991E-1,9.885647774E0
2.445483344E0,-2.243271172E-1,-8.614161611E-2,9.892826080E0
2.447909282E0,-2.219343036E-1,-7.657032460E-2,9.892826080E0
2.450335219E0,-2.315055877E-1,-1.004985496E-1,9.880862236E0
2.452761157E0,-2.362912297E-1,-1.028913707E-1,9.888040543E0
2.455187094E0,-2.434697002E-1,-9.810572863E-2,9.895218849E0
2.457613032E0,-2.410768867E-1,-1.100698411E-1,9.897611618E0
2.460038969E0,-2.458625287E-1,-1.028913707E-1,9.868897438E0
2.462464907E0,-2.123630047E-1,-1.052841991E-1,9.876076698E0
2.464890844E0,-2.506481707E-1,-1.100698411E-1,9.868897438E0
2.467316782E0,-2.315055877E-1,-1.292124242E-1,9.885647774E0
2.469742719E0,-2.386840582E-1,-1.028913707E-1,9.871291161E0
2.472168657E0,-2.195414752E-1,-1.052841991E-1,9.871291161E0
2.474594594E0,-2.243271172E-1,-1.172483116E-1,9.871291161E0
2.477020532E0,-2.482553422E-1,-1.100698411E-1,9.871291161E0
2.479446469E0,-2.315055877E-1,-1.052841991E-1,9.876076698E0
2.481872407E0,-2.386840582E-1,-1.052841991E-1,9.895218849E0
2.484298344E0,-2.243271172E-1,-1.124626622E-1,9.895218849E0
2.486724282E0,-2.386840582E-1,-9.810572863E-2,9.888040543E0
2.489150219E0,-2.338984162E-1,-9.810572863E-2,9.871291161E0
2.491576157E0,-2.410768867E-1,-1.052841991E-1,9.885647774E0
2.494002094E0,-2.315055877E-1,-1.196411327E-1,9.888040543E0
2.496428032E0,-2.362912297E-1,-1.004985496E-1,9.880862236E0
2.498853969E0,-2.243271172E-1,-9.810572863E-2,9.883255005E0
2.501279907E0,-2.003988922E-1,-9.332008660E-2,9.859326363E0
2.503705844E0,-2.243271172E-1,-1.052841991E-1,9.864111900E0
2.506131782E0,-2.458625287E-1,-1.100698411E-1,9.866504669E0
2.508557719E0,-2.386840582E-1,-1.028913707E-1,9.873683929E0
2.510983657E0,-2.434697002E-1,-9.810572863E-2,9.866504669E0
2.513409594E0,-2.434697002E-1,-9.571290761E-2,9.897611618E0
2.515835532E0,-2.267199457E-1,-1.028913707E-1,9.904789925E0
2.518261469E0,-2.602194548E-1,-7.657032460E-2,9.880862236E0
2.520687407E0,-2.602194548E-1,-1.076770201E-1,9.900004387E0
2.523113344E0,-2.291127741E-1,-9.332008660E-2,9.880862236E0
2.525539282E0,-2.338984162E-1,-9.332008660E-2,9.885647774E0
2.527965219E0,-2.386840582E-1,-1.052841991E-1,9.880862236E0
2.530391157E0,-2.410768867E-1,-1.172483116E-1,9.871291161E0
2.532817094E0,-2.410768867E-1,-1.100698411E-1,9.892826080E0
2.535243032E0,-2.362912297E-1,-1.052841991E-1,9.897611618E0
2.537668969E0,-2.267199457E-1,-1.196411327E-1,9.904789925E0
2.540094907E0,-2.291127741E-1,-1.100698411E-1,9.888040543E0
2.542520844E0,-2.315055877E-1,-1.052841991E-1,9.885647774E0
2.544946782E0,-2.291127741E-1,-1.028913707E-1,9.885647774E0
2.547372719E0,-2.386840582E-1,-1.148554832E-1,9.873683929E0
2.549798657E0,-2.458625287E-1,-1.148554832E-1,9.878469467E0
2.552224594E0,-2.602194548E-1,-9.092725813E-2,9.883255005E0
2.554650532E0,-2.195414752E-1,-1.076770201E-1,9.878469467E0
2.557076469E0,-2.338984162E-1,-8.614161611E-2,9.878469467E0
2.559502407E0,-2.506481707E-1,-1.124626622E-1,9.878469467E0
2.561928344E0,-2.410768867E-1,-1.028913707E-1,9.892826080E0
2.564354282E0,-2.410768867E-1,-1.052841991E-1,9.885647774E0
2.566780219E0,-2.482553422E-1,-1.052841991E-1,9.892826080E0
2.569206157E0,-2.338984162E-1,-9.092725813E-2,9.883255005E0
2.571632094E0,-2.889333367E-1,-1.028913707E-1,9.880862236E0
2.574058032E0,-2.386840582E-1,-9.332008660E-2,9.876076698E0
2.576483969E0,-2.506481707E-1,-1.244267747E-1,9.900004387E0
2.578909907E0,-2.386840582E-1,-1.124626622E-1,9.892826080E0
2.581335844E0,-2.458625287E-1,-1.124626622E-1,9.876076698E0
2.583761782E0,-2.315055877E-1,-1.052841991E-1,9.895218849E0
2.586187719E0,-2.195414752E-1,-8.853443712E-2,9.892826080E0
2.588613657E0,-2.243271172E-1,-1.004985496E-1,9.880862236E0
2.591039594E0,-2.099701911E-1,-1.196411327E-1,9.880862236E0
2.593465532E0,-2.362912297E-1,-1.196411327E-1,9.861719131E0
2.595891469E0,-2.219343036E-1,-1.076770201E-1,9.866504669E0
2.598317407E0,-2.147558331E-1,-1.124626622E-1,9.885647774E0
2.600743344E0,-2.434697002E-1,-1.124626622E-1,9.876076698E0
2.603169282E0,-2.482553422E-1,-1.292124242E-1,9.878469467E0
2.605595219E0,-2.386840582E-1,-9.810572863E-2,9.852148056E0
2.608021157E0,-2.721835673E-1,-1.004985496E-1,9.873683929E0
2.610447094E0,-2.697907388E-1,-9.332008660E-2,9.883255005E0
2.612873032E0,-2.123630047E-1,-1.124626622E-1,9.859326363E0
2.615298969E0,-2.171486616E-1,-9.571290761E-2,9.873683929E0
2.617724907E0,-2.267199457E-1,-9.571290761E-2,9.885647774E0
2.620150844E0,-2.362912297E-1,-1.124626622E-1,9.885647774E0
2.622576782E0,-2.123630047E-1,-1.052841991E-1,9.878469467E0
2.625002719E0,-2.410768867E-1,-1.148554832E-1,9.885647774E0
2.627428657E0,-2.458625287E-1,-1.220339537E-1,9.878469467E0
2.629854594E0,-2.482553422E-1,-1.196411327E-1,9.883255005E0
2.632280532E0,-2.530409992E-1,-1.028913707E-1,9.880862236E0
2.634706469E0,-2.434697002E-1,-1.076770201E-1,9.888040543E0
2.637132407E0,-2.458625287E-1,-9.332008660E-2,9.885647774E0
2.639558344E0,-2.315055877E-1,-1.172483116E-1,9.885647774E0
2.641984282E0,-2.386840582E-1,-8.853443712E-2,9.864111900E0
2.644410219E0,-2.458625287E-1,-1.172483116E-1,9.883255005E0
2.646836157E0,-2.386840582E-1,-1.004985496E-1,9.885647774E0
2.649262094E0,-2.315055877E-1,-7.896314561E-2,9.888040543E0
2.651688032E0,-2.434697002E-1,-1.244267747E-1,9.876076698E0
2.654113969E0,-2.315055877E-1,-1.196411327E-1,9.895218849E0
2.656539907E0,-2.626122832E-1,-9.571290761E-2,9.880862236E0
2.658965844E0,-2.410768867E-1,-1.196411327E-1,9.871291161E0
2.661391782E0,-2.291127741E-1,-1.411765367E-1,9.883255005E0
2.663817719E0,-2.458625287E-1,-1.220339537E-1,9.883255005E0
2.666243657E0,-2.673979402E-1,-1.052841991E-1,9.883255005E0
2.668669594E0,-2.410768867E-1,-9.571290761E-2,9.876076698E0
2.671095532E0,-2.147558331E-1,-1.076770201E-1,9.880862236E0
2.673521469E0,-2.051845491E-1,-1.148554832E-1,9.892826080E0
2.675947407E0,-2.458625287E-1,-1.339980662E-1,9.890433311E0
2.678373344E0,-2.506481707E-1,-1.148554832E-1,9.888040543E0
2.680799282E0,-2.267199457E-1,-1.196411327E-1,9.890433311E0
2.683225219E0,-2.027917206E-1,-1.028913707E-1,9.888040543E0
2.685651157E0,-2.147558331E-1,-1.100698411E-1,9.888040543E0
2.688077094E0,-2.267199457E-1,-9.810572863E-2,9.880862236E0
2.690503032E0,-2.410768867E-1,-1.196411327E-1,9.871291161E0
2.692928969E0,-2.386840582E-1,-1.196411327E-1,9.880862236E0
2.695354907E0,-2.506481707E-1,-1.268195957E-1,9.854540825E0
2.697780844E0,-2.434697002E-1,-1.124626622E-1,9.890433311E0
2.700206782E0,-2.267199457E-1,-1.148554832E-1,9.904789925E0
2.702632719E0,-2.051845491E-1,-1.004985496E-1,9.883255005E0
2.705058657E0,-2.362912297E-1,-1.004985496E-1,9.885647774E0
2.707484594E0,-2.482553422E-1,-9.332008660E-2,9.883255005E0
2.709910532E0,-2.530409992E-1,-1.076770201E-1,9.890433311E0
2.712336469E0,-2.482553422E-1,-1.028913707E-1,9.859326363E0
2.714762407E0,-2.362912297E-1,-9.810572863E-2,9.876076698E0
2.717188344E0,-2.362912297E-1,-1.028913707E-1,9.895218849E0
2.719614282E0,-2.291127741E-1,-8.853443712E-2,9.895218849E0
2.722040219E0,-2.530409992E-1,-1.028913707E-1,9.885647774E0
2.724466157E0,-2.386840582E-1,-1.052841991E-1,9.868897438E0
2.726892094E0,-2.458625287E-1,-9.571290761E-2,9.871291161E0
2.729318032E0,-2.338984162E-1,-9.571290761E-2,9.885647774E0
2.731743969E0,-2.147558331E-1,-1.076770201E-1,9.873683929E0
2.734169907E0,-2.291127741E-1,-1.052841991E-1,9.892826080E0
2.736595844E0,-2.362912297E-1,-1.196411327E-1,9.866504669E0
2.739021782E0,-2.482553422E-1,-1.100698411E-1,9.880862236E0
2.741447719E0,-2.315055877E-1,-1.004985496E-1,9.897611618E0
2.743873657E0,-2.362912297E-1,-1.196411327E-1,9.888040543E0
2.746299594E0,-2.267199457E-1,-9.332008660E-2,9.885647774E0
2.748725532E0,-2.267199457E-1,-9.810572863E-2,9.890433311E0
2.751151469E0,-2.434697002E-1,-1.052841991E-1,9.861719131E0
2.753577407E0,-2.458625287E-1,-1.052841991E-1,9.888040543E0
2.756003344E0,-2.482553422E-1,-9.332008660E-2,9.871291161E0
2.758429282E0,-2.410768867E-1,-9.092725813E-2,9.866504669E0
2.760855219E0,-2.267199457E-1,-1.148554832E-1,9.871291161E0
2.763281157E0,-2.410768867E-1,-9.810572863E-2,9.878469467E0
2.765707094E0,-2.506481707E-1,-8.853443712E-2,9.876076698E0
2.768133032E0,-2.482553422E-1,-1.124626622E-1,9.888040543E0
2.770558969E0,-2.434697002E-1,-9.810572863E-2,9.888040543E0
2.772984907E0,-2.386840582E-1,-1.292124242E-1,9.900004387E0
2.775410844E0,-2.386840582E-1,-1.220339537E-1,9.880862236E0
2.777836782E0,-2.267199457E-1,-1.076770201E-1,9.878469467E0
2.780262719E0,-2.315055877E-1,-1.172483116E-1,9.880862236E0
2.782688657E0,-2.171486616E-1,-1.052841991E-1,9.885647774E0
2.785114594E0,-2.219343036E-1,-1.052841991E-1,9.885647774E0
2.787540532E0,-2.171486616E-1,-1.028913707E-1,9.890433311E0
2.789966469E0,-2.243271172E-1,-1.100698411E-1,9.892826080E0
2.792392407E0,-2.410768867E-1,-1.172483116E-1,9.873683929E0
2.794818344E0,-2.458625287E-1,-1.220339537E-1,9.880862236E0
2.797244282E0,-2.219343036E-1,-1.268195957E-1,9.888040543E0
2.799670219E0,-2.243271172E-1,-1.052841991E-1,9.895218849E0
2.802096157E0,-2.338984162E-1,-9.332008660E-2,9.873683929E0
2.804522094E0,-2.243271172E-1,-9.571290761E-2,9.897611618E0
2.806948032E0,-2.578266263E-1,-1.172483116E-1,9.883255005E0
2.809373969E0,-2.434697002E-1,-1.148554832E-1,9.890433311E0
2.811799907E0,-2.171486616E-1,-9.332008660E-2,9.902397156E0
2.814225844E0,-2.315055877E-1,-1.004985496E-1,9.892826080E0
2.816651782E0,-2.410768867E-1,-1.124626622E-1,9.892826080E0
2.819077719E0,-2.338984162E-1,-1.100698411E-1,9.861719131E0
2.821503657E0,-2.386840582E-1,-9.571290761E-2,9.878469467E0
2.823929594E0,-2.362912297E-1,-8.614161611E-2,9.888040543E0
2.826355532E0,-2.530409992E-1,-1.196411327E-1,9.885647774E0
2.828781469E0,-2.458625287E-1,-8.853443712E-2,9.876076698E0
2.831207407E0,-2.554338276E-1,-1.028913707E-1,9.880862236E0
2.833633344E0,-2.386840582E-1,-1.100698411E-1,9.856933594E0
2.836059282E0,-2.291127741E-1,-9.571290761E-2,9.883255005E0
2.838485219E0,-2.506481707E-1,-1.148554832E-1,9.878469467E0
2.840911157E0,-2.315055877E-1,-1.052841991E-1,9.883255005E0
2.843337094E0,-2.338984162E-1,-8.374879509E-2,9.883255005E0
2.845763032E0,-2.219343036E-1,-8.374879509E-2,9.876076698E0
2.848188969E0,-2.386840582E-1,-1.196411327E-1,9.883255005E0
2.850614907E0,-2.362912297E-1,-9.810572863E-2,9.885647774E0
2.853040844E0,-2.386840582E-1,-9.810572863E-2,9.892826080E0
2.855466782E0,-2.362912297E-1,-8.853443712E-2,9.897611618E0
2.857892719E0,-2.530409992E-1,-1.100698411E-1,9.890433311E0
2.860318657E0,-2.410768867E-1,-1.028913707E-1,9.897611618E0
2.862744594E0,-2.386840582E-1,-8.374879509E-2,9.885647774E0
2.865170532E0,-2.362912297E-1,-1.244267747E-1,9.873683929E0
2.867596469E0,-2.434697002E-1,-9.571290761E-2,9.883255005E0
2.870022407E0,-2.338984162E-1,-1.268195957E-1,9.888040543E0
2.872448344E0,-2.219343036E-1,-1.196411327E-1,9.878469467E0
2.874874282E0,-2.362912297E-1,-1.028913707E-1,9.895218849E0
2.877300219E0,-2.506481707E-1,-9.571290761E-2,9.897611618E0
2.879726157E0,-2.362912297E-1,-1.100698411E-1,9.878469467E0
2.882152094E0,-2.147558331E-1,-9.810572863E-2,9.871291161E0
2.884578032E0,-2.291127741E-1,-9.332008660E-2,9.883255005E0
2.887003969E0,-2.650051117E-1,-9.810572863E-2,9.892826080E0
2.889429907E0,-2.315055877E-1,-1.124626622E-1,9.883255005E0
2.891855844E0,-2.362912297E-1,-9.092725813E-2,9.897611618E0
2.894281782E0,-2.338984162E-1,-1.196411327E-1,9.892826080E0
2.896707719E0,-2.554338276E-1,-8.853443712E-2,9.890433311E0
2.899133657E0,-2.386840582E-1,-8.614161611E-2,9.916754723E0
2.901559594E0,-2.291127741E-1,-1.004985496E-1,9.895218849E0
2.903985532E0,-2.482553422E-1,-1.004985496E-1,9.873683929E0
2.906411469E0,-2.410768867E-1,-1.100698411E-1,9.883255005E0
2.908837407E0,-2.482553422E-1,-1.052841991E-1,9.888040543E0
2.911263344E0,-2.410768867E-1,-1.076770201E-1,9.885647774E0
2.913689282E0,-2.386840582E-1,-1.052841991E-1,9.878469467E0
2.916115219E0,-2.434697002E-1,-1.076770201E-1,9.885647774E0
2.918541157E0,-2.530409992E-1,-1.052841991E-1,9.883255005E0
2.920967094E0,-2.362912297E-1,-1.076770201E-1,9.897611618E0
2.923393032E0,-2.410768867E-1,-9.332008660E-2,9.904789925E0
2.925818969E0,-2.362912297E-1,-1.028913707E-1,9.880862236E0
2.928244907E0,-2.386840582E-1,-1.244267747E-1,9.890433311E0
2.930670844E0,-2.315055877E-1,-1.052841991E-1,9.871291161E0
2.933096782E0,-2.530409992E-1,-1.316052526E-1,9.885647774E0
2.935522719E0,-2.362912297E-1,-1.028913707E-1,9.895218849E0
2.937948657E0,-2.338984162E-1,-9.810572863E-2,9.897611618E0
2.940374594E0,-2.267199457E-1,-1.148554832E-1,9.880862236E0
2.942800532E0,-2.315055877E-1,-1.052841991E-1,9.876076698E0
2.945226469E0,-2.147558331E-1,-1.316052526E-1,9.878469467E0
2.947652407E0,-2.315055877E-1,-1.172483116E-1,9.878469467E0
2.950078344E0,-2.195414752E-1,-1.052841991E-1,9.873683929E0
2.952504282E0,-2.338984162E-1,-1.124626622E-1,9.878469467E0
2.954930219E0,-2.386840582E-1,-1.004985496E-1,9.888040543E0
2.957356157E0,-2.530409992E-1,-1.028913707E-1,9.888040543E0
2.959782094E0,-2.338984162E-1,-1.196411327E-1,9.861719131E0
2.962208032E0,-2.195414752E-1,-1.100698411E-1,9.852148056E0
2.964633969E0,-2.434697002E-1,-9.332008660E-2,9.885647774E0
2.967059907E0,-2.362912297E-1,-9.810572863E-2,9.868897438E0
2.969485844E0,-2.410768867E-1,-9.092725813E-2,9.888040543E0
2.971911782E0,-2.386840582E-1,-7.896314561E-2,9.880862236E0
2.974337719E0,-2.291127741E-1,-8.614161611E-2,9.904789925E0
2.976763657E0,-2.410768867E-1,-1.172483116E-1,9.904789925E0
2.979189594E0,-2.362912297E-1,-1.220339537E-1,9.861719131E0
2.981615532E0,-2.075773627E-1,-1.100698411E-1,9.885647774E0
2.984041469E0,-2.362912297E-1,-1.124626622E-1,9.873683929E0
2.986467407E0,-2.602194548E-1,-1.028913707E-1,9.883255005E0
2.988893344E0,-2.386840582E-1,-1.100698411E-1,9.885647774E0
2.991319282E0,-2.434697002E-1,-1.028913707E-1,9.868897438E0
2.993745219E0,-2.434697002E-1,-1.100698411E-1,9.871291161E0
2.996171157E0,-2.267199457E-1,-1.028913707E-1,9.880862236E0
2.998597094E0,-2.291127741E-1,-1.172483116E-1,9.902397156E0
3.001023032E0,-2.219343036E-1,-1.292124242E-1,9.878469467E0
3.003448969E0,-2.434697002E-1,-9.332008660E-2,9.897611618E0
3.005874907E0,-2.243271172E-1,-9.332008660E-2,9.873683929E0
3.008300844E0,-2.338984162E-1,-1.028913707E-1,9.880862236E0
3.010726782E0,-2.506481707E-1,-1.004985496E-1,9.890433311E0
3.013152719E0,-2.506481707E-1,-9.332008660E-2,9.890433311E0
3.015578657E0,-2.362912297E-1,-1.076770201E-1,9.885647774E0
3.018004594E0,-2.315055877E-1,-1.028913707E-1,9.878469467E0
3.020430532E0,-2.291127741E-1,-9.571290761E-2,9.888040543E0
3.022856469E0,-2.578266263E-1,-1.004985496E-1,9.890433311E0
3.025282407E0,-2.410768867E-1,-1.076770201E-1,9.878469467E0
3.027708344E0,-2.626122832E-1,-1.004985496E-1,9.895218849E0
3.030134282E0,-2.386840582E-1,-9.092725813E-2,9.892826080E0
3.032560219E0,-2.410768867E-1,-1.148554832E-1,9.871291161E0
3.034986157E0,-2.267199457E-1,-1.052841991E-1,9.854540825E0
3.037412094E0,-2.291127741E-1,-1.124626622E-1,9.890433311E0
3.039838032E0,-2.315055877E-1,-9.571290761E-2,9.890433311E0
3.042263969E0,-2.195414752E-1,-9.810572863E-2,9.900004387E0
3.044689907E0,-2.315055877E-1,-9.092725813E-2,9.888040543E0
3.047115844E0,-2.506481707E-1,-1.100698411E-1,9.904789925E0
3.049541782E0,-2.530409992E-1,-1.124626622E-1,9.878469467E0
3.051967719E0,-2.458625287E-1,-1.004985496E-1,9.876076698E0
3.054393657E0,-2.267199457E-1,-1.148554832E-1,9.871291161E0
3.056819594E0,-2.578266263E-1,-9.810572863E-2,9.864111900E0
3.059245532E0,-2.338984162E-1,-9.092725813E-2,9.880862236E0
3.061671469E0,-2.195414752E-1,-9.092725813E-2,9.895218849E0
3.064097407E0,-2.434697002E-1,-1.172483116E-1,9.890433311E0
3.066523344E0,-2.410768867E-1,-1.100698411E-1,9.876076698E0
3.068949282E0,-2.338984162E-1,-1.100698411E-1,9.895218849E0
3.071375219E0,-2.386840582E-1,-1.004985496E-1,9.880862236E0
3.073801157E0,-2.315055877E-1,-1.268195957E-1,9.900004387E0
3.076227094E0,-2.386840582E-1,-1.339980662E-1,9.873683929E0
3.078653032E0,-2.410768867E-1,-9.332008660E-2,9.880862236E0
3.081078969E0,-2.458625287E-1,-9.092725813E-2,9.876076698E0
3.083504907E0,-2.219343036E-1,-8.853443712E-2,9.883255005E0
3.085930844E0,-2.530409992E-1,-1.220339537E-1,9.864111900E0
3.088356782E0,-2.673979402E-1,-1.052841991E-1,9.890433311E0
3.090782719E0,-2.434697002E-1,-9.332008660E-2,9.880862236E0
3.093208657E0,-2.171486616E-1,-8.374879509E-2,9.892826080E0
3.095634594E0,-2.434697002E-1,-8.853443712E-2,9.871291161E0
3.098060532E0,-2.506481707E-1,-1.076770201E-1,9.895218849E0
3.100486469E0,-2.530409992E-1,-1.148554832E-1,9.890433311E0
3.102912407E0,-2.482553422E-1,-1.052841991E-1,9.866504669E0
3.105338344E0,-2.434697002E-1,-8.853443712E-2,9.883255005E0
3.107764282E0,-2.458625287E-1,-1.028913707E-1,9.892826080E0
3.110190219E0,-2.123630047E-1,-9.571290761E-2,9.883255005E0
3.112616157E0,-2.386840582E-1,-7.896314561E-2,9.890433311E0
3.115042094E0,-2.362912297E-1,-1.076770201E-1,9.873683929E0
3.117468032E0,-2.458625287E-1,-1.148554832E-1,9.876076698E0
3.119893969E0,-2.745763958E-1,-1.052841991E-1,9.876076698E0
3.122319907E0,-2.362912297E-1,-1.028913707E-1,9.883255005E0
3.124745844E0,-2.243271172E-1,-1.028913707E-1,9.876076698E0
3.127171782E0,-2.219343036E-1,-1.100698411E-1,9.883255005E0
3.129597719E0,-2.434697002E-1,-9.810572863E-2,9.876076698E0
3.132023657E0,-2.554338276E-1,-1.004985496E-1,9.892826080E0
3.134449594E0,-2.243271172E-1,-8.135596663E-2,9.885647774E0
3.136875532E0,-2.315055877E-1,-1.076770201E-1,9.866504669E0
3.139301469E0,-2.362912297E-1,-1.244267747E-1,9.892826080E0
3.141727407E0,-2.482553422E-1,-1.028913707E-1,9.883255005E0
3.144153344E0,-2.243271172E-1,-9.571290761E-2,9.902397156E0
3.146579282E0,-2.458625287E-1,-7.178468257E-2,9.890433311E0
3.149005219E0,-2.458625287E-1,-8.614161611E-2,9.878469467E0
3.151431157E0,-2.482553422E-1,-9.332008660E-2,9.900004387E0
3.153857094E0,-2.434697002E-1,-1.148554832E-1,9.876076698E0
3.156283032E0,-2.386840582E-1,-1.004985496E-1,9.892826080E0
3.158708969E0,-2.386840582E-1,-1.124626622E-1,9.880862236E0
3.161134907E0,-2.195414752E-1,-1.028913707E-1,9.892826080E0
3.163560844E0,-2.243271172E-1,-7.178468257E-2,9.902397156E0
3.165986782E0,-2.602194548E-1,-1.148554832E-1,9.880862236E0
3.168412719E0,-2.338984162E-1,-1.292124242E-1,9.890433311E0
3.170838657E0,-2.410768867E-1,-1.148554832E-1,9.885647774E0
3.173264594E0,-2.386840582E-1,-9.332008660E-2,9.890433311E0
3.175690532E0,-2.362912297E-1,-8.853443712E-2,9.890433311E0
3.178116469E0,-2.434697002E-1,-9.092725813E-2,9.878469467E0
3.180542407E0,-2.721835673E-1,-1.076770201E-1,9.885647774E0
3.182968344E0,-2.362912297E-1,-1.148554832E-1,9.883255005E0
3.185394282E0,-2.434697002E-1,-1.124626622E-1,9.880862236E0
3.187820219E0,-2.602194548E-1,-1.100698411E-1,9.888040543E0
3.190246157E0,-2.386840582E-1,-1.028913707E-1,9.888040543E0
3.192672094E0,-2.243271172E-1,-9.332008660E-2,9.878469467E0
3.195098032E0,-2.267199457E-1,-1.172483116E-1,9.871291161E0
3.197523969E0,-2.338984162E-1,-1.004985496E-1,9.880862236E0
3.199949907E0,-2.219343036E-1,-9.571290761E-2,9.888040543E0
3.202375844E0,-2.267199457E-1,-9.810572863E-2,9.888040543E0
3.204801782E0,-2.673979402E-1,-1.292124242E-1,9.873683929E0
3.207227719E0,-2.386840582E-1,-1.148554832E-1,9.892826080E0
3.209653657E0,-2.338984162E-1,-1.292124242E-1,9.868897438E0
3.212079594E0,-2.386840582E-1,-1.124626622E-1,9.868897438E0
3.214505532E0,-2.219343036E-1,-8.853443712E-2,9.880862236E0
3.216931521E0,-2.482553422E-1,-9.332008660E-2,9.871291161E0
3.219357407E0,-2.362912297E-1,-7.896314561E-2,9.856933594E0
3.221783344E0,-2.386840582E-1,-1.052841991E-1,9.883255005E0
3.224209282E0,-2.291127741E-1,-1.196411327E-1,9.885647774E0
3.226635219E0,-2.386840582E-1,-1.004985496E-1,9.883255005E0
3.229061157E0,-2.243271172E-1,-1.004985496E-1,9.890433311E0
3.231487094E0,-2.338984162E-1,-9.571290761E-2,9.876076698E0
3.233913032E0,-2.410768867E-1,-1.124626622E-1,9.876076698E0
3.236338969E0,-2.554338276E-1,-1.172483116E-1,9.890433311E0
3.238764907E0,-2.386840582E-1,-1.028913707E-1,9.871291161E0
3.241190844E0,-2.506481707E-1,-1.268195957E-1,9.873683929E0
3.243616782E0,-2.410768867E-1,-1.028913707E-1,9.871291161E0
3.246042719E0,-2.530409992E-1,-1.076770201E-1,9.888040543E0
3.248468657E0,-2.338984162E-1,-1.076770201E-1,9.866504669E0
3.250894594E0,-2.195414752E-1,-1.004985496E-1,9.864111900E0
3.253320532E0,-2.434697002E-1,-1.004985496E-1,9.854540825E0
3.255746469E0,-2.267199457E-1,-1.196411327E-1,9.866504669E0
3.258172407E0,-2.243271172E-1,-1.076770201E-1,9.904789925E0
3.260598344E0,-2.267199457E-1,-1.076770201E-1,9.888040543E0
3.263024282E0,-2.386840582E-1,-1.052841991E-1,9.895218849E0
3.265450219E0,-2.410768867E-1,-1.052841991E-1,9.900004387E0
3.267876157E0,-2.458625287E-1,-1.100698411E-1,9.907182693E0
3.270302094E0,-2.315055877E-1,-9.571290761E-2,9.900004387E0
3.272728032E0,-2.315055877E-1,-8.853443712E-2,9.878469467E0
3.275153969E0,-2.482553422E-1,-1.028913707E-1,9.892826080E0
3.277579907E0,-2.578266263E-1,-1.004985496E-1,9.892826080E0
3.280005844E0,-2.554338276E-1,-9.571290761E-2,9.883255005E0
3.282431782E0,-2.506481707E-1,-1.052841991E-1,9.890433311E0
3.284857719E0,-2.410768867E-1,-1.052841991E-1,9.876076698E0
3.287283657E0,-2.386840582E-1,-1.220339537E-1,9.880862236E0
3.289709594E0,-2.386840582E-1,-1.196411327E-1,9.883255005E0
3.292135532E0,-2.362912297E-1,-1.100698411E-1,9.866504669E0
3.294561469E0,-2.315055877E-1,-1.196411327E-1,9.890433311E0
3.296987407E0,-2.267199457E-1,-7.657032460E-2,9.880862236E0
3.299413344E0,-2.578266263E-1,-1.124626622E-1,9.904789925E0
3.301839282E0,-2.291127741E-1,-1.004985496E-1,9.878469467E0
3.304265219E0,-2.362912297E-1,-8.374879509E-2,9.873683929E0
3.306691157E0,-2.410768867E-1,-9.810572863E-2,9.883255005E0
3.309117094E0,-2.362912297E-1,-1.076770201E-1,9.876076698E0
3.311543032E0,-2.410768867E-1,-9.092725813E-2,9.880862236E0
3.313968969E0,-2.410768867E-1,-9.810572863E-2,9.873683929E0
3.316394907E0,-2.338984162E-1,-8.853443712E-2,9.885647774E0
3.318820844E0,-2.673979402E-1,-1.028913707E-1,9.892826080E0
3.321246782E0,-2.315055877E-1,-8.374879509E-2,9.888040543E0
3.323672719E0,-2.243271172E-1,-1.052841991E-1,9.878469467E0
3.326098657E0,-2.362912297E-1,-1.052841991E-1,9.871291161E0
3.328524594E0,-2.554338276E-1,-1.076770201E-1,9.888040543E0
3.330950532E0,-2.362912297E-1,-1.148554832E-1,9.890433311E0
3.333376469E0,-2.291127741E-1,-9.810572863E-2,9.878469467E0
3.335802407E0,-2.338984162E-1,-1.052841991E-1,9.876076698E0
3.338228344E0,-2.410768867E-1,-1.100698411E-1,9.897611618E0
3.340654282E0,-2.338984162E-1,-1.076770201E-1,9.885647774E0
3.343080219E0,-2.171486616E-1,-1.004985496E-1,9.902397156E0
3.345506157E0,-2.243271172E-1,-8.853443712E-2,9.895218849E0
3.347932094E0,-2.219343036E-1,-9.810572863E-2,9.888040543E0
3.350358032E0,-2.458625287E-1,-1.100698411E-1,9.876076698E0
3.352783969E0,-2.410768867E-1,-1.076770201E-1,9.892826080E0
3.355209907E0,-2.434697002E-1,-1.172483116E-1,9.883255005E0
3.357635844E0,-2.434697002E-1,-1.220339537E-1,9.897611618E0
3.360061782E0,-2.338984162E-1,-8.614161611E-2,9.868897438E0
3.362487719E0,-2.458625287E-1,-1.052841991E-1,9.890433311E0
3.364913657E0,-2.410768867E-1,-1.052841991E-1,9.878469467E0
3.367339594E0,-2.219343036E-1,-1.100698411E-1,9.890433311E0
3.369765532E0,-2.027917206E-1,-1.076770201E-1,9.883255005E0
3.372191469E0,-2.434697002E-1,-8.853443712E-2,9.888040543E0
3.374617407E0,-2.386840582E-1,-1.004985496E-1,9.876076698E0
3.377043344E0,-2.506481707E-1,-1.076770201E-1,9.876076698E0
3.379469282E0,-2.458625287E-1,-9.092725813E-2,9.880862236E0
3.381895219E0,-2.530409992E-1,-1.028913707E-1,9.888040543E0
3.384321157E0,-2.291127741E-1,-1.148554832E-1,9.888040543E0
3.386747094E0,-2.243271172E-1,-8.853443712E-2,9.895218849E0
3.389173032E0,-2.315055877E-1,-1.196411327E-1,9.890433311E0
3.391598969E0,-2.362912297E-1,-9.810572863E-2,9.880862236E0
3.394024907E0,-2.506481707E-1,-1.028913707E-1,9.890433311E0
3.396450844E0,-2.434697002E-1,-1.148554832E-1,9.885647774E0
3.398876782E0,-2.458625287E-1,-9.810572863E-2,9.892826080E0
3.401302719E0,-2.530409992E-1,-9.332008660E-2,9.895218849E0
3.403728657E0,-2.315055877E-1,-1.244267747E-1,9.871291161E0
3.406154594E0,-2.338984162E-1,-9.092725813E-2,9.892826080E0
3.408580532E0,-2.554338276E-1,-1.076770201E-1,9.883255005E0
3.411006469E0,-2.315055877E-1,-1.196411327E-1,9.888040543E0
3.413432407E0,-2.219343036E-1,-1.100698411E-1,9.885647774E0
3.415858344E0,-2.315055877E-1,-9.810572863E-2,9.900004387E0
3.418284282E0,-2.554338276E-1,-1.100698411E-1,9.873683929E0
3.420710219E0,-2.362912297E-1,-1.052841991E-1,9.890433311E0
3.423136157E0,-2.338984162E-1,-1.052841991E-1,9.890433311E0
3.425562094E0,-2.267199457E-1,-1.028913707E-1,9.873683929E0
3.427988032E0,-2.219343036E-1,-1.004985496E-1,9.895218849E0
3.430413969E0,-2.291127741E-1,-1.124626622E-1,9.904789925E0
3.432839907E0,-2.219343036E-1,-9.571290761E-2,9.871291161E0
3.435265844E0,-2.386840582E-1,-8.374879509E-2,9.871291161E0
3.437691782E0,-2.386840582E-1,-7.896314561E-2,9.890433311E0
3.440117719E0,-2.602194548E-1,-1.052841991E-1,9.878469467E0
3.442543657E0,-2.410768867E-1,-8.614161611E-2,9.871291161E0
3.444969594E0,-2.482553422E-1,-8.614161611E-2,9.878469467E0
3.447395532E0,-2.530409992E-1,-8.614161611E-2,9.892826080E0
3.449821469E0,-2.338984162E-1,-1.052841991E-1,9.904789925E0
3.452247407E0,-2.482553422E-1,-1.052841991E-1,9.888040543E0
3.454673344E0,-2.315055877E-1,-1.052841991E-1,9.890433311E0
3.457099282E0,-2.721835673E-1,-1.100698411E-1,9.888040543E0
3.459525219E0,-2.267199457E-1,-1.052841991E-1,9.897611618E0
3.461951157E0,-2.267199457E-1,-9.810572863E-2,9.864111900E0
3.464377094E0,-2.506481707E-1,-1.004985496E-1,9.868897438E0
3.466803032E0,-2.410768867E-1,-1.148554832E-1,9.878469467E0
3.469228969E0,-2.458625287E-1,-1.076770201E-1,9.873683929E0
3.471654907E0,-2.219343036E-1,-1.004985496E-1,9.907182693E0
3.474080844E0,-2.075773627E-1,-1.076770201E-1,9.897611618E0
3.476506782E0,-2.458625287E-1,-1.339980662E-1,9.885647774E0
3.478932719E0,-2.267199457E-1,-9.332008660E-2,9.885647774E0
3.481358657E0,-2.362912297E-1,-1.148554832E-1,9.876076698E0
3.483784594E0,-2.530409992E-1,-1.124626622E-1,9.885647774E0
3.486210532E0,-2.386840582E-1,-8.374879509E-2,9.885647774E0
3.488636469E0,-2.410768867E-1,-1.148554832E-1,9.871291161E0
3.491062407E0,-2.506481707E-1,-9.092725813E-2,9.890433311E0
3.493488344E0,-2.315055877E-1,-1.148554832E-1,9.888040543E0
3.495914282E0,-2.458625287E-1,-1.100698411E-1,9.868897438E0
3.498340219E0,-2.315055877E-1,-1.076770201E-1,9.880862236E0
3.500766157E0,-2.315055877E-1,-1.100698411E-1,9.895218849E0
3.503192094E0,-2.434697002E-1,-9.810572863E-2,9.885647774E0
3.505618032E0,-2.267199457E-1,-1.028913707E-1,9.866504669E0
3.508043969E0,-2.123630047E-1,-1.148554832E-1,9.888040543E0
3.510469907E0,-2.602194548E-1,-1.076770201E-1,9.885647774E0
3.512895844E0,-2.338984162E-1,-9.332008660E-2,9.892826080E0
3.515321782E0,-2.554338276E-1,-1.028913707E-1,9.885647774E0
3.517747719E0,-2.267199457E-1,-9.332008660E-2,9.904789925E0
3.520173657E0,-2.362912297E-1,-9.332008660E-2,9.876076698E0
3.522599594E0,-2.362912297E-1,-7.896314561E-2,9.895218849E0
3.525025532E0,-2.386840582E-1,-9.571290761E-2,9.900004387E0
3.527451469E0,-2.458625287E-1,-1.100698411E-1,9.907182693E0
3.529877407E0,-2.506481707E-1,-1.172483116E-1,9.868897438E0
3.532303344E0,-2.626122832E-1,-1.004985496E-1,9.883255005E0
3.534729282E0,-2.434697002E-1,-1.076770201E-1,9.876076698E0
3.537155219E0,-2.410768867E-1,-1.196411327E-1,9.880862236E0
3.539581157E0,-2.315055877E-1,-1.076770201E-1,9.876076698E0
3.542007094E0,-2.243271172E-1,-1.100698411E-1,9.873683929E0
3.544433032E0,-2.578266263E-1,-1.196411327E-1,9.880862236E0
3.546858969E0,-2.506481707E-1,-1.052841991E-1,9.878469467E0
3.549284907E0,-2.458625287E-1,-8.614161611E-2,9.873683929E0
3.551710844E0,-2.410768867E-1,-1.148554832E-1,9.849755287E0
3.554136782E0,-2.554338276E-1,-9.810572863E-2,9.876076698E0
3.556562719E0,-2.434697002E-1,-1.172483116E-1,9.878469467E0
3.558988657E0,-2.530409992E-1,-1.220339537E-1,9.871291161E0
3.561414594E0,-2.338984162E-1,-9.571290761E-2,9.902397156E0
3.563840532E0,-2.386840582E-1,-9.571290761E-2,9.885647774E0
3.566266469E0,-2.362912297E-1,-1.076770201E-1,9.873683929E0
3.568692407E0,-2.386840582E-1,-8.614161611E-2,9.885647774E0
3.571118344E0,-2.362912297E-1,-8.374879509E-2,9.876076698E0
3.573544282E0,-2.458625287E-1,-1.028913707E-1,9.890433311E0
3.575970219E0,-2.291127741E-1,-7.178468257E-2,9.904789925E0
3.578396157E0,-2.554338276E-1,-1.004985496E-1,9.883255005E0
3.580822094E0,-2.506481707E-1,-1.004985496E-1,9.888040543E0
3.583248032E0,-2.362912297E-1,-1.052841991E-1,9.895218849E0
3.585673969E0,-2.434697002E-1,-1.004985496E-1,9.880862236E0
3.588099907E0,-2.147558331E-1,-1.076770201E-1,9.873683929E0
3.590525844E0,-2.267199457E-1,-9.571290761E-2,9.888040543E0
3.592951782E0,-2.578266263E-1,-9.810572863E-2,9.885647774E0
3.595377719E0,-2.458625287E-1,-9.571290761E-2,9.883255005E0
3.597803657E0,-2.506481707E-1,-9.332008660E-2,9.892826080E0
3.600229594E0,-2.267199457E-1,-1.100698411E-1,9.897611618E0
3.602655532E0,-2.554338276E-1,-7.896314561E-2,9.890433311E0
3.605081469E0,-2.482553422E-1,-1.076770201E-1,9.880862236E0
3.607507407E0,-2.338984162E-1,-1.268195957E-1,9.883255005E0
3.609933344E0,-2.434697002E-1,-1.124626622E-1,9.907182693E0
3.612359282E0,-2.123630047E-1,-1.100698411E-1,9.914361954E0
3.614785219E0,-2.410768867E-1,-1.124626622E-1,9.892826080E0
3.617211157E0,-2.362912297E-1,-1.100698411E-1,9.895218849E0
3.619637094E0,-2.434697002E-1,-1.028913707E-1,9.885647774E0
3.622063032E0,-2.195414752E-1,-1.220339537E-1,9.909575462E0
3.624488969E0,-2.434697002E-1,-1.052841991E-1,9.885647774E0
3.626914907E0,-2.482553422E-1,-8.614161611E-2,9.871291161E0
3.629340844E0,-2.482553422E-1,-9.332008660E-2,9.888040543E0
3.631766782E0,-2.338984162E-1,-1.052841991E-1,9.866504669E0
3.634192719E0,-2.171486616E-1,-1.076770201E-1,9.873683929E0
3.636618657E0,-2.602194548E-1,-9.092725813E-2,9.852148056E0
3.639044594E0,-2.506481707E-1,-1.004985496E-1,9.892826080E0
3.641470532E0,-2.530409992E-1,-1.028913707E-1,9.880862236E0
3.643896469E0,-2.458625287E-1,-1.220339537E-1,9.888040543E0
3.646322407E0,-2.171486616E-1,-1.076770201E-1,9.873683929E0
3.648748344E0,-2.291127741E-1,-7.896314561E-2,9.885647774E0
3.651174282E0,-2.554338276E-1,-9.332008660E-2,9.880862236E0
3.653600219E0,-2.195414752E-1,-1.100698411E-1,9.890433311E0
3.656026157E0,-2.386840582E-1,-1.076770201E-1,9.902397156E0
3.658452094E0,-2.434697002E-1,-9.571290761E-2,9.904789925E0
3.660878032E0,-2.338984162E-1,-1.124626622E-1,9.890433311E0
3.663303969E0,-2.554338276E-1,-1.124626622E-1,9.900004387E0
3.665729907E0,-2.219343036E-1,-1.028913707E-1,9.883255005E0
3.668155844E0,-2.219343036E-1,-1.076770201E-1,9.878469467E0
3.670581782E0,-2.243271172E-1,-1.052841991E-1,9.888040543E0
3.673007719E0,-2.362912297E-1,-1.076770201E-1,9.871291161E0
3.675433657E0,-2.315055877E-1,-1.028913707E-1,9.892826080E0
3.677859594E0,-2.578266263E-1,-1.052841991E-1,9.880862236E0
3.680285532E0,-2.338984162E-1,-1.148554832E-1,9.878469467E0
3.682711469E0,-2.506481707E-1,-1.076770201E-1,9.885647774E0
3.685137407E0,-2.123630047E-1,-8.374879509E-2,9.878469467E0
3.687563344E0,-2.458625287E-1,-1.004985496E-1,9.885647774E0
3.689989282E0,-2.291127741E-1,-1.076770201E-1,9.885647774E0
3.692415219E0,-2.051845491E-1,-1.172483116E-1,9.909575462E0
3.694841157E0,-2.602194548E-1,-1.268195957E-1,9.897611618E0
3.697267094E0,-2.315055877E-1,-1.172483116E-1,9.883255005E0
3.699693032E0,-2.602194548E-1,-1.316052526E-1,9.902397156E0
3.702118969E0,-2.434697002E-1,-1.100698411E-1,9.878469467E0
3.704544907E0,-2.410768867E-1,-1.100698411E-1,9.871291161E0
3.706970844E0,-2.410768867E-1,-1.004985496E-1,9.890433311E0
3.709396782E0,-2.386840582E-1,-1.028913707E-1,9.885647774E0
3.711822719E0,-2.195414752E-1,-1.148554832E-1,9.890433311E0
3.714248657E0,-2.506481707E-1,-1.076770201E-1,9.885647774E0
3.716674594E0,-2.291127741E-1,-1.148554832E-1,9.890433311E0
3.719100532E0,-2.051845491E-1,-1.052841991E-1,9.878469467E0
3.721526469E0,-2.434697002E-1,-9.571290761E-2,9.890433311E0
3.723952407E0,-2.506481707E-1,-1.004985496E-1,9.871291161E0
3.726378344E0,-2.506481707E-1,-1.124626622E-1,9.897611618E0
3.728804282E0,-2.673979402E-1,-1.124626622E-1,9.888040543E0
3.731230219E0,-2.554338276E-1,-1.172483116E-1,9.907182693E0
3.733656157E0,-2.123630047E-1,-1.028913707E-1,9.880862236E0
3.736082094E0,-2.338984162E-1,-1.148554832E-1,9.890433311E0
3.738508032E0,-2.267199457E-1,-1.124626622E-1,9.892826080E0
3.740933969E0,-2.626122832E-1,-9.332008660E-2,9.885647774E0
3.743359907E0,-2.602194548E-1,-9.571290761E-2,9.880862236E0
3.745785844E0,-2.267199457E-1,-9.810572863E-2,9.892826080E0
3.748211782E0,-2.219343036E-1,-1.028913707E-1,9.885647774E0
3.750637719E0,-2.482553422E-1,-9.810572863E-2,9.892826080E0
3.753063657E0,-2.626122832E-1,-1.028913707E-1,9.890433311E0
3.755489594E0,-2.291127741E-1,-9.092725813E-2,9.907182693E0
3.757915532E0,-2.291127741E-1,-1.100698411E-1,9.892826080E0
3.760341469E0,-2.482553422E-1,-1.148554832E-1,9.890433311E0
3.762767407E0,-2.243271172E-1,-1.220339537E-1,9.892826080E0
3.765193344E0,-2.482553422E-1,-1.076770201E-1,9.880862236E0
3.767619282E0,-2.338984162E-1,-1.028913707E-1,9.895218849E0
3.770045219E0,-2.434697002E-1,-1.100698411E-1,9.868897438E0
3.772471157E0,-2.362912297E-1,-9.571290761E-2,9.885647774E0
3.774897094E0,-2.243271172E-1,-1.028913707E-1,9.880862236E0
3.777323032E0,-2.267199457E-1,-1.172483116E-1,9.911968231E0
3.779748969E0,-2.650051117E-1,-1.076770201E-1,9.878469467E0
3.782174907E0,-2.410768867E-1,-1.172483116E-1,9.876076698E0
3.784600844E0,-2.434697002E-1,-1.172483116E-1,9.883255005E0
3.787026782E0,-2.386840582E-1,-1.052841991E-1,9.873683929E0
3.789452719E0,-2.386840582E-1,-1.100698411E-1,9.873683929E0
3.791878657E0,-2.458625287E-1,-1.196411327E-1,9.883255005E0
3.794304594E0,-2.410768867E-1,-1.028913707E-1,9.871291161E0
3.796730532E0,-2.530409992E-1,-9.810572863E-2,9.880862236E0
3.799156469E0,-2.506481707E-1,-9.332008660E-2,9.876076698E0
3.801582407E0,-2.434697002E-1,-1.196411327E-1,9.859326363E0
3.804008344E0,-2.362912297E-1,-9.332008660E-2,9.861719131E0
3.806434282E0,-2.362912297E-1,-1.004985496E-1,9.864111900E0
3.808860219E0,-2.410768867E-1,-1.004985496E-1,9.871291161E0
3.811286157E0,-2.267199457E-1,-1.004985496E-1,9.873683929E0
3.813712094E0,-2.458625287E-1,-1.172483116E-1,9.868897438E0
3.816138032E0,-2.506481707E-1,-1.292124242E-1,9.880862236E0
3.818563969E0,-2.434697002E-1,-1.100698411E-1,9.890433311E0
3.820989907E0,-2.386840582E-1,-1.100698411E-1,9.892826080E0
3.823415844E0,-2.362912297E-1,-8.853443712E-2,9.880862236E0
3.825841782E0,-2.434697002E-1,-8.614161611E-2,9.888040543E0
3.828267719E0,-2.434697002E-1,-1.076770201E-1,9.876076698E0
3.830693657E0,-2.243271172E-1,-1.124626622E-1,9.892826080E0
3.833119594E0,-2.051845491E-1,-8.853443712E-2,9.900004387E0
3.835545532E0,-2.243271172E-1,-1.052841991E-1,9.885647774E0
3.837971469E0,-2.434697002E-1,-1.028913707E-1,9.864111900E0
3.840397407E0,-2.434697002E-1,-1.052841991E-1,9.888040543E0
3.842823344E0,-2.434697002E-1,-8.853443712E-2,9.876076698E0
3.845249282E0,-2.482553422E-1,-1.028913707E-1,9.888040543E0
3.847675219E0,-2.458625287E-1,-8.374879509E-2,9.878469467E0
3.850101157E0,-2.410768867E-1,-1.100698411E-1,9.888040543E0
3.852527094E0,-2.267199457E-1,-1.028913707E-1,9.871291161E0
3.854953032E0,-2.243271172E-1,-1.052841991E-1,9.888040543E0
3.857378969E0,-2.410768867E-1,-1.100698411E-1,9.897611618E0
3.859804907E0,-2.171486616E-1,-1.028913707E-1,9.888040543E0
3.862230844E0,-2.219343036E-1,-1.076770201E-1,9.885647774E0
3.864656782E0,-2.267199457E-1,-9.332008660E-2,9.880862236E0
3.867082719E0,-2.458625287E-1,-1.124626622E-1,9.880862236E0
3.869508657E0,-2.171486616E-1,-8.374879509E-2,9.885647774E0
3.871934594E0,-2.243271172E-1,-1.004985496E-1,9.897611618E0
3.874360532E0,-2.458625287E-1,-1.100698411E-1,9.873683929E0
3.876786469E0,-2.291127741E-1,-1.004985496E-1,9.876076698E0
3.879212407E0,-2.291127741E-1,-9.332008660E-2,9.900004387E0
3.881638344E0,-2.315055877E-1,-1.148554832E-1,9.890433311E0
3.884064282E0,-2.410768867E-1,-1.100698411E-1,9.878469467E0
3.886490219E0,-2.482553422E-1,-1.052841991E-1,9.892826080E0
3.888916157E0,-2.530409992E-1,-1.172483116E-1,9.897611618E0
3.891342094E0,-2.602194548E-1,-1.148554832E-1,9.878469467E0
3.893768032E0,-2.291127741E-1,-1.100698411E-1,9.871291161E0
3.896193969E0,-2.338984162E-1,-8.853443712E-2,9.883255005E0
3.898619907E0,-2.338984162E-1,-8.853443712E-2,9.873683929E0
3.901045844E0,-2.506481707E-1,-1.076770201E-1,9.883255005E0
3.903471782E0,-2.458625287E-1,-9.810572863E-2,9.878469467E0
3.905897719E0,-2.219343036E-1,-8.135596663E-2,9.876076698E0
3.908323657E0,-2.386840582E-1,-9.332008660E-2,9.883255005E0
3.910749594E0,-2.027917206E-1,-1.052841991E-1,9.885647774E0
3.913175532E0,-2.362912297E-1,-1.196411327E-1,9.883255005E0
3.915601469E0,-2.291127741E-1,-1.172483116E-1,9.876076698E0
3.918027407E0,-2.386840582E-1,-1.052841991E-1,9.876076698E0
3.920453344E0,-2.338984162E-1,-1.004985496E-1,9.892826080E0
3.922879282E0,-2.458625287E-1,-1.076770201E-1,9.885647774E0
3.925305219E0,-2.362912297E-1,-1.220339537E-1,9.888040543E0
3.927731157E0,-2.362912297E-1,-1.028913707E-1,9.895218849E0
3.930157094E0,-2.219343036E-1,-8.614161611E-2,9.873683929E0
3.932583032E0,-2.243271172E-1,-1.076770201E-1,9.871291161E0
3.935008969E0,-2.267199457E-1,-1.028913707E-1,9.888040543E0
3.937434907E0,-2.506481707E-1,-9.092725813E-2,9.885647774E0
3.939860844E0,-2.650051117E-1,-1.052841991E-1,9.866504669E0
3.942286782E0,-2.434697002E-1,-9.332008660E-2,9.876076698E0
3.944712719E0,-2.243271172E-1,-1.124626622E-1,9.871291161E0
3.947138657E0,-2.554338276E-1,-1.004985496E-1,9.892826080E0
3.949564594E0,-2.291127741E-1,-1.004985496E-1,9.876076698E0
3.951990532E0,-2.051845491E-1,-9.810572863E-2,9.921540260E0
3.954416469E0,-2.267199457E-1,-1.052841991E-1,9.883255005E0
3.956842407E0,-2.338984162E-1,-1.124626622E-1,9.873683929E0
3.959268344E0,-2.267199457E-1,-1.052841991E-1,9.871291161E0
3.961694282E0,-2.267199457E-1,-8.374879509E-2,9.885647774E0
3.964120219E0,-2.578266263E-1,-9.810572863E-2,9.885647774E0
3.966546157E0,-2.482553422E-1,-1.052841991E-1,9.885647774E0
3.968972094E0,-2.315055877E-1,-1.076770201E-1,9.880862236E0
3.971397980E0,-2.267199457E-1,-8.853443712E-2,9.876076698E0
3.973823969E0,-2.482553422E-1,-8.853443712E-2,9.878469467E0
3.976249907E0,-2.458625287E-1,-9.810572863E-2,9.892826080E0
3.978675844E0,-2.410768867E-1,-1.148554832E-1,9.885647774E0
3.981101730E0,-2.506481707E-1,-1.196411327E-1,9.878469467E0
3.983527719E0,-2.626122832E-1,-1.100698411E-1,9.883255005E0
3.985953657E0,-2.362912297E-1,-1.220339537E-1,9.890433311E0
3.988379594E0,-2.458625287E-1,-9.332008660E-2,9.866504669E0
3.990805532E0,-2.410768867E-1,-1.244267747E-1,9.871291161E0
3.993231469E0,-2.243271172E-1,-1.028913707E-1,9.856933594E0
3.995657407E0,-2.362912297E-1,-1.028913707E-1,9.890433311E0
3.998083344E0,-2.338984162E-1,-1.004985496E-1,9.888040543E0
4.000509230E0,-2.482553422E-1,-1.148554832E-1,9.883255005E0
4.002935219E0,-2.482553422E-1,-1.100698411E-1,9.880862236E0
4.005361105E0,-2.362912297E-1,-9.810572863E-2,9.892826080E0
4.007787094E0,-2.386840582E-1,-1.052841991E-1,9.878469467E0
4.010212980E0,-2.362912297E-1,-1.052841991E-1,9.895218849E0
4.012638917E0,-2.506481707E-1,-1.052841991E-1,9.885647774E0
4.015064855E0,-2.147558331E-1,-1.148554832E-1,9.900004387E0
4.017490792E0,-2.386840582E-1,-1.076770201E-1,9.873683929E0
4.019916730E0,-2.386840582E-1,-1.004985496E-1,9.880862236E0
4.022342667E0,-2.195414752E-1,-1.124626622E-1,9.895218849E0
4.024768657E0,-2.506481707E-1,-1.148554832E-1,9.892826080E0
4.027194542E0,-2.410768867E-1,-1.052841991E-1,9.878469467E0
4.029620480E0,-2.554338276E-1,-1.028913707E-1,9.878469467E0
4.032046417E0,-2.626122832E-1,-9.571290761E-2,9.856933594E0
4.034472355E0,-2.482553422E-1,-1.028913707E-1,9.864111900E0
4.036898292E0,-2.434697002E-1,-1.052841991E-1,9.871291161E0
4.039324230E0,-2.482553422E-1,-9.810572863E-2,9.885647774E0
4.041750167E0,-2.075773627E-1,-1.100698411E-1,9.897611618E0
4.044176105E0,-2.554338276E-1,-1.148554832E-1,9.900004387E0
4.046602042E0,-2.602194548E-1,-1.028913707E-1,9.864111900E0
4.049027980E0,-2.482553422E-1,-1.028913707E-1,9.866504669E0
4.051453917E0,-2.434697002E-1,-9.332008660E-2,9.880862236E0
4.053879855E0,-2.410768867E-1,-8.853443712E-2,9.890433311E0
4.056305792E0,-2.171486616E-1,-9.810572863E-2,9.890433311E0
4.058731730E0,-2.362912297E-1,-9.810572863E-2,9.890433311E0
4.061157667E0,-2.410768867E-1,-9.092725813E-2,9.880862236E0
4.063583605E0,-2.673979402E-1,-1.124626622E-1,9.890433311E0
4.066009542E0,-2.530409992E-1,-9.810572863E-2,9.878469467E0
4.068435480E0,-2.219343036E-1,-1.172483116E-1,9.895218849E0
4.070861417E0,-2.482553422E-1,-1.004985496E-1,9.883255005E0
4.073287355E0,-2.650051117E-1,-1.100698411E-1,9.878469467E0
4.075713292E0,-2.482553422E-1,-1.268195957E-1,9.885647774E0
4.078139230E0,-2.482553422E-1,-1.028913707E-1,9.888040543E0
4.080565167E0,-2.291127741E-1,-1.076770201E-1,9.904789925E0
4.082991105E0,-2.434697002E-1,-1.004985496E-1,9.885647774E0
4.085417042E0,-2.530409992E-1,-7.896314561E-2,9.890433311E0
4.087842980E0,-2.386840582E-1,-9.571290761E-2,9.888040543E0
4.090268917E0,-2.458625287E-1,-1.004985496E-1,9.864111900E0
4.092694855E0,-2.267199457E-1,-1.220339537E-1,9.883255005E0
4.095120792E0,-2.243271172E-1,-1.052841991E-1,9.911968231E0
4.097546730E0,-2.171486616E-1,-1.100698411E-1,9.871291161E0
4.099972667E0,-2.410768867E-1,-1.220339537E-1,9.890433311E0
4.102398605E0,-2.554338276E-1,-1.100698411E-1,9.895218849E0
4.104824542E0,-2.315055877E-1,-1.172483116E-1,9.890433311E0
4.107250480E0,-2.219343036E-1,-1.172483116E-1,9.885647774E0
4.109676417E0,-2.626122832E-1,-9.571290761E-2,9.883255005E0
4.112102355E0,-2.482553422E-1,-1.028913707E-1,9.883255005E0
4.114528292E0,-2.243271172E-1,-1.028913707E-1,9.897611618E0
4.116954230E0,-2.362912297E-1,-7.657032460E-2,9.878469467E0
4.119380167E0,-2.482553422E-1,-9.332008660E-2,9.868897438E0
4.121806105E0,-2.171486616E-1,-9.810572863E-2,9.885647774E0
4.124232042E0,-2.243271172E-1,-9.571290761E-2,9.888040543E0
4.126657980E0,-2.267199457E-1,-1.100698411E-1,9.883255005E0
4.129083917E0,-2.578266263E-1,-1.244267747E-1,9.876076698E0
4.131509855E0,-2.267199457E-1,-1.148554832E-1,9.888040543E0
4.133935792E0,-2.482553422E-1,-9.571290761E-2,9.880862236E0
4.136361730E0,-2.530409992E-1,-1.004985496E-1,9.866504669E0
4.138787667E0,-2.362912297E-1,-8.614161611E-2,9.902397156E0
4.141213605E0,-2.267199457E-1,-9.810572863E-2,9.890433311E0
4.143639542E0,-2.267199457E-1,-8.135596663E-2,9.871291161E0
4.146065480E0,-2.243271172E-1,-1.124626622E-1,9.890433311E0
4.148491417E0,-2.315055877E-1,-1.004985496E-1,9.883255005E0
4.150917355E0,-2.554338276E-1,-1.052841991E-1,9.892826080E0
4.153343292E0,-2.315055877E-1,-1.124626622E-1,9.880862236E0
4.155769230E0,-2.123630047E-1,-1.244267747E-1,9.873683929E0
4.158195167E0,-2.410768867E-1,-1.028913707E-1,9.892826080E0
4.160621105E0,-2.338984162E-1,-1.220339537E-1,9.892826080E0
4.163047042E0,-2.386840582E-1,-1.124626622E-1,9.864111900E0
4.165472980E0,-2.171486616E-1,-9.810572863E-2,9.890433311E0
4.167898917E0,-2.338984162E-1,-9.810572863E-2,9.880862236E0
4.170324855E0,-2.434697002E-1,-1.052841991E-1,9.897611618E0
4.172750792E0,-2.769692242E-1,-1.028913707E-1,9.892826080E0
4.175176730E0,-2.506481707E-1,-1.028913707E-1,9.888040543E0
4.177602667E0,-2.315055877E-1,-1.172483116E-1,9.883255005E0
4.180028605E0,-2.482553422E-1,-9.810572863E-2,9.876076698E0
4.182454542E0,-2.650051117E-1,-9.332008660E-2,9.890433311E0
4.184880480E0,-2.530409992E-1,-1.028913707E-1,9.854540825E0
4.187306417E0,-2.386840582E-1,-1.028913707E-1,9.895218849E0
4.189732355E0,-2.315055877E-1,-9.332008660E-2,9.878469467E0
4.192158292E0,-2.410768867E-1,-8.135596663E-2,9.883255005E0
4.194584230E0,-2.386840582E-1,-1.028913707E-1,9.900004387E0
4.197010167E0,-2.434697002E-1,-1.004985496E-1,9.890433311E0
4.199436105E0,-2.554338276E-1,-1.172483116E-1,9.890433311E0
4.201862042E0,-2.458625287E-1,-1.100698411E-1,9.873683929E0
4.204287980E0,-2.506481707E-1,-1.124626622E-1,9.873683929E0
4.206713917E0,-2.458625287E-1,-1.172483116E-1,9.876076698E0
4.209139855E0,-2.315055877E-1,-1.100698411E-1,9.883255005E0
4.211565792E0,-2.386840582E-1,-8.853443712E-2,9.878469467E0
4.213991730E0,-2.410768867E-1,-1.004985496E-1,9.871291161E0
4.216417667E0,-2.458625287E-1,-1.172483116E-1,9.895218849E0
4.218843605E0,-2.410768867E-1,-9.092725813E-2,9.885647774E0
4.221269542E0,-2.458625287E-1,-1.148554832E-1,9.878469467E0
4.223695480E0,-2.434697002E-1,-1.196411327E-1,9.885647774E0
4.226121417E0,-2.338984162E-1,-1.028913707E-1,9.883255005E0
4.228547355E0,-2.195414752E-1,-1.148554832E-1,9.888040543E0
4.230973292E0,-2.482553422E-1,-1.124626622E-1,9.897611618E0
4.233399230E0,-2.410768867E-1,-1.124626622E-1,9.868897438E0
4.235825167E0,-2.434697002E-1,-1.339980662E-1,9.890433311E0
4.238251105E0,-2.267199457E-1,-1.028913707E-1,9.883255005E0
4.240677042E0,-2.578266263E-1,-8.853443712E-2,9.868897438E0
4.243102980E0,-2.410768867E-1,-9.571290761E-2,9.864111900E0
4.245528917E0,-2.243271172E-1,-8.853443712E-2,9.900004387E0
4.247954855E0,-2.530409992E-1,-9.092725813E-2,9.883255005E0
4.250380792E0,-2.434697002E-1,-8.853443712E-2,9.897611618E0
4.252806730E0,-2.195414752E-1,-9.332008660E-2,9.900004387E0
4.255232667E0,-2.315055877E-1,-1.004985496E-1,9.883255005E0
4.257658605E0,-2.482553422E-1,-9.571290761E-2,9.883255005E0
4.260084542E0,-2.386840582E-1,-9.092725813E-2,9.897611618E0
4.262510480E0,-2.315055877E-1,-1.124626622E-1,9.876076698E0
4.264936417E0,-2.482553422E-1,-1.004985496E-1,9.892826080E0
4.267362355E0,-2.315055877E-1,-1.076770201E-1,9.880862236E0
4.269788292E0,-2.673979402E-1,-7.896314561E-2,9.876076698E0
4.272214230E0,-2.315055877E-1,-1.316052526E-1,9.876076698E0
4.274640167E0,-2.362912297E-1,-1.196411327E-1,9.880862236E0
4.277066105E0,-2.315055877E-1,-9.810572863E-2,9.861719131E0
4.279492042E0,-2.458625287E-1,-9.332008660E-2,9.897611618E0
4.281917980E0,-2.267199457E-1,-8.135596663E-2,9.890433311E0
4.284343917E0,-2.171486616E-1,-8.853443712E-2,9.866504669E0
4.286769855E0,-2.315055877E-1,-1.052841991E-1,9.868897438E0
4.289195792E0,-2.506481707E-1,-1.148554832E-1,9.895218849E0
4.291621730E0,-2.362912297E-1,-1.004985496E-1,9.895218849E0
4.294047667E0,-2.147558331E-1,-8.614161611E-2,9.888040543E0
4.296473605E0,-2.362912297E-1,-1.100698411E-1,9.888040543E0
4.298899542E0,-2.602194548E-1,-9.810572863E-2,9.880862236E0
4.301325480E0,-2.362912297E-1,-1.244267747E-1,9.895218849E0
4.303751417E0,-2.267199457E-1,-1.220339537E-1,9.873683929E0
4.306177355E0,-2.482553422E-1,-1.052841991E-1,9.895218849E0
4.308603292E0,-2.386840582E-1,-8.614161611E-2,9.880862236E0
4.311029230E0,-2.434697002E-1,-1.124626622E-1,9.883255005E0
4.313455167E0,-2.386840582E-1,-1.124626622E-1,9.885647774E0
4.315881105E0,-2.458625287E-1,-1.028913707E-1,9.871291161E0
4.318307042E0,-2.434697002E-1,-9.810572863E-2,9.880862236E0
4.320732980E0,-2.243271172E-1,-1.100698411E-1,9.885647774E0
4.323158917E0,-2.291127741E-1,-1.100698411E-1,9.885647774E0
4.325584855E0,-2.386840582E-1,-1.220339537E-1,9.873683929E0
4.328010792E0,-2.386840582E-1,-1.052841991E-1,9.885647774E0
4.330436730E0,-2.291127741E-1,-1.004985496E-1,9.880862236E0
4.332862667E0,-2.434697002E-1,-9.092725813E-2,9.878469467E0
4.335288605E0,-2.458625287E-1,-1.196411327E-1,9.885647774E0
4.337714542E0,-2.410768867E-1,-1.220339537E-1,9.890433311E0
4.340140428E0,-2.338984162E-1,-1.028913707E-1,9.890433311E0
4.342566417E0,-2.530409992E-1,-9.571290761E-2,9.868897438E0
4.344992303E0,-2.410768867E-1,-9.571290761E-2,9.900004387E0
4.347418292E0,-2.099701911E-1,-1.052841991E-1,9.888040543E0
4.349844230E0,-2.386840582E-1,-8.374879509E-2,9.880862236E0
4.352270167E0,-2.219343036E-1,-1.124626622E-1,9.880862236E0
4.354696053E0,-2.243271172E-1,-1.076770201E-1,9.883255005E0
4.357121990E0,-2.386840582E-1,-1.028913707E-1,9.885647774E0
4.359547980E0,-2.554338276E-1,-9.092725813E-2,9.873683929E0
4.361973865E0,-2.315055877E-1,-1.052841991E-1,9.873683929E0
4.364399803E0,-2.338984162E-1,-1.076770201E-1,9.859326363E0
4.366825740E0,-2.267199457E-1,-1.052841991E-1,9.876076698E0
4.369251678E0,-2.482553422E-1,-1.028913707E-1,9.878469467E0
4.371677615E0,-2.410768867E-1,-9.092725813E-2,9.880862236E0
4.374103553E0,-2.338984162E-1,-9.092725813E-2,9.876076698E0
4.376529490E0,-2.530409992E-1,-1.028913707E-1,9.914361954E0
4.378955428E0,-2.171486616E-1,-1.004985496E-1,9.888040543E0
4.381381365E0,-2.362912297E-1,-1.028913707E-1,9.888040543E0
4.383807303E0,-2.458625287E-1,-1.196411327E-1,9.883255005E0
4.386233240E0,-2.482553422E-1,-9.332008660E-2,9.878469467E0
4.388659178E0,-2.434697002E-1,-1.052841991E-1,9.859326363E0
4.391085115E0,-2.458625287E-1,-1.244267747E-1,9.861719131E0
4.393511053E0,-2.434697002E-1,-1.052841991E-1,9.871291161E0
4.395936990E0,-2.051845491E-1,-9.571290761E-2,9.871291161E0
4.398362928E0,-2.099701911E-1,-1.244267747E-1,9.888040543E0
4.400788865E0,-2.362912297E-1,-1.052841991E-1,9.883255005E0
4.403214803E0,-2.338984162E-1,-1.052841991E-1,9.868897438E0
4.405640740E0,-2.219343036E-1,-1.028913707E-1,9.873683929E0
4.408066678E0,-2.291127741E-1,-1.196411327E-1,9.866504669E0
4.410492615E0,-2.171486616E-1,-1.196411327E-1,9.873683929E0
4.412918553E0,-2.386840582E-1,-1.148554832E-1,9.888040543E0
4.415344490E0,-2.554338276E-1,-1.124626622E-1,9.902397156E0
4.417770428E0,-2.315055877E-1,-1.124626622E-1,9.873683929E0
4.420196365E0,-2.243271172E-1,-1.004985496E-1,9.890433311E0
4.422622303E0,-2.267199457E-1,-9.810572863E-2,9.880862236E0
4.425048240E0,-2.410768867E-1,-9.571290761E-2,9.871291161E0
4.427474178E0,-2.386840582E-1,-1.052841991E-1,9.871291161E0
4.429900115E0,-2.482553422E-1,-1.004985496E-1,9.883255005E0
4.432326053E0,-2.410768867E-1,-9.571290761E-2,9.885647774E0
4.434751990E0,-2.506481707E-1,-9.571290761E-2,9.885647774E0
4.437177928E0,-2.147558331E-1,-9.092725813E-2,9.868897438E0
4.439603865E0,-2.458625287E-1,-9.571290761E-2,9.883255005E0
4.442029803E0,-2.410768867E-1,-9.810572863E-2,9.878469467E0
4.444455740E0,-2.315055877E-1,-9.810572863E-2,9.880862236E0
4.446881678E0,-2.434697002E-1,-1.124626622E-1,9.873683929E0
4.449307615E0,-2.362912297E-1,-1.100698411E-1,9.897611618E0
4.451733553E0,-2.338984162E-1,-1.124626622E-1,9.888040543E0
4.454159490E0,-2.219343036E-1,-1.052841991E-1,9.880862236E0
4.456585428E0,-2.219343036E-1,-1.148554832E-1,9.888040543E0
4.459011365E0,-2.243271172E-1,-1.339980662E-1,9.897611618E0
4.461437303E0,-2.219343036E-1,-1.028913707E-1,9.883255005E0
4.463863240E0,-2.338984162E-1,-9.571290761E-2,9.878469467E0
4.466289178E0,-2.338984162E-1,-1.004985496E-1,9.883255005E0
4.468715115E0,-2.386840582E-1,-9.332008660E-2,9.892826080E0
4.471141053E0,-2.315055877E-1,-1.076770201E-1,9.876076698E0
4.473566990E0,-2.315055877E-1,-1.100698411E-1,9.866504669E0
4.475992928E0,-2.171486616E-1,-1.004985496E-1,9.890433311E0
4.478418865E0,-2.530409992E-1,-9.571290761E-2,9.902397156E0
4.480844803E0,-2.338984162E-1,-9.571290761E-2,9.890433311E0
4.483270740E0,-2.386840582E-1,-1.100698411E-1,9.871291161E0
4.485696678E0,-2.458625287E-1,-8.614161611E-2,9.890433311E0
4.488122615E0,-2.219343036E-1,-1.052841991E-1,9.900004387E0
4.490548553E0,-2.267199457E-1,-1.172483116E-1,9.883255005E0
4.492974490E0,-2.315055877E-1,-1.004985496E-1,9.883255005E0
4.495400428E0,-2.315055877E-1,-1.124626622E-1,9.880862236E0
4.497826365E0,-2.530409992E-1,-9.810572863E-2,9.880862236E0
4.500252303E0,-2.291127741E-1,-9.332008660E-2,9.890433311E0
4.502678240E0,-2.362912297E-1,-1.028913707E-1,9.900004387E0
4.505104178E0,-2.554338276E-1,-9.571290761E-2,9.883255005E0
4.507530115E0,-2.458625287E-1,-9.810572863E-2,9.873683929E0
4.509956053E0,-2.386840582E-1,-1.076770201E-1,9.890433311E0
4.512381990E0,-2.578266263E-1,-1.052841991E-1,9.888040543E0
4.514807928E0,-2.410768867E-1,-1.052841991E-1,9.885647774E0
4.517233865E0,-2.482553422E-1,-1.172483116E-1,9.878469467E0
4.519659803E0,-2.530409992E-1,-1.052841991E-1,9.871291161E0
4.522085740E0,-2.338984162E-1,-1.100698411E-1,9.880862236E0
4.524511678E0,-2.410768867E-1,-8.853443712E-2,9.880862236E0
4.526937615E0,-2.410768867E-1,-1.052841991E-1,9.873683929E0
4.529363553E0,-2.410768867E-1,-9.092725813E-2,9.892826080E0
4.531789490E0,-2.458625287E-1,-1.004985496E-1,9.907182693E0
4.534215428E0,-2.291127741E-1,-1.148554832E-1,9.878469467E0
4.536641365E0,-2.362912297E-1,-9.571290761E-2,9.883255005E0
4.539067303E0,-2.171486616E-1,-1.004985496E-1,9.880862236E0
4.541493240E0,-2.434697002E-1,-1.148554832E-1,9.897611618E0
4.543919178E0,-2.482553422E-1,-1.244267747E-1,9.890433311E0
4.546345115E0,-2.291127741E-1,-7.178468257E-2,9.876076698E0
4.548771053E0,-2.458625287E-1,-1.076770201E-1,9.876076698E0
4.551196990E0,-2.386840582E-1,-7.896314561E-2,9.871291161E0
4.553622928E0,-2.291127741E-1,-1.100698411E-1,9.892826080E0
4.556048865E0,-2.410768867E-1,-1.220339537E-1,9.885647774E0
4.558474803E0,-2.291127741E-1,-8.853443712E-2,9.864111900E0
4.560900740E0,-2.315055877E-1,-8.853443712E-2,9.885647774E0
4.563326678E0,-2.530409992E-1,-9.092725813E-2,9.880862236E0
4.565752615E0,-2.530409992E-1,-1.148554832E-1,9.861719131E0
4.568178553E0,-2.195414752E-1,-1.220339537E-1,9.866504669E0
4.570604490E0,-2.338984162E-1,-1.172483116E-1,9.876076698E0
4.573030428E0,-2.243271172E-1,-1.100698411E-1,9.900004387E0
4.575456365E0,-2.410768867E-1,-9.332008660E-2,9.873683929E0
4.577882303E0,-2.338984162E-1,-9.810572863E-2,9.885647774E0
4.580308240E0,-2.434697002E-1,-9.571290761E-2,9.895218849E0
4.582734178E0,-2.243271172E-1,-1.076770201E-1,9.873683929E0
4.585160115E0,-2.147558331E-1,-1.052841991E-1,9.873683929E0
4.587586053E0,-2.315055877E-1,-1.196411327E-1,9.866504669E0
4.590011990E0,-2.362912297E-1,-1.076770201E-1,9.890433311E0
4.592437928E0,-2.386840582E-1,-1.028913707E-1,9.888040543E0
4.594863865E0,-2.243271172E-1,-1.148554832E-1,9.873683929E0
4.597289803E0,-2.506481707E-1,-1.100698411E-1,9.902397156E0
4.599715740E0,-2.315055877E-1,-1.004985496E-1,9.900004387E0
4.602141625E0,-2.147558331E-1,-9.810572863E-2,9.888040543E0
4.604567563E0,-2.195414752E-1,-9.810572863E-2,9.871291161E0
4.606993500E0,-2.458625287E-1,-1.148554832E-1,9.878469467E0
4.609419438E0,-2.338984162E-1,-1.172483116E-1,9.890433311E0
4.611845375E0,-2.602194548E-1,-9.571290761E-2,9.885647774E0
4.614271365E0,-2.458625287E-1,-1.244267747E-1,9.873683929E0
4.616697250E0,-2.338984162E-1,-1.244267747E-1,9.892826080E0
4.619123240E0,-2.362912297E-1,-1.100698411E-1,9.873683929E0
4.621549178E0,-2.291127741E-1,-1.124626622E-1,9.892826080E0
4.623975063E0,-2.338984162E-1,-1.124626622E-1,9.873683929E0
4.626401000E0,-2.458625287E-1,-1.076770201E-1,9.883255005E0
4.628826938E0,-2.482553422E-1,-8.374879509E-2,9.897611618E0
4.631252875E0,-2.410768867E-1,-9.571290761E-2,9.880862236E0
4.633678813E0,-2.338984162E-1,-1.004985496E-1,9.900004387E0
4.636104750E0,-2.195414752E-1,-9.571290761E-2,9.902397156E0
4.638530688E0,-2.171486616E-1,-1.124626622E-1,9.900004387E0
4.640956625E0,-2.410768867E-1,-1.220339537E-1,9.880862236E0
4.643382563E0,-2.602194548E-1,-9.810572863E-2,9.871291161E0
4.645808500E0,-2.338984162E-1,-1.076770201E-1,9.871291161E0
4.648234438E0,-2.123630047E-1,-9.092725813E-2,9.892826080E0
4.650660375E0,-2.410768867E-1,-9.810572863E-2,9.888040543E0
4.653086313E0,-2.506481707E-1,-1.028913707E-1,9.876076698E0
4.655512250E0,-2.650051117E-1,-1.028913707E-1,9.888040543E0
4.657938188E0,-2.434697002E-1,-1.052841991E-1,9.904789925E0
4.660364125E0,-2.458625287E-1,-1.028913707E-1,9.883255005E0
4.662790063E0,-2.482553422E-1,-1.028913707E-1,9.895218849E0
4.665216000E0,-2.291127741E-1,-1.124626622E-1,9.904789925E0
4.667641938E0,-2.338984162E-1,-6.939185411E-2,9.890433311E0
4.670067875E0,-2.434697002E-1,-1.339980662E-1,9.873683929E0
4.672493813E0,-2.338984162E-1,-1.100698411E-1,9.883255005E0
4.674919750E0,-2.338984162E-1,-1.124626622E-1,9.864111900E0
4.677345688E0,-2.362912297E-1,-1.076770201E-1,9.871291161E0
4.679771625E0,-2.482553422E-1,-1.004985496E-1,9.868897438E0
4.682197563E0,-2.434697002E-1,-9.571290761E-2,9.871291161E0
4.684623500E0,-2.434697002E-1,-9.332008660E-2,9.878469467E0
4.687049438E0,-2.458625287E-1,-9.810572863E-2,9.883255005E0
4.689475375E0,-2.195414752E-1,-9.810572863E-2,9.868897438E0
4.691901313E0,-2.482553422E-1,-1.004985496E-1,9.880862236E0
4.694327250E0,-2.362912297E-1,-1.100698411E-1,9.878469467E0
4.696753188E0,-2.171486616E-1,-1.004985496E-1,9.883255005E0
4.699179125E0,-2.602194548E-1,-1.196411327E-1,9.890433311E0
4.701605063E0,-2.506481707E-1,-1.124626622E-1,9.892826080E0
4.704031000E0,-2.602194548E-1,-1.076770201E-1,9.890433311E0
4.706456938E0,-2.602194548E-1,-1.172483116E-1,9.873683929E0
4.708882875E0,-2.051845491E-1,-1.076770201E-1,9.895218849E0
4.711308813E0,-2.362912297E-1,-1.076770201E-1,9.883255005E0
4.713734750E0,-2.267199457E-1,-9.810572863E-2,9.873683929E0
4.716160688E0,-2.410768867E-1,-9.810572863E-2,9.904789925E0
4.718586625E0,-2.506481707E-1,-9.092725813E-2,9.880862236E0
4.721012563E0,-2.602194548E-1,-1.004985496E-1,9.888040543E0
4.723438500E0,-2.362912297E-1,-1.172483116E-1,9.880862236E0
4.725864438E0,-2.410768867E-1,-9.092725813E-2,9.864111900E0
4.728290375E0,-2.386840582E-1,-1.172483116E-1,9.871291161E0
4.730716313E0,-2.243271172E-1,-1.052841991E-1,9.880862236E0
4.733142250E0,-2.315055877E-1,-1.292124242E-1,9.883255005E0
4.735568188E0,-2.219343036E-1,-1.244267747E-1,9.880862236E0
4.737994125E0,-2.315055877E-1,-1.124626622E-1,9.902397156E0
4.740420063E0,-2.315055877E-1,-1.052841991E-1,9.885647774E0
4.742846000E0,-2.386840582E-1,-1.076770201E-1,9.866504669E0
4.745271938E0,-2.362912297E-1,-9.571290761E-2,9.892826080E0
4.747697875E0,-2.362912297E-1,-9.571290761E-2,9.888040543E0
4.750123813E0,-2.315055877E-1,-1.004985496E-1,9.866504669E0
4.752549750E0,-2.434697002E-1,-1.220339537E-1,9.883255005E0
4.754975688E0,-2.243271172E-1,-1.076770201E-1,9.868897438E0
4.757401625E0,-2.267199457E-1,-9.092725813E-2,9.890433311E0
4.759827563E0,-2.434697002E-1,-9.092725813E-2,9.878469467E0
4.762253500E0,-2.291127741E-1,-8.853443712E-2,9.895218849E0
4.764679438E0,-2.315055877E-1,-1.100698411E-1,9.895218849E0
4.767105375E0,-2.291127741E-1,-9.092725813E-2,9.878469467E0
4.769531313E0,-2.434697002E-1,-1.028913707E-1,9.892826080E0
4.771957250E0,-2.434697002E-1,-7.657032460E-2,9.868897438E0
4.774383188E0,-2.458625287E-1,-1.004985496E-1,9.892826080E0
4.776809125E0,-2.338984162E-1,-1.148554832E-1,9.888040543E0
4.779235063E0,-2.338984162E-1,-1.148554832E-1,9.890433311E0
4.781661000E0,-2.315055877E-1,-1.028913707E-1,9.868897438E0
4.784086938E0,-2.219343036E-1,-1.292124242E-1,9.900004387E0
4.786512875E0,-2.315055877E-1,-1.004985496E-1,9.885647774E0
4.788938813E0,-2.267199457E-1,-1.124626622E-1,9.892826080E0
4.791364750E0,-2.195414752E-1,-1.052841991E-1,9.895218849E0
4.793790688E0,-2.315055877E-1,-1.076770201E-1,9.873683929E0
4.796216625E0,-2.434697002E-1,-1.124626622E-1,9.883255005E0
4.798642563E0,-2.171486616E-1,-1.076770201E-1,9.892826080E0
4.801068500E0,-2.362912297E-1,-9.571290761E-2,9.876076698E0
4.803494438E0,-2.482553422E-1,-9.571290761E-2,9.864111900E0
4.805920375E0,-2.554338276E-1,-9.332008660E-2,9.888040543E0
4.808346313E0,-2.362912297E-1,-9.810572863E-2,9.888040543E0
4.810772250E0,-2.195414752E-1,-8.853443712E-2,9.880862236E0
4.813198136E0,-2.578266263E-1,-8.135596663E-2,9.878469467E0
4.815624073E0,-2.506481707E-1,-1.028913707E-1,9.883255005E0
4.818050063E0,-2.338984162E-1,-1.124626622E-1,9.866504669E0
4.820476000E0,-2.386840582E-1,-9.092725813E-2,9.885647774E0
4.822901938E0,-2.578266263E-1,-9.571290761E-2,9.885647774E0
4.825327875E0,-2.434697002E-1,-1.316052526E-1,9.883255005E0
4.827753761E0,-2.434697002E-1,-1.028913707E-1,9.897611618E0
4.830179698E0,-2.362912297E-1,-1.172483116E-1,9.864111900E0
4.832605636E0,-2.434697002E-1,-8.135596663E-2,9.873683929E0
4.835031573E0,-2.267199457E-1,-1.052841991E-1,9.880862236E0
4.837457511E0,-2.219343036E-1,-9.332008660E-2,9.880862236E0
4.839883448E0,-2.338984162E-1,-1.244267747E-1,9.883255005E0
4.842309386E0,-2.410768867E-1,-1.172483116E-1,9.880862236E0
4.844735323E0,-2.386840582E-1,-9.092725813E-2,9.892826080E0
4.847161261E0,-2.530409992E-1,-1.076770201E-1,9.895218849E0
4.849587198E0,-2.195414752E-1,-1.004985496E-1,9.900004387E0
4.852013136E0,-2.315055877E-1,-1.076770201E-1,9.883255005E0
