"Time (s)","Gyroscope x (rad/s)","Gyroscope y (rad/s)","Gyroscope z (rad/s)"
9.179417800E-2,-2.290677221E-4,1.832541777E-3,-3.665083554E-3
9.422011500E-2,2.214321401E-3,-1.221694518E-3,3.054236295E-3
9.664605300E-2,2.214321401E-3,0.000000000E0,-3.665083554E-3
9.907199000E-2,3.817795368E-4,1.221694518E-3,3.054236295E-3
1.014979280E-1,1.603474026E-3,-1.221694518E-3,-1.832541777E-3
1.039238650E-1,-2.290677221E-4,0.000000000E0,0.000000000E0
1.063498030E-1,3.817795368E-4,0.000000000E0,0.000000000E0
1.087757400E-1,1.603474026E-3,-1.221694518E-3,-2.443389036E-3
1.112016250E-1,9.926267667E-4,1.832541777E-3,1.832541777E-3
1.136276150E-1,3.817795368E-4,6.108472589E-4,-1.832541777E-3
1.160535000E-1,3.817795368E-4,-1.221694518E-3,1.832541777E-3
1.184794380E-1,-2.290677221E-4,6.108472589E-4,-1.832541777E-3
1.209053750E-1,3.817795368E-4,-1.221694518E-3,1.221694518E-3
1.233313130E-1,-2.290677221E-4,-6.108472589E-4,-2.443389036E-3
1.257572500E-1,3.817795368E-4,-6.108472589E-4,1.832541777E-3
1.281831880E-1,3.817795368E-4,-6.108472589E-4,-6.108472589E-4
1.306091250E-1,3.817795368E-4,-1.832541777E-3,-6.108472589E-4
1.330350630E-1,9.926267667E-4,-1.221694518E-3,0.000000000E0
1.354610000E-1,9.926267667E-4,0.000000000E0,-2.443389036E-3
1.378869380E-1,-2.290677221E-4,0.000000000E0,0.000000000E0
1.403128750E-1,9.926267667E-4,6.108472589E-4,-1.832541777E-3
1.427388130E-1,9.926267667E-4,0.000000000E0,1.221694518E-3
1.451647500E-1,3.817795368E-4,-6.108472589E-4,-1.221694518E-3
1.475906880E-1,3.817795368E-4,0.000000000E0,1.221694518E-3
1.500166250E-1,9.926267667E-4,6.108472589E-4,-6.108472589E-4
1.524425630E-1,9.926267667E-4,0.000000000E0,-6.108472589E-4
1.548678230E-1,2.214321401E-3,-1.221694518E-3,-1.221694518E-3
1.572944380E-1,1.603474026E-3,-1.221694518E-3,0.000000000E0
1.597203750E-1,-1.527118147E-3,-6.108472589E-4,0.000000000E0
1.621463130E-1,-2.290677221E-4,6.108472589E-4,-1.221694518E-3
1.645722500E-1,3.817795368E-4,1.221694518E-3,6.108472589E-4
1.669981880E-1,3.817795368E-4,0.000000000E0,6.108472589E-4
1.694241250E-1,-2.290677221E-4,6.108472589E-4,6.108472589E-4
1.718500110E-1,9.926267667E-4,-1.221694518E-3,-2.443389036E-3
1.742759480E-1,9.926267667E-4,1.221694518E-3,1.221694518E-3
1.767018860E-1,3.817795368E-4,6.108472589E-4,-6.108472589E-4
1.791278230E-1,9.926267667E-4,-6.108472589E-4,0.000000000E0
1.815537610E-1,3.817795368E-4,0.000000000E0,0.000000000E0
1.839796980E-1,-2.290677221E-4,6.108472589E-4,6.108472589E-4
1.864056360E-1,-2.290677221E-4,-2.443389036E-3,0.000000000E0
1.888315730E-1,3.817795368E-4,1.221694518E-3,-1.832541777E-3
1.912575110E-1,-2.290677221E-4,-1.221694518E-3,-6.108472589E-4
1.936834480E-1,3.817795368E-4,1.221694518E-3,-6.108472589E-4
1.961093860E-1,9.926267667E-4,-1.832541777E-3,6.108472589E-4
1.985353230E-1,3.817795368E-4,-1.221694518E-3,-1.221694518E-3
2.009612610E-1,9.926267667E-4,0.000000000E0,6.108472589E-4
2.033871980E-1,9.926267667E-4,6.108472589E-4,1.221694518E-3
2.058131360E-1,-8.399150101E-4,-6.108472589E-4,-1.832541777E-3
2.082390730E-1,3.817795368E-4,0.000000000E0,-6.108472589E-4
2.106650110E-1,1.603474026E-3,-1.221694518E-3,-6.108472589E-4
2.130909480E-1,1.603474026E-3,-6.108472589E-4,-1.832541777E-3
2.155168860E-1,-2.290677221E-4,0.000000000E0,-2.443389036E-3
2.179428230E-1,-2.290677221E-4,-6.108472589E-4,0.000000000E0
2.203687610E-1,-2.290677221E-4,6.108472589E-4,-1.832541777E-3
2.227946980E-1,1.603474026E-3,-6.108472589E-4,0.000000000E0
2.252206360E-1,1.603474026E-3,-1.221694518E-3,-6.108472589E-4
2.276465730E-1,9.926267667E-4,-1.221694518E-3,-1.221694518E-3
2.300725110E-1,1.603474026E-3,-1.221694518E-3,-6.108472589E-4
2.324984480E-1,3.817795368E-4,-1.221694518E-3,6.108472589E-4
2.349243340E-1,3.817795368E-4,0.000000000E0,-1.221694518E-3
2.373502710E-1,9.926267667E-4,-6.108472589E-4,-6.108472589E-4
2.397762090E-1,-2.290677221E-4,6.108472589E-4,0.000000000E0
2.422021460E-1,3.817795368E-4,0.000000000E0,-6.108472589E-4
2.446280840E-1,1.603474026E-3,-1.832541777E-3,6.108472589E-4
2.470540210E-1,9.926267667E-4,6.108472589E-4,-2.443389036E-3
2.494799590E-1,9.926267667E-4,0.000000000E0,0.000000000E0
2.519058960E-1,2.214321401E-3,-1.221694518E-3,0.000000000E0
2.543318340E-1,-8.399150101E-4,-1.832541777E-3,-6.108472589E-4
2.567577710E-1,-8.399150101E-4,0.000000000E0,6.108472589E-4
2.591837090E-1,3.817795368E-4,0.000000000E0,0.000000000E0
2.616096460E-1,9.926267667E-4,6.108472589E-4,6.108472589E-4
2.640355840E-1,9.926267667E-4,-6.108472589E-4,0.000000000E0
2.664615210E-1,9.926267667E-4,-1.832541777E-3,6.108472589E-4
2.688874590E-1,3.817795368E-4,-6.108472589E-4,0.000000000E0
2.713133960E-1,1.603474026E-3,0.000000000E0,6.108472589E-4
2.737393340E-1,9.926267667E-4,-6.108472589E-4,-6.108472589E-4
2.761652710E-1,3.817795368E-4,6.108472589E-4,-6.108472589E-4
2.785912090E-1,3.817795368E-4,0.000000000E0,0.000000000E0
2.810171460E-1,9.926267667E-4,-6.108472589E-4,-1.221694518E-3
2.834430840E-1,9.926267667E-4,-6.108472589E-4,0.000000000E0
2.858690210E-1,3.817795368E-4,6.108472589E-4,0.000000000E0
2.882949590E-1,9.926267667E-4,-6.108472589E-4,6.108472589E-4
2.907208960E-1,9.926267667E-4,-1.221694518E-3,6.108472589E-4
2.931468340E-1,3.817795368E-4,0.000000000E0,-6.108472589E-4
2.955727710E-1,2.825168660E-3,0.000000000E0,-6.108472589E-4
2.979987090E-1,1.603474026E-3,0.000000000E0,-1.221694518E-3
3.004246460E-1,3.817795368E-4,-6.108472589E-4,6.108472589E-4
3.028505840E-1,9.926267667E-4,-1.221694518E-3,6.108472589E-4
3.052765210E-1,3.817795368E-4,-6.108472589E-4,6.108472589E-4
3.077024590E-1,1.603474026E-3,-6.108472589E-4,1.221694518E-3
3.101283960E-1,3.817795368E-4,-1.221694518E-3,-6.108472589E-4
3.125543340E-1,1.603474026E-3,6.108472589E-4,-1.221694518E-3
3.149802190E-1,2.825168660E-3,0.000000000E0,6.108472589E-4
3.174061570E-1,-2.290677221E-4,-6.108472589E-4,1.221694518E-3
3.198320940E-1,-2.290677221E-4,0.000000000E0,6.108472589E-4
3.222580320E-1,-2.290677221E-4,1.221694518E-3,0.000000000E0
3.246839690E-1,3.817795368E-4,-6.108472589E-4,6.108472589E-4
3.271099070E-1,-2.290677221E-4,-6.108472589E-4,-6.108472589E-4
3.295358440E-1,9.926267667E-4,-1.832541777E-3,-6.108472589E-4
3.319617820E-1,9.926267667E-4,-6.108472589E-4,-1.221694518E-3
3.343877190E-1,1.603474026E-3,1.221694518E-3,0.000000000E0
3.368136570E-1,1.603474026E-3,-6.108472589E-4,0.000000000E0
3.392395940E-1,-2.290677221E-4,1.221694518E-3,0.000000000E0
3.416655320E-1,3.817795368E-4,-6.108472589E-4,1.221694518E-3
3.440914690E-1,9.926267667E-4,0.000000000E0,6.108472589E-4
3.465174070E-1,3.817795368E-4,-6.108472589E-4,-6.108472589E-4
3.489433440E-1,-2.290677221E-4,-1.832541777E-3,6.108472589E-4
3.513692820E-1,-2.290677221E-4,1.221694518E-3,-6.108472589E-4
3.537952190E-1,3.817795368E-4,6.108472589E-4,-1.221694518E-3
3.562211570E-1,9.926267667E-4,-6.108472589E-4,-1.221694518E-3
3.586470940E-1,1.603474026E-3,0.000000000E0,-1.221694518E-3
3.610730320E-1,3.817795368E-4,-6.108472589E-4,0.000000000E0
3.634989690E-1,1.603474026E-3,0.000000000E0,6.108472589E-4
3.659249070E-1,1.603474026E-3,-1.221694518E-3,0.000000000E0
3.683508440E-1,2.825168660E-3,-1.832541777E-3,6.108472589E-4
3.707767820E-1,9.926267667E-4,0.000000000E0,-1.221694518E-3
3.732027190E-1,1.603474026E-3,-1.221694518E-3,-6.108472589E-4
3.756286570E-1,1.603474026E-3,-6.108472589E-4,-1.221694518E-3
3.780545940E-1,-2.290677221E-4,-1.221694518E-3,6.108472589E-4
3.804805320E-1,-8.399150101E-4,0.000000000E0,0.000000000E0
3.829064690E-1,3.817795368E-4,0.000000000E0,-6.108472589E-4
3.853324070E-1,9.926267667E-4,-1.221694518E-3,-1.221694518E-3
3.877583440E-1,2.214321401E-3,-1.832541777E-3,6.108472589E-4
3.901842820E-1,9.926267667E-4,-1.832541777E-3,-6.108472589E-4
3.926102190E-1,1.603474026E-3,0.000000000E0,0.000000000E0
3.950361570E-1,9.926267667E-4,6.108472589E-4,-6.108472589E-4
3.974620940E-1,1.603474026E-3,6.108472589E-4,-6.108472589E-4
3.998879800E-1,3.817795368E-4,0.000000000E0,-6.108472589E-4
4.023139170E-1,-2.290677221E-4,0.000000000E0,-6.108472589E-4
4.047398550E-1,-8.399150101E-4,6.108472589E-4,-6.108472589E-4
4.071657920E-1,9.926267667E-4,-6.108472589E-4,0.000000000E0
4.095917820E-1,9.926267667E-4,0.000000000E0,-6.108472589E-4
4.120176670E-1,-2.290677221E-4,-6.108472589E-4,-6.108472589E-4
4.144436050E-1,-2.290677221E-4,0.000000000E0,-2.443389036E-3
4.168695420E-1,9.926267667E-4,-1.221694518E-3,-6.108472589E-4
4.192954800E-1,9.926267667E-4,0.000000000E0,0.000000000E0
4.217214170E-1,-8.399150101E-4,0.000000000E0,0.000000000E0
4.241473550E-1,3.817795368E-4,-6.108472589E-4,-1.221694518E-3
4.265732920E-1,1.603474026E-3,-6.108472589E-4,-6.108472589E-4
4.289992300E-1,2.214321401E-3,0.000000000E0,0.000000000E0
4.314251670E-1,2.214321401E-3,-1.221694518E-3,-1.221694518E-3
4.338511050E-1,3.817795368E-4,-6.108472589E-4,0.000000000E0
4.362770420E-1,-2.290677221E-4,0.000000000E0,0.000000000E0
4.387029800E-1,1.603474026E-3,-1.221694518E-3,1.221694518E-3
4.411289170E-1,3.817795368E-4,6.108472589E-4,6.108472589E-4
4.435548550E-1,-2.290677221E-4,6.108472589E-4,-1.221694518E-3
4.459807920E-1,-2.290677221E-4,-6.108472589E-4,0.000000000E0
4.484067300E-1,9.926267667E-4,-1.832541777E-3,-1.221694518E-3
4.508326670E-1,1.603474026E-3,-1.221694518E-3,6.108472589E-4
4.532586050E-1,9.926267667E-4,6.108472589E-4,6.108472589E-4
4.556845420E-1,2.214321401E-3,-6.108472589E-4,0.000000000E0
4.581104800E-1,-2.290677221E-4,-6.108472589E-4,-1.221694518E-3
4.605364170E-1,-8.399150101E-4,-1.832541777E-3,0.000000000E0
4.629623550E-1,-2.290677221E-4,-6.108472589E-4,-1.221694518E-3
4.653882920E-1,9.926267667E-4,-6.108472589E-4,-6.108472589E-4
4.678142300E-1,3.817795368E-4,0.000000000E0,0.000000000E0
4.702401670E-1,3.817795368E-4,-6.108472589E-4,-1.221694518E-3
4.726661050E-1,3.817795368E-4,-6.108472589E-4,-1.221694518E-3
4.750920420E-1,1.603474026E-3,-1.221694518E-3,0.000000000E0
4.775179800E-1,3.817795368E-4,-6.108472589E-4,6.108472589E-4
4.799439170E-1,3.817795368E-4,0.000000000E0,0.000000000E0
4.823698550E-1,-2.290677221E-4,-1.221694518E-3,1.221694518E-3
4.847957920E-1,-1.527118147E-3,0.000000000E0,0.000000000E0
4.872217300E-1,3.817795368E-4,-6.108472589E-4,-1.832541777E-3
4.896476670E-1,1.603474026E-3,0.000000000E0,-1.832541777E-3
4.920736050E-1,-8.399150101E-4,0.000000000E0,1.221694518E-3
4.944995420E-1,9.926267667E-4,-6.108472589E-4,-6.108472589E-4
4.969254800E-1,9.926267667E-4,-6.108472589E-4,0.000000000E0
4.993514170E-1,9.926267667E-4,-6.108472589E-4,1.221694518E-3
5.017773550E-1,1.603474026E-3,-6.108472589E-4,-6.108472589E-4
5.042032920E-1,3.817795368E-4,6.108472589E-4,1.221694518E-3
5.066292300E-1,9.926267667E-4,-1.832541777E-3,-1.221694518E-3
5.090551670E-1,-2.290677221E-4,-6.108472589E-4,-6.108472589E-4
5.114811050E-1,-8.399150101E-4,0.000000000E0,0.000000000E0
5.139069900E-1,9.926267667E-4,-1.221694518E-3,0.000000000E0
5.163329280E-1,3.817795368E-4,0.000000000E0,-1.221694518E-3
5.187589170E-1,3.817795368E-4,-1.221694518E-3,-1.221694518E-3
5.211848550E-1,9.926267667E-4,-1.221694518E-3,-6.108472589E-4
5.236107920E-1,-2.290677221E-4,0.000000000E0,6.108472589E-4
5.260366780E-1,-8.399150101E-4,0.000000000E0,6.108472589E-4
5.284626150E-1,3.817795368E-4,-6.108472589E-4,0.000000000E0
5.308885530E-1,3.817795368E-4,-1.221694518E-3,-6.108472589E-4
5.333144900E-1,3.817795368E-4,-1.221694518E-3,0.000000000E0
5.357404280E-1,-2.290677221E-4,-1.221694518E-3,6.108472589E-4
5.381663650E-1,-2.290677221E-4,-1.221694518E-3,-1.221694518E-3
5.405923030E-1,3.817795368E-4,6.108472589E-4,0.000000000E0
5.430182400E-1,-2.290677221E-4,0.000000000E0,-6.108472589E-4
5.454441780E-1,-2.290677221E-4,-1.221694518E-3,-6.108472589E-4
5.478701150E-1,1.603474026E-3,0.000000000E0,-1.221694518E-3
5.502960530E-1,2.825168660E-3,-2.443389036E-3,-6.108472589E-4
5.527219900E-1,3.817795368E-4,0.000000000E0,1.221694518E-3
5.551479280E-1,3.817795368E-4,1.221694518E-3,0.000000000E0
5.575738650E-1,1.603474026E-3,-1.832541777E-3,-1.221694518E-3
5.599998030E-1,3.817795368E-4,-1.221694518E-3,-6.108472589E-4
5.624257400E-1,2.214321401E-3,-1.832541777E-3,-6.108472589E-4
5.648516780E-1,1.603474026E-3,-1.221694518E-3,0.000000000E0
5.672776150E-1,3.817795368E-4,-1.832541777E-3,0.000000000E0
5.697035530E-1,9.926267667E-4,-1.832541777E-3,-6.108472589E-4
5.721294900E-1,9.926267667E-4,0.000000000E0,0.000000000E0
5.745554280E-1,-1.527118147E-3,0.000000000E0,1.221694518E-3
5.769813650E-1,3.817795368E-4,-1.221694518E-3,0.000000000E0
5.794073030E-1,2.214321401E-3,0.000000000E0,-6.108472589E-4
5.818332400E-1,3.817795368E-4,-1.221694518E-3,-6.108472589E-4
5.842591780E-1,9.926267667E-4,-6.108472589E-4,-6.108472589E-4
5.866851150E-1,-8.399150101E-4,6.108472589E-4,0.000000000E0
5.891110530E-1,-2.290677221E-4,6.108472589E-4,0.000000000E0
5.915369900E-1,9.926267667E-4,-6.108472589E-4,0.000000000E0
5.939629280E-1,-2.290677221E-4,0.000000000E0,-6.108472589E-4
5.963888650E-1,1.603474026E-3,-6.108472589E-4,-6.108472589E-4
5.988148030E-1,1.603474026E-3,-6.108472589E-4,6.108472589E-4
6.012407400E-1,-2.290677221E-4,-1.221694518E-3,6.108472589E-4
6.036666780E-1,-2.290677221E-4,-6.108472589E-4,1.221694518E-3
6.060926150E-1,9.926267667E-4,1.221694518E-3,6.108472589E-4
6.085185530E-1,-8.399150101E-4,6.108472589E-4,-1.221694518E-3
6.109444900E-1,9.926267667E-4,-1.221694518E-3,-1.221694518E-3
6.133704280E-1,-2.290677221E-4,6.108472589E-4,-6.108472589E-4
6.157963650E-1,-2.290677221E-4,0.000000000E0,1.221694518E-3
6.182223030E-1,9.926267667E-4,0.000000000E0,0.000000000E0
6.206482400E-1,3.817795368E-4,6.108472589E-4,0.000000000E0
6.230741780E-1,3.817795368E-4,-1.221694518E-3,-6.108472589E-4
6.255001150E-1,3.817795368E-4,0.000000000E0,-6.108472589E-4
6.279260530E-1,1.603474026E-3,-1.221694518E-3,0.000000000E0
6.303519900E-1,1.603474026E-3,-6.108472589E-4,1.221694518E-3
6.327779280E-1,-2.290677221E-4,0.000000000E0,-6.108472589E-4
6.352038650E-1,9.926267667E-4,-1.221694518E-3,0.000000000E0
6.376298030E-1,1.603474026E-3,0.000000000E0,0.000000000E0
6.400557400E-1,2.214321401E-3,1.221694518E-3,-6.108472589E-4
6.424816780E-1,2.214321401E-3,-1.832541777E-3,0.000000000E0
6.449076150E-1,9.926267667E-4,-1.221694518E-3,6.108472589E-4
6.473335530E-1,3.817795368E-4,-6.108472589E-4,0.000000000E0
6.497594900E-1,9.926267667E-4,-6.108472589E-4,-1.221694518E-3
6.521854280E-1,9.926267667E-4,-6.108472589E-4,-1.221694518E-3
6.546113650E-1,-2.290677221E-4,6.108472589E-4,-6.108472589E-4
6.570373030E-1,1.603474026E-3,0.000000000E0,-6.108472589E-4
6.594632400E-1,-8.399150101E-4,0.000000000E0,0.000000000E0
6.618891780E-1,-2.290677221E-4,0.000000000E0,-6.108472589E-4
6.643151150E-1,1.603474026E-3,-1.221694518E-3,-6.108472589E-4
6.667410530E-1,9.926267667E-4,-6.108472589E-4,0.000000000E0
6.691669900E-1,1.603474026E-3,0.000000000E0,1.832541777E-3
6.715929280E-1,-2.290677221E-4,0.000000000E0,1.832541777E-3
6.740188650E-1,1.603474026E-3,-6.108472589E-4,6.108472589E-4
6.764448030E-1,-2.290677221E-4,-1.832541777E-3,-6.108472589E-4
6.788707400E-1,9.926267667E-4,-6.108472589E-4,-6.108472589E-4
6.812966780E-1,1.603474026E-3,-6.108472589E-4,-6.108472589E-4
6.837226150E-1,3.817795368E-4,-6.108472589E-4,-6.108472589E-4
6.861485000E-1,9.926267667E-4,0.000000000E0,6.108472589E-4
6.885744900E-1,9.926267667E-4,1.221694518E-3,0.000000000E0
6.910004280E-1,2.214321401E-3,-1.832541777E-3,6.108472589E-4
6.934263650E-1,2.825168660E-3,0.000000000E0,6.108472589E-4
6.958523030E-1,9.926267667E-4,-1.832541777E-3,0.000000000E0
6.982781880E-1,3.817795368E-4,-6.108472589E-4,6.108472589E-4
7.007041780E-1,1.603474026E-3,-6.108472589E-4,1.221694518E-3
7.031300630E-1,-8.399150101E-4,-1.832541777E-3,-1.221694518E-3
7.055560000E-1,3.817795368E-4,-6.108472589E-4,-6.108472589E-4
7.079819380E-1,-2.290677221E-4,-6.108472589E-4,-6.108472589E-4
7.104078750E-1,1.603474026E-3,-1.832541777E-3,0.000000000E0
7.128338130E-1,1.603474026E-3,0.000000000E0,-6.108472589E-4
7.152597500E-1,1.603474026E-3,6.108472589E-4,1.221694518E-3
7.176857400E-1,3.817795368E-4,-1.221694518E-3,6.108472589E-4
7.201116250E-1,3.817795368E-4,-1.832541777E-3,-6.108472589E-4
7.225375630E-1,-2.290677221E-4,0.000000000E0,-6.108472589E-4
7.249635000E-1,3.817795368E-4,0.000000000E0,-6.108472589E-4
7.273894380E-1,1.603474026E-3,-6.108472589E-4,-6.108472589E-4
7.298153750E-1,1.603474026E-3,-1.221694518E-3,-6.108472589E-4
7.322413130E-1,-2.290677221E-4,-6.108472589E-4,-1.832541777E-3
7.346672500E-1,3.817795368E-4,-6.108472589E-4,-1.221694518E-3
7.370931880E-1,3.817795368E-4,0.000000000E0,1.221694518E-3
7.395191250E-1,1.603474026E-3,0.000000000E0,-6.108472589E-4
7.419450630E-1,2.214321401E-3,-1.832541777E-3,-6.108472589E-4
7.443710000E-1,9.926267667E-4,-6.108472589E-4,0.000000000E0
7.467969380E-1,9.926267667E-4,-6.108472589E-4,-6.108472589E-4
7.492228750E-1,3.817795368E-4,0.000000000E0,-6.108472589E-4
7.516488130E-1,-2.290677221E-4,0.000000000E0,-6.108472589E-4
7.540747500E-1,-2.290677221E-4,-1.221694518E-3,6.108472589E-4
7.565006880E-1,-2.290677221E-4,-6.108472589E-4,0.000000000E0
7.589266250E-1,-8.399150101E-4,-6.108472589E-4,-6.108472589E-4
7.613525630E-1,1.603474026E-3,0.000000000E0,-6.108472589E-4
7.637785000E-1,9.926267667E-4,6.108472589E-4,0.000000000E0
7.662044380E-1,1.603474026E-3,-1.221694518E-3,6.108472589E-4
7.686303750E-1,9.926267667E-4,6.108472589E-4,1.221694518E-3
7.710563130E-1,1.603474026E-3,-6.108472589E-4,-6.108472589E-4
7.734822500E-1,9.926267667E-4,-1.221694518E-3,-6.108472589E-4
7.759081880E-1,-2.290677221E-4,-1.221694518E-3,1.221694518E-3
7.783341250E-1,3.817795368E-4,-1.832541777E-3,0.000000000E0
7.807600630E-1,9.926267667E-4,0.000000000E0,0.000000000E0
7.831860000E-1,3.817795368E-4,-1.221694518E-3,6.108472589E-4
7.856119380E-1,3.817795368E-4,-1.832541777E-3,6.108472589E-4
7.880378750E-1,-2.290677221E-4,0.000000000E0,6.108472589E-4
7.904638130E-1,-2.290677221E-4,-1.221694518E-3,6.108472589E-4
7.928897500E-1,3.817795368E-4,1.832541777E-3,-6.108472589E-4
7.953156880E-1,1.603474026E-3,-6.108472589E-4,-1.221694518E-3
7.977416250E-1,1.603474026E-3,6.108472589E-4,1.221694518E-3
8.001675630E-1,9.926267667E-4,0.000000000E0,-1.221694518E-3
8.025935000E-1,9.926267667E-4,0.000000000E0,-6.108472589E-4
8.050194380E-1,3.817795368E-4,-1.221694518E-3,0.000000000E0
8.074453750E-1,-2.290677221E-4,-6.108472589E-4,0.000000000E0
8.098713130E-1,3.817795368E-4,6.108472589E-4,0.000000000E0
8.122972500E-1,9.926267667E-4,6.108472589E-4,0.000000000E0
8.147231880E-1,9.926267667E-4,-1.832541777E-3,6.108472589E-4
8.171491250E-1,3.817795368E-4,-6.108472589E-4,6.108472589E-4
8.195750630E-1,-1.527118147E-3,6.108472589E-4,-1.221694518E-3
8.220010000E-1,9.926267667E-4,-1.832541777E-3,-1.221694518E-3
8.244269380E-1,9.926267667E-4,1.221694518E-3,0.000000000E0
8.268528750E-1,-2.290677221E-4,0.000000000E0,-6.108472589E-4
8.292788130E-1,-8.399150101E-4,-6.108472589E-4,-6.108472589E-4
8.317047500E-1,3.817795368E-4,0.000000000E0,0.000000000E0
8.341306880E-1,-2.290677221E-4,0.000000000E0,-1.221694518E-3
8.365566250E-1,3.817795368E-4,6.108472589E-4,1.221694518E-3
8.389825630E-1,-8.399150101E-4,0.000000000E0,6.108472589E-4
8.414085000E-1,3.817795368E-4,6.108472589E-4,-6.108472589E-4
8.438344380E-1,3.817795368E-4,-6.108472589E-4,-6.108472589E-4
8.462603750E-1,3.817795368E-4,-6.108472589E-4,-6.108472589E-4
8.486863130E-1,9.926267667E-4,6.108472589E-4,1.221694518E-3
8.511122500E-1,9.926267667E-4,-1.221694518E-3,6.108472589E-4
8.535381880E-1,9.926267667E-4,0.000000000E0,-6.108472589E-4
8.559641250E-1,-8.399150101E-4,1.832541777E-3,-6.108472589E-4
8.583900630E-1,3.817795368E-4,6.108472589E-4,0.000000000E0
8.608160000E-1,1.603474026E-3,-6.108472589E-4,-1.221694518E-3
8.632419380E-1,3.817795368E-4,-6.108472589E-4,-6.108472589E-4
8.656678750E-1,-2.290677221E-4,-1.221694518E-3,0.000000000E0
8.680938130E-1,2.214321401E-3,-1.221694518E-3,-6.108472589E-4
8.705197500E-1,9.926267667E-4,0.000000000E0,6.108472589E-4
8.729456880E-1,-8.399150101E-4,-6.108472589E-4,-6.108472589E-4
8.753716250E-1,3.817795368E-4,-6.108472589E-4,-1.221694518E-3
8.777975630E-1,1.603474026E-3,-6.108472589E-4,-6.108472589E-4
8.802235000E-1,9.926267667E-4,0.000000000E0,-6.108472589E-4
8.826494380E-1,9.926267667E-4,0.000000000E0,1.832541777E-3
8.850753750E-1,1.603474026E-3,0.000000000E0,0.000000000E0
8.875013130E-1,-2.290677221E-4,-1.221694518E-3,-1.832541777E-3
8.899272500E-1,9.926267667E-4,-6.108472589E-4,-1.832541777E-3
8.923531880E-1,3.817795368E-4,-1.832541777E-3,-6.108472589E-4
8.947791250E-1,9.926267667E-4,-1.221694518E-3,-1.221694518E-3
8.972050630E-1,-2.290677221E-4,-1.221694518E-3,-6.108472589E-4
8.996310000E-1,9.926267667E-4,-6.108472589E-4,0.000000000E0
9.020569380E-1,3.817795368E-4,0.000000000E0,0.000000000E0
9.044828750E-1,3.817795368E-4,-6.108472589E-4,0.000000000E0
9.069088130E-1,9.926267667E-4,-6.108472589E-4,-1.832541777E-3
9.093347500E-1,9.926267667E-4,-6.108472589E-4,-6.108472589E-4
9.117606880E-1,-2.290677221E-4,0.000000000E0,-6.108472589E-4
9.141866250E-1,2.214321401E-3,-1.221694518E-3,-1.221694518E-3
9.166125630E-1,9.926267667E-4,-6.108472589E-4,0.000000000E0
9.190385000E-1,9.926267667E-4,0.000000000E0,6.108472589E-4
9.214644380E-1,1.603474026E-3,0.000000000E0,6.108472589E-4
9.238903750E-1,9.926267667E-4,1.832541777E-3,6.108472589E-4
9.263163130E-1,9.926267667E-4,0.000000000E0,-1.221694518E-3
9.287422500E-1,9.926267667E-4,6.108472589E-4,0.000000000E0
9.311681880E-1,-2.290677221E-4,0.000000000E0,-6.108472589E-4
9.335941250E-1,3.817795368E-4,-1.832541777E-3,-6.108472589E-4
9.360200630E-1,1.603474026E-3,0.000000000E0,0.000000000E0
9.384460000E-1,3.817795368E-4,-6.108472589E-4,-6.108472589E-4
9.408719380E-1,-2.290677221E-4,1.832541777E-3,-1.221694518E-3
9.432978750E-1,-8.399150101E-4,-6.108472589E-4,6.108472589E-4
9.457238130E-1,9.926267667E-4,6.108472589E-4,1.221694518E-3
9.481497500E-1,-8.399150101E-4,6.108472589E-4,1.832541777E-3
9.505756880E-1,3.817795368E-4,1.221694518E-3,-6.108472589E-4
9.530016250E-1,1.603474026E-3,-1.221694518E-3,-1.221694518E-3
9.554275630E-1,9.926267667E-4,-1.832541777E-3,1.221694518E-3
9.578535000E-1,9.926267667E-4,-6.108472589E-4,0.000000000E0
9.602794380E-1,-8.399150101E-4,0.000000000E0,0.000000000E0
9.627053750E-1,-2.290677221E-4,0.000000000E0,1.221694518E-3
9.651313130E-1,9.926267667E-4,-1.832541777E-3,-6.108472589E-4
9.675572500E-1,3.817795368E-4,-1.832541777E-3,6.108472589E-4
9.699831880E-1,-8.399150101E-4,-6.108472589E-4,1.221694518E-3
9.724091250E-1,3.817795368E-4,-1.221694518E-3,0.000000000E0
9.748350630E-1,3.817795368E-4,-1.221694518E-3,-1.221694518E-3
9.772610000E-1,-2.290677221E-4,0.000000000E0,6.108472589E-4
9.796869380E-1,-2.290677221E-4,0.000000000E0,-1.832541777E-3
9.821128750E-1,1.603474026E-3,6.108472589E-4,-1.221694518E-3
9.845388130E-1,9.926267667E-4,-1.221694518E-3,-1.832541777E-3
9.869647500E-1,3.817795368E-4,-6.108472589E-4,-6.108472589E-4
9.893906880E-1,-2.290677221E-4,0.000000000E0,0.000000000E0
9.918166250E-1,9.926267667E-4,-6.108472589E-4,0.000000000E0
9.942425630E-1,2.214321401E-3,0.000000000E0,0.000000000E0
9.966685000E-1,-2.290677221E-4,0.000000000E0,0.000000000E0
9.990944380E-1,3.817795368E-4,6.108472589E-4,-6.108472589E-4
1.001520375E0,3.817795368E-4,-6.108472589E-4,0.000000000E0
1.003946313E0,9.926267667E-4,-6.108472589E-4,-6.108472589E-4
1.006372250E0,3.817795368E-4,-1.221694518E-3,-1.221694518E-3
1.008798188E0,3.817795368E-4,-1.832541777E-3,-6.108472589E-4
1.011224125E0,3.817795368E-4,-6.108472589E-4,6.108472589E-4
1.013650063E0,9.926267667E-4,-6.108472589E-4,0.000000000E0
1.016076000E0,3.817795368E-4,-6.108472589E-4,-6.108472589E-4
1.018501938E0,1.603474026E-3,0.000000000E0,-1.221694518E-3
1.020927875E0,-1.527118147E-3,0.000000000E0,1.221694518E-3
1.023353813E0,1.603474026E-3,-6.108472589E-4,-6.108472589E-4
1.025779750E0,3.817795368E-4,-1.221694518E-3,-1.221694518E-3
1.028205688E0,3.817795368E-4,0.000000000E0,-1.221694518E-3
1.030631625E0,9.926267667E-4,0.000000000E0,-1.221694518E-3
1.033057563E0,1.603474026E-3,-6.108472589E-4,-1.221694518E-3
1.035483500E0,1.603474026E-3,-6.108472589E-4,-1.221694518E-3
1.037909438E0,-2.290677221E-4,-6.108472589E-4,0.000000000E0
1.040335375E0,3.817795368E-4,6.108472589E-4,-6.108472589E-4
1.042761313E0,9.926267667E-4,-1.221694518E-3,-1.221694518E-3
1.045187250E0,2.214321401E-3,-1.832541777E-3,0.000000000E0
1.047613188E0,3.817795368E-4,-6.108472589E-4,-6.108472589E-4
1.050039125E0,-8.399150101E-4,-1.221694518E-3,6.108472589E-4
1.052465063E0,-2.290677221E-4,0.000000000E0,6.108472589E-4
1.054891000E0,3.817795368E-4,6.108472589E-4,6.108472589E-4
1.057316938E0,9.926267667E-4,0.000000000E0,1.221694518E-3
1.059742875E0,9.926267667E-4,0.000000000E0,-6.108472589E-4
1.062168813E0,3.817795368E-4,0.000000000E0,0.000000000E0
1.064594750E0,1.603474026E-3,-1.221694518E-3,0.000000000E0
1.067020688E0,9.926267667E-4,-6.108472589E-4,6.108472589E-4
1.069446625E0,-2.290677221E-4,-6.108472589E-4,-1.221694518E-3
1.071872563E0,-2.290677221E-4,-6.108472589E-4,-6.108472589E-4
1.074298500E0,9.926267667E-4,-1.221694518E-3,-6.108472589E-4
1.076724438E0,3.817795368E-4,0.000000000E0,-6.108472589E-4
1.079150375E0,3.817795368E-4,6.108472589E-4,-1.221694518E-3
1.081576313E0,9.926267667E-4,-6.108472589E-4,-1.832541777E-3
1.084002250E0,3.817795368E-4,-6.108472589E-4,-6.108472589E-4
1.086428188E0,-1.527118147E-3,-6.108472589E-4,-6.108472589E-4
1.088854125E0,9.926267667E-4,-6.108472589E-4,-6.108472589E-4
1.091280063E0,-8.399150101E-4,-6.108472589E-4,-1.832541777E-3
1.093706000E0,3.817795368E-4,6.108472589E-4,-1.221694518E-3
1.096131938E0,3.817795368E-4,1.832541777E-3,0.000000000E0
1.098557875E0,9.926267667E-4,6.108472589E-4,-6.108472589E-4
1.100983813E0,3.817795368E-4,-1.832541777E-3,-6.108472589E-4
1.103409750E0,-8.399150101E-4,0.000000000E0,-6.108472589E-4
1.105835688E0,9.926267667E-4,-1.221694518E-3,-6.108472589E-4
1.108261625E0,3.817795368E-4,-1.221694518E-3,-6.108472589E-4
1.110687563E0,9.926267667E-4,0.000000000E0,-6.108472589E-4
1.113113500E0,-2.290677221E-4,-6.108472589E-4,6.108472589E-4
1.115539438E0,3.817795368E-4,0.000000000E0,0.000000000E0
1.117965375E0,-2.290677221E-4,6.108472589E-4,6.108472589E-4
1.120391313E0,3.817795368E-4,0.000000000E0,-6.108472589E-4
1.122817250E0,3.817795368E-4,-1.832541777E-3,-6.108472589E-4
1.125243188E0,-2.290677221E-4,-2.443389036E-3,6.108472589E-4
1.127669125E0,9.926267667E-4,-1.832541777E-3,-6.108472589E-4
1.130095063E0,-8.399150101E-4,-1.832541777E-3,-1.832541777E-3
1.132521000E0,-2.290677221E-4,0.000000000E0,0.000000000E0
1.134946938E0,-2.290677221E-4,1.221694518E-3,6.108472589E-4
1.137372875E0,-2.290677221E-4,0.000000000E0,0.000000000E0
1.139798813E0,-2.290677221E-4,6.108472589E-4,-6.108472589E-4
1.142224750E0,1.603474026E-3,0.000000000E0,-6.108472589E-4
1.144650688E0,3.817795368E-4,0.000000000E0,1.221694518E-3
1.147076625E0,-8.399150101E-4,0.000000000E0,1.221694518E-3
1.149502563E0,9.926267667E-4,0.000000000E0,0.000000000E0
1.151928500E0,3.817795368E-4,-6.108472589E-4,6.108472589E-4
1.154354438E0,3.817795368E-4,0.000000000E0,6.108472589E-4
1.156780375E0,3.817795368E-4,0.000000000E0,-6.108472589E-4
1.159206313E0,9.926267667E-4,-6.108472589E-4,-1.221694518E-3
1.161632250E0,3.817795368E-4,0.000000000E0,-1.832541777E-3
1.164058188E0,9.926267667E-4,6.108472589E-4,0.000000000E0
1.166484125E0,9.926267667E-4,-1.221694518E-3,-6.108472589E-4
1.168910063E0,3.817795368E-4,1.221694518E-3,0.000000000E0
1.171336000E0,-2.290677221E-4,-6.108472589E-4,-1.832541777E-3
1.173761938E0,3.817795368E-4,0.000000000E0,-6.108472589E-4
1.176187875E0,9.926267667E-4,0.000000000E0,0.000000000E0
1.178613813E0,1.603474026E-3,1.221694518E-3,-1.221694518E-3
1.181039750E0,3.817795368E-4,0.000000000E0,0.000000000E0
1.183465688E0,-8.399150101E-4,0.000000000E0,6.108472589E-4
1.185891625E0,9.926267667E-4,-6.108472589E-4,1.221694518E-3
1.188317563E0,1.603474026E-3,6.108472589E-4,6.108472589E-4
1.190743500E0,9.926267667E-4,-1.221694518E-3,6.108472589E-4
1.193169438E0,-8.399150101E-4,-6.108472589E-4,0.000000000E0
1.195595375E0,-2.290677221E-4,6.108472589E-4,0.000000000E0
1.198021313E0,-7.635590737E-4,3.817795368E-4,-3.054236295E-4
1.200447250E0,-7.635590737E-4,-2.290677221E-4,9.162708884E-4
1.202873188E0,-7.635590737E-4,-8.399150101E-4,-3.054236295E-4
1.205299125E0,1.068982761E-3,3.817795368E-4,3.054236295E-4
1.207725063E0,-1.527118147E-4,-1.450762269E-3,-3.054236295E-4
1.210151000E0,4.581354442E-4,3.817795368E-4,1.527118147E-3
1.212576938E0,-7.635590737E-4,-8.399150101E-4,9.162708884E-4
1.215002875E0,1.068982761E-3,-2.290677221E-4,-3.054236295E-4
1.217428813E0,4.581354442E-4,-2.290677221E-4,-9.162708884E-4
1.219854750E0,-1.527118147E-4,-2.061609412E-3,-9.162708884E-4
1.222280688E0,-1.527118147E-4,-8.399150101E-4,-9.162708884E-4
1.224706625E0,4.581354442E-4,-8.399150101E-4,-9.162708884E-4
1.227132563E0,-7.635590737E-4,3.817795368E-4,-3.054236295E-4
1.229558500E0,-1.527118147E-4,3.817795368E-4,3.054236295E-4
1.231984438E0,-1.527118147E-4,3.817795368E-4,-9.162708884E-4
1.234410375E0,-7.635590737E-4,9.926267667E-4,3.054236295E-4
1.236836313E0,-7.635590737E-4,-2.290677221E-4,3.054236295E-4
1.239262250E0,-1.527118147E-4,-8.399150101E-4,3.054236295E-4
1.241688188E0,-1.527118147E-4,-2.290677221E-4,2.137965523E-3
1.244114125E0,-1.527118147E-4,3.817795368E-4,2.137965523E-3
1.246540063E0,4.581354442E-4,3.817795368E-4,-3.054236295E-4
1.248966000E0,4.581354442E-4,-2.290677221E-4,-3.054236295E-4
1.251391938E0,-7.635590737E-4,3.817795368E-4,1.527118147E-3
1.253817875E0,-7.635590737E-4,-1.450762269E-3,9.162708884E-4
1.256243813E0,-1.374406274E-3,-2.290677221E-4,-3.054236295E-4
1.258669750E0,-1.527118147E-4,-8.399150101E-4,-9.162708884E-4
1.261095688E0,4.581354442E-4,3.817795368E-4,-3.054236295E-4
1.263521625E0,4.581354442E-4,3.817795368E-4,1.527118147E-3
1.265947563E0,4.581354442E-4,-2.290677221E-4,9.162708884E-4
1.268373500E0,1.679830020E-3,-8.399150101E-4,9.162708884E-4
1.270799438E0,4.581354442E-4,3.817795368E-4,-3.054236295E-4
1.273225375E0,1.145338640E-3,-2.290677221E-4,3.054236295E-4
1.275651313E0,-7.635590737E-5,-2.290677221E-4,-1.527118147E-3
1.278077250E0,-7.635590737E-5,-8.399150101E-4,-1.527118147E-3
1.280503188E0,1.145338640E-3,-2.290677221E-4,-3.054236295E-4
1.282929125E0,1.145338640E-3,3.817795368E-4,3.054236295E-4
1.285355063E0,2.367033157E-3,3.817795368E-4,3.054236295E-4
1.287781000E0,-7.635590737E-5,-8.399150101E-4,3.054236295E-4
1.290206938E0,-6.872031372E-4,3.817795368E-4,3.054236295E-4
1.292632875E0,5.344913807E-4,3.817795368E-4,-9.162708884E-4
1.295058813E0,-6.872031372E-4,3.817795368E-4,3.054236295E-4
1.297484750E0,1.145338640E-3,-2.290677221E-4,9.162708884E-4
1.299910688E0,1.145338640E-3,3.817795368E-4,3.054236295E-4
1.302336625E0,5.344913807E-4,9.926267667E-4,9.162708884E-4
1.304762563E0,-1.298050396E-3,3.817795368E-4,9.162708884E-4
1.307188500E0,5.344913807E-4,-2.290677221E-4,3.054236295E-4
1.309614438E0,1.145338640E-3,3.817795368E-4,3.054236295E-4
1.312040375E0,-6.872031372E-4,-2.290677221E-4,9.162708884E-4
1.314466313E0,-7.635590737E-5,1.603474026E-3,9.162708884E-4
1.316892250E0,5.344913807E-4,9.926267667E-4,-3.054236295E-4
1.319318188E0,2.977880416E-3,3.817795368E-4,9.162708884E-4
1.321744125E0,5.344913807E-4,1.603474026E-3,3.054236295E-4
1.324170063E0,-7.635590737E-5,1.603474026E-3,-3.054236295E-4
1.326596000E0,1.145338640E-3,3.817795368E-4,-9.162708884E-4
1.329021938E0,-7.635590737E-5,3.817795368E-4,-3.054236295E-4
1.331447875E0,-1.298050396E-3,9.926267667E-4,9.162708884E-4
1.333873813E0,-7.635590737E-5,3.817795368E-4,2.137965523E-3
1.336299750E0,-6.872031372E-4,3.817795368E-4,2.137965523E-3
1.338725688E0,-7.635590737E-5,-2.672456671E-3,-3.054236295E-4
1.341151625E0,5.344913807E-4,-8.399150101E-4,-9.162708884E-4
1.343577563E0,1.145338640E-3,-8.399150101E-4,9.162708884E-4
1.346003500E0,1.756185899E-3,3.817795368E-4,1.527118147E-3
1.348429438E0,5.344913807E-4,3.817795368E-4,-3.054236295E-4
1.350855375E0,-7.635590737E-5,-2.290677221E-4,-9.162708884E-4
1.353281313E0,5.344913807E-4,-2.290677221E-4,3.054236295E-4
1.355707250E0,-7.635590737E-5,-2.290677221E-4,-3.054236295E-4
1.358133188E0,-7.635590737E-5,-2.290677221E-4,-3.054236295E-4
1.360559125E0,-7.635590737E-5,9.926267667E-4,-3.817795368E-4
1.362985063E0,-6.872031372E-4,9.926267667E-4,-3.817795368E-4
1.365411000E0,-6.872031372E-4,-2.290677221E-4,2.290677221E-4
1.367836938E0,-7.635590737E-5,3.817795368E-4,-2.214321401E-3
1.370262875E0,5.344913807E-4,3.817795368E-4,2.290677221E-4
1.372688813E0,5.344913807E-4,1.603474026E-3,-9.926267667E-4
1.375114750E0,-7.635590737E-5,-2.290677221E-4,8.399150101E-4
1.377540688E0,-6.872031372E-4,3.817795368E-4,2.290677221E-4
1.379966625E0,5.344913807E-4,3.817795368E-4,2.290677221E-4
1.382392563E0,5.344913807E-4,3.817795368E-4,-9.926267667E-4
1.384818500E0,-1.374406274E-3,-1.450762269E-3,2.290677221E-4
1.387244438E0,-1.527118147E-4,-2.290677221E-4,8.399150101E-4
1.389670375E0,-7.635590737E-4,3.817795368E-4,8.399150101E-4
1.392096313E0,-1.527118147E-4,-2.290677221E-4,-9.926267667E-4
1.394522250E0,-1.374406274E-3,-1.450762269E-3,2.290677221E-4
1.396948188E0,-7.635590737E-4,-8.399150101E-4,-3.817795368E-4
1.399374125E0,4.581354442E-4,9.926267667E-4,-3.817795368E-4
1.401800063E0,4.581354442E-4,9.926267667E-4,-3.817795368E-4
1.404226000E0,-1.374406274E-3,3.817795368E-4,-1.603474026E-3
1.406651938E0,4.581354442E-4,9.926267667E-4,-9.926267667E-4
1.409077875E0,-1.374406274E-3,3.817795368E-4,-2.214321401E-3
1.411503813E0,-1.527118147E-4,9.926267667E-4,-9.926267667E-4
1.413929750E0,4.581354442E-4,3.817795368E-4,-9.926267667E-4
1.416355688E0,-1.527118147E-4,3.817795368E-4,2.290677221E-4
1.418781625E0,-1.527118147E-4,-1.450762269E-3,-3.817795368E-4
1.421207563E0,1.068982761E-3,-8.399150101E-4,-3.817795368E-4
1.423633500E0,1.679830020E-3,3.817795368E-4,-9.926267667E-4
1.426059438E0,-1.527118147E-4,-8.399150101E-4,-3.817795368E-4
1.428485375E0,-1.527118147E-4,3.817795368E-4,2.290677221E-4
1.430911313E0,4.581354442E-4,1.603474026E-3,-3.817795368E-4
1.433337250E0,-7.635590737E-4,-2.290677221E-4,-3.817795368E-4
1.435763188E0,4.581354442E-4,3.817795368E-4,-3.817795368E-4
1.438189125E0,4.581354442E-4,-2.290677221E-4,-3.817795368E-4
1.440615063E0,4.581354442E-4,-2.290677221E-4,8.399150101E-4
1.443041000E0,-1.527118147E-4,3.817795368E-4,8.399150101E-4
1.445466938E0,4.581354442E-4,9.926267667E-4,-3.817795368E-4
1.447892875E0,-7.635590737E-4,3.817795368E-4,2.290677221E-4
1.450318813E0,-7.635590737E-4,-8.399150101E-4,1.450762269E-3
1.452744750E0,-1.527118147E-4,9.926267667E-4,2.290677221E-4
1.455170688E0,-1.527118147E-4,2.214321401E-3,-3.817795368E-4
1.457596625E0,1.068982761E-3,9.926267667E-4,2.290677221E-4
1.460022563E0,-1.527118147E-4,-1.527118147E-3,2.290677221E-4
1.462448500E0,1.068982761E-3,-9.162708884E-4,8.399150101E-4
1.464874438E0,1.679830020E-3,-3.054236295E-4,-9.926267667E-4
1.467300375E0,1.068982761E-3,-1.527118147E-3,2.290677221E-4
1.469726313E0,1.679830020E-3,-9.162708884E-4,-3.817795368E-4
1.472152250E0,4.581354442E-4,3.054236295E-4,-9.926267667E-4
1.474578240E0,4.581354442E-4,-3.054236295E-4,-1.603474026E-3
1.477004178E0,1.068982761E-3,-3.054236295E-4,-3.817795368E-4
1.479430063E0,4.581354442E-4,3.054236295E-4,-1.603474026E-3
1.481856000E0,-1.527118147E-4,-3.054236295E-4,8.399150101E-4
1.484281938E0,4.581354442E-4,-9.162708884E-4,1.450762269E-3
1.486707928E0,-7.635590737E-4,-3.054236295E-4,-3.817795368E-4
1.489133865E0,4.581354442E-4,3.054236295E-4,-3.817795368E-4
1.491559803E0,-7.635590737E-4,9.162708884E-4,2.290677221E-4
1.493985740E0,1.679830020E-3,-3.054236295E-4,-3.817795368E-4
1.496411678E0,4.581354442E-4,3.054236295E-4,2.290677221E-4
1.498837615E0,-7.635590737E-4,9.162708884E-4,8.399150101E-4
1.501263553E0,-1.527118147E-4,9.162708884E-4,2.290677221E-4
1.503689490E0,-1.527118147E-4,-9.162708884E-4,-3.817795368E-4
1.506115428E0,-1.527118147E-4,-3.054236295E-4,-9.926267667E-4
1.508541365E0,1.068982761E-3,9.162708884E-4,2.290677221E-4
1.510967303E0,-1.527118147E-4,3.054236295E-4,-3.817795368E-4
1.513393240E0,-7.635590737E-4,-3.054236295E-4,-9.926267667E-4
1.515819178E0,-7.635590737E-4,3.054236295E-4,1.450762269E-3
1.518245115E0,4.581354442E-4,3.054236295E-4,1.450762269E-3
1.520671053E0,-1.374406274E-3,3.054236295E-4,2.290677221E-4
1.523096990E0,-1.374406274E-3,3.054236295E-4,-3.817795368E-4
1.525522928E0,4.581354442E-4,3.054236295E-4,2.290677221E-4
1.527948865E0,-7.635590737E-4,-9.162708884E-4,8.399150101E-4
1.530374803E0,-7.635590737E-4,9.162708884E-4,2.290677221E-4
1.532800740E0,-7.635590737E-4,-9.162708884E-4,2.290677221E-4
1.535226678E0,1.068982761E-3,-3.054236295E-4,2.290677221E-4
1.537652615E0,4.581354442E-4,-3.054236295E-4,-1.527118147E-3
1.540078553E0,-7.635590737E-4,3.054236295E-4,-9.162708884E-4
1.542504490E0,1.068982761E-3,9.162708884E-4,9.162708884E-4
1.544930428E0,-1.527118147E-4,3.054236295E-4,3.054236295E-4
1.547356365E0,4.581354442E-4,-9.162708884E-4,3.054236295E-4
1.549782303E0,-7.635590737E-4,3.054236295E-4,9.162708884E-4
1.552208240E0,-1.374406274E-3,9.162708884E-4,9.162708884E-4
1.554634178E0,-1.527118147E-4,9.162708884E-4,3.054236295E-4
1.557060115E0,-1.985253533E-3,3.054236295E-4,9.162708884E-4
1.559486053E0,4.581354442E-4,3.054236295E-4,-3.054236295E-4
1.561911990E0,-1.527118147E-4,3.054236295E-4,-3.054236295E-4
1.564337928E0,1.679830020E-3,3.054236295E-4,3.054236295E-4
1.566763865E0,1.068982761E-3,3.054236295E-4,-3.054236295E-4
1.569189803E0,4.581354442E-4,3.054236295E-4,-3.054236295E-4
1.571615740E0,1.679830020E-3,-3.054236295E-4,-3.054236295E-4
1.574041678E0,1.068982761E-3,-3.054236295E-4,3.054236295E-4
1.576467615E0,-7.635590737E-4,-3.054236295E-4,9.162708884E-4
1.578893553E0,-1.374406274E-3,3.054236295E-4,9.162708884E-4
1.581319490E0,-1.527118147E-4,-3.054236295E-4,9.162708884E-4
1.583745428E0,-1.374406274E-3,-9.162708884E-4,3.054236295E-4
1.586171365E0,-7.635590737E-4,-9.162708884E-4,-3.054236295E-4
1.588597303E0,-1.374406274E-3,-3.054236295E-4,-3.054236295E-4
1.591023240E0,-1.374406274E-3,1.527118147E-3,1.527118147E-3
1.593449178E0,-1.374406274E-3,9.162708884E-4,3.054236295E-4
1.595875115E0,4.581354442E-4,3.054236295E-4,-1.527118147E-3
1.598301053E0,-7.635590737E-4,9.162708884E-4,-3.054236295E-4
1.600726990E0,4.581354442E-4,9.162708884E-4,-1.527118147E-3
1.603152928E0,4.581354442E-4,3.054236295E-4,-3.054236295E-4
1.605578865E0,-1.527118147E-4,3.054236295E-4,-3.054236295E-4
1.608004803E0,-1.527118147E-4,-3.054236295E-4,3.054236295E-4
1.610430740E0,-7.635590737E-4,9.162708884E-4,9.162708884E-4
1.612856678E0,4.581354442E-4,-3.054236295E-4,-1.527118147E-3
1.615282615E0,4.581354442E-4,3.054236295E-4,-2.137965523E-3
1.617708553E0,4.581354442E-4,9.162708884E-4,-3.054236295E-4
1.620134490E0,1.679830020E-3,1.527118147E-3,-3.054236295E-4
1.622560428E0,-1.527118147E-4,9.162708884E-4,-3.054236295E-4
1.624986365E0,-1.527118147E-4,1.527118147E-3,-3.054236295E-4
1.627412303E0,-1.527118147E-4,-3.054236295E-4,9.162708884E-4
1.629838240E0,1.068982761E-3,1.527118147E-3,3.054236295E-4
1.632264178E0,1.068982761E-3,9.162708884E-4,3.054236295E-4
1.634690115E0,1.068982761E-3,-3.054236295E-4,-1.527118147E-3
1.637116053E0,-7.635590737E-4,3.054236295E-4,9.162708884E-4
1.639541990E0,-7.635590737E-4,-9.162708884E-4,-9.162708884E-4
1.641967928E0,4.581354442E-4,9.162708884E-4,-3.054236295E-4
1.644393865E0,-1.527118147E-4,1.527118147E-3,3.054236295E-4
1.646819803E0,-1.527118147E-4,3.054236295E-4,-3.054236295E-4
1.649245740E0,-1.527118147E-4,9.162708884E-4,9.162708884E-4
1.651671678E0,-7.635590737E-4,-3.054236295E-4,-3.054236295E-4
1.654097615E0,4.581354442E-4,-2.214321401E-3,-3.054236295E-4
1.656523553E0,-7.635590737E-4,-9.926267667E-4,3.054236295E-4
1.658949490E0,-1.527118147E-4,2.290677221E-4,-1.527118147E-3
1.661375428E0,-7.635590737E-4,-9.926267667E-4,3.054236295E-4
1.663801365E0,-1.527118147E-4,-3.817795368E-4,-3.054236295E-4
1.666227303E0,4.581354442E-4,-1.603474026E-3,-3.054236295E-4
1.668653240E0,-1.374406274E-3,8.399150101E-4,-9.162708884E-4
1.671079178E0,-1.527118147E-4,8.399150101E-4,3.054236295E-4
1.673505115E0,-7.635590737E-4,-3.817795368E-4,-3.054236295E-4
1.675931053E0,-1.527118147E-4,-3.817795368E-4,-3.054236295E-4
1.678356990E0,-1.527118147E-4,-3.817795368E-4,3.054236295E-4
1.680782928E0,-1.527118147E-4,8.399150101E-4,-9.162708884E-4
1.683208865E0,-7.635590737E-4,8.399150101E-4,3.054236295E-4
1.685634803E0,4.581354442E-4,-3.817795368E-4,9.162708884E-4
1.688060740E0,1.068982761E-3,-9.926267667E-4,1.527118147E-3
1.690486678E0,-7.635590737E-4,8.399150101E-4,-9.162708884E-4
1.692912615E0,-1.527118147E-4,-9.926267667E-4,-9.162708884E-4
1.695338553E0,4.581354442E-4,-9.926267667E-4,3.054236295E-4
1.697764490E0,-1.527118147E-4,-9.926267667E-4,3.054236295E-4
1.700190428E0,-1.527118147E-4,2.290677221E-4,9.162708884E-4
1.702616365E0,4.581354442E-4,-3.817795368E-4,-3.054236295E-4
1.705042303E0,4.581354442E-4,-1.603474026E-3,9.162708884E-4
1.707468240E0,-1.527118147E-4,2.290677221E-4,1.527118147E-3
1.709894178E0,-1.527118147E-4,-3.817795368E-4,1.527118147E-3
1.712320115E0,-1.527118147E-4,-1.603474026E-3,3.054236295E-4
1.714746053E0,-1.527118147E-4,-3.817795368E-4,-3.054236295E-4
1.717171990E0,4.581354442E-4,8.399150101E-4,9.162708884E-4
1.719597928E0,1.068982761E-3,2.290677221E-4,-3.054236295E-4
1.722023865E0,4.581354442E-4,-3.817795368E-4,3.054236295E-4
1.724449803E0,-1.374406274E-3,-3.817795368E-4,3.054236295E-4
1.726875740E0,-7.635590737E-4,2.290677221E-4,3.054236295E-4
1.729301678E0,-1.527118147E-4,-9.926267667E-4,-3.054236295E-4
1.731727615E0,-7.635590737E-4,2.290677221E-4,3.054236295E-4
1.734153553E0,-1.527118147E-4,-3.817795368E-4,3.054236295E-4
1.736579490E0,-7.635590737E-4,8.399150101E-4,-3.054236295E-4
1.739005428E0,-1.527118147E-4,8.399150101E-4,9.162708884E-4
1.741431365E0,-1.527118147E-4,-3.817795368E-4,3.054236295E-4
1.743857303E0,4.581354442E-4,-3.817795368E-4,-3.054236295E-4
1.746283240E0,-1.527118147E-4,8.399150101E-4,9.162708884E-4
1.748709178E0,4.581354442E-4,1.450762269E-3,3.054236295E-4
1.751135115E0,-1.527118147E-4,-9.926267667E-4,-9.162708884E-4
1.753561053E0,4.581354442E-4,-1.603474026E-3,-1.527118147E-3
1.755986990E0,-1.374406274E-3,-1.603474026E-3,-3.054236295E-4
1.758412928E0,-1.374406274E-3,-1.603474026E-3,3.054236295E-4
1.760838865E0,-7.635590737E-4,-3.817795368E-4,-3.054236295E-4
1.763264803E0,4.581354442E-4,-3.817795368E-4,-3.054236295E-4
1.765690740E0,-7.635590737E-4,-9.926267667E-4,3.054236295E-4
1.768116678E0,1.068982761E-3,8.399150101E-4,-3.054236295E-4
1.770542615E0,1.068982761E-3,1.450762269E-3,-9.162708884E-4
1.772968553E0,4.581354442E-4,2.290677221E-4,3.054236295E-4
1.775394490E0,-1.527118147E-4,-3.817795368E-4,-3.054236295E-4
1.777820428E0,4.581354442E-4,8.399150101E-4,3.054236295E-4
1.780246365E0,-1.985253533E-3,8.399150101E-4,9.162708884E-4
1.782672303E0,-1.374406274E-3,-3.817795368E-4,-3.054236295E-4
1.785098240E0,-1.527118147E-4,-1.603474026E-3,3.054236295E-4
1.787524178E0,-1.374406274E-3,-9.926267667E-4,-3.054236295E-4
1.789950115E0,4.581354442E-4,2.290677221E-4,-3.054236295E-4
1.792376053E0,-7.635590737E-4,-3.817795368E-4,3.054236295E-4
1.794801990E0,-7.635590737E-4,2.290677221E-4,-9.162708884E-4
1.797227928E0,-1.527118147E-4,-3.817795368E-4,-3.054236295E-4
1.799653865E0,-1.527118147E-4,-3.817795368E-4,-3.054236295E-4
1.802079803E0,-1.527118147E-4,-3.817795368E-4,-3.054236295E-4
1.804505740E0,-1.374406274E-3,-9.926267667E-4,-3.054236295E-4
1.806931678E0,-1.374406274E-3,2.290677221E-4,9.162708884E-4
1.809357615E0,-1.527118147E-4,2.290677221E-4,3.054236295E-4
1.811783553E0,1.679830020E-3,2.290677221E-4,-3.054236295E-4
1.814209490E0,-7.635590737E-4,-3.817795368E-4,-3.054236295E-4
1.816635428E0,-1.527118147E-4,-3.817795368E-4,-3.054236295E-4
1.819061365E0,4.581354442E-4,2.290677221E-4,3.054236295E-4
1.821487303E0,4.581354442E-4,-9.926267667E-4,1.527118147E-3
1.823913240E0,1.679830020E-3,-3.817795368E-4,1.527118147E-3
1.826339178E0,-1.527118147E-4,-1.603474026E-3,1.527118147E-3
1.828765115E0,-1.374406274E-3,-9.926267667E-4,-3.054236295E-4
1.831191053E0,-1.374406274E-3,8.399150101E-4,-3.054236295E-4
1.833616990E0,-1.527118147E-4,-9.926267667E-4,-3.054236295E-4
1.836042928E0,-1.527118147E-4,2.290677221E-4,-3.054236295E-4
1.838468865E0,1.068982761E-3,1.450762269E-3,3.054236295E-4
1.840894803E0,-1.527118147E-4,-3.817795368E-4,-3.054236295E-4
1.843320740E0,-7.635590737E-5,-3.817795368E-4,-3.054236295E-4
1.845746678E0,1.145338640E-3,-9.926267667E-4,-9.162708884E-4
1.848172615E0,1.145338640E-3,-3.817795368E-4,-3.054236295E-4
1.850598553E0,5.344913807E-4,-3.817795368E-4,3.054236295E-4
1.853024490E0,1.756185899E-3,-3.817795368E-4,-9.162708884E-4
1.855450428E0,-7.635590737E-5,-3.817795368E-4,-9.162708884E-4
1.857876365E0,1.145338640E-3,-1.603474026E-3,3.054236295E-4
1.860302303E0,5.344913807E-4,-9.926267667E-4,3.054236295E-4
1.862728240E0,1.756185899E-3,2.290677221E-4,9.162708884E-4
1.865154178E0,1.145338640E-3,1.450762269E-3,2.137965523E-3
1.867580115E0,1.756185899E-3,-3.817795368E-4,9.162708884E-4
1.870006053E0,5.344913807E-4,-9.926267667E-4,3.054236295E-4
1.872431990E0,-1.298050396E-3,2.290677221E-4,9.162708884E-4
1.874857928E0,-1.298050396E-3,8.399150101E-4,3.054236295E-4
1.877283865E0,5.344913807E-4,8.399150101E-4,-3.054236295E-4
1.879709803E0,1.145338640E-3,2.290677221E-4,-3.054236295E-4
1.882135740E0,-7.635590737E-5,2.290677221E-4,9.162708884E-4
1.884561678E0,-6.872031372E-4,3.054236295E-4,-9.162708884E-4
1.886987615E0,-7.635590737E-5,2.137965523E-3,-3.054236295E-4
1.889413605E0,-1.298050396E-3,3.054236295E-4,-9.162708884E-4
1.891839490E0,-7.635590737E-5,-3.054236295E-4,-1.527118147E-3
1.894265428E0,-1.298050396E-3,-3.054236295E-4,9.162708884E-4
1.896691365E0,-1.298050396E-3,-3.054236295E-4,-9.162708884E-4
1.899117355E0,-1.298050396E-3,-9.162708884E-4,-1.527118147E-3
1.901543240E0,5.344913807E-4,9.162708884E-4,-9.162708884E-4
1.903969178E0,5.344913807E-4,-3.054236295E-4,-1.527118147E-3
1.906395167E0,-1.298050396E-3,9.162708884E-4,-3.054236295E-4
1.908821053E0,5.344913807E-4,3.054236295E-4,-3.054236295E-4
1.911246990E0,-7.635590737E-5,2.137965523E-3,1.527118147E-3
1.913672928E0,-1.908897655E-3,9.162708884E-4,9.162708884E-4
1.916098917E0,1.756185899E-3,3.054236295E-4,-3.054236295E-4
1.918524855E0,1.145338640E-3,-3.054236295E-4,3.054236295E-4
1.920950740E0,-1.298050396E-3,-3.054236295E-4,-3.054236295E-4
1.923376678E0,-6.872031372E-4,-3.054236295E-4,-9.162708884E-4
1.925802667E0,-1.298050396E-3,-9.162708884E-4,-3.054236295E-4
1.928228605E0,5.344913807E-4,3.054236295E-4,-9.162708884E-4
1.930654490E0,1.145338640E-3,3.054236295E-4,9.162708884E-4
1.933080480E0,-6.872031372E-4,3.054236295E-4,1.527118147E-3
1.935506417E0,-7.635590737E-5,3.054236295E-4,-3.054236295E-4
1.937932355E0,-6.872031372E-4,9.162708884E-4,-3.054236295E-4
1.940358292E0,1.145338640E-3,9.162708884E-4,3.054236295E-4
1.942784178E0,-6.872031372E-4,3.054236295E-4,-3.054236295E-4
1.945210167E0,5.344913807E-4,-9.162708884E-4,-3.054236295E-4
1.947636105E0,5.344913807E-4,-1.527118147E-3,3.054236295E-4
1.950062042E0,1.756185899E-3,-9.162708884E-4,9.162708884E-4
1.952487980E0,5.344913807E-4,-3.054236295E-4,-9.162708884E-4
1.954913917E0,5.344913807E-4,9.162708884E-4,3.054236295E-4
1.957339855E0,-6.872031372E-4,-3.054236295E-4,3.054236295E-4
1.959765792E0,-1.908897655E-3,3.054236295E-4,-3.054236295E-4
1.962191730E0,-6.872031372E-4,3.054236295E-4,-3.054236295E-4
1.964617667E0,-1.298050396E-3,3.054236295E-4,-3.054236295E-4
1.967043605E0,-6.872031372E-4,-3.054236295E-4,3.054236295E-4
1.969469542E0,-1.298050396E-3,3.054236295E-4,3.054236295E-4
1.971895480E0,1.145338640E-3,9.162708884E-4,-9.162708884E-4
1.974321417E0,-7.635590737E-5,3.054236295E-4,3.054236295E-4
1.976747355E0,1.145338640E-3,-9.162708884E-4,9.162708884E-4
1.979173292E0,1.145338640E-3,-9.162708884E-4,3.054236295E-4
1.981599230E0,-6.872031372E-4,3.054236295E-4,-9.162708884E-4
1.984025167E0,5.344913807E-4,2.137965523E-3,-9.162708884E-4
1.986451105E0,1.145338640E-3,3.054236295E-4,3.054236295E-4
1.988877042E0,-6.872031372E-4,3.054236295E-4,-9.162708884E-4
1.991302980E0,-6.872031372E-4,3.054236295E-4,-1.527118147E-3
1.993728917E0,-2.519744914E-3,-3.054236295E-4,-3.054236295E-4
1.996154855E0,-1.908897655E-3,-9.162708884E-4,-3.054236295E-4
1.998580792E0,-1.298050396E-3,-3.054236295E-4,9.162708884E-4
2.001006730E0,5.344913807E-4,1.527118147E-3,3.054236295E-4
2.003432667E0,-7.635590737E-5,1.527118147E-3,-3.054236295E-4
2.005858605E0,-6.872031372E-4,-3.054236295E-4,-3.054236295E-4
2.008284542E0,5.344913807E-4,-3.054236295E-4,-3.054236295E-4
2.010710480E0,5.344913807E-4,3.054236295E-4,-3.054236295E-4
2.013136417E0,-6.872031372E-4,3.054236295E-4,1.527118147E-3
2.015562355E0,5.344913807E-4,9.162708884E-4,9.162708884E-4
2.017988292E0,-7.635590737E-5,3.054236295E-4,9.162708884E-4
2.020414230E0,5.344913807E-4,9.162708884E-4,9.162708884E-4
2.022840167E0,-7.635590737E-5,-3.054236295E-4,-3.054236295E-4
2.025266105E0,-1.298050396E-3,-3.054236295E-4,3.054236295E-4
2.027692042E0,-6.872031372E-4,9.162708884E-4,-1.527118147E-3
2.030117980E0,-6.872031372E-4,3.054236295E-4,3.054236295E-4
2.032543917E0,1.145338640E-3,9.162708884E-4,-1.527118147E-3
2.034969855E0,-7.635590737E-5,-3.054236295E-4,3.054236295E-4
2.037395792E0,-7.635590737E-5,-3.054236295E-4,3.054236295E-4
2.039821730E0,5.344913807E-4,1.527118147E-3,3.054236295E-4
2.042247667E0,-6.872031372E-4,1.527118147E-3,1.527118147E-3
2.044673605E0,-7.635590737E-5,9.162708884E-4,3.054236295E-4
2.047099542E0,5.344913807E-4,3.054236295E-4,-3.054236295E-4
2.049525480E0,5.344913807E-4,-3.054236295E-4,9.162708884E-4
2.051951417E0,5.344913807E-4,-9.162708884E-4,-3.054236295E-4
2.054377355E0,5.344913807E-4,-3.054236295E-4,-9.162708884E-4
2.056803292E0,1.145338640E-3,-9.162708884E-4,-3.054236295E-4
2.059229230E0,-6.872031372E-4,-9.162708884E-4,3.054236295E-4
2.061655167E0,-7.635590737E-5,3.054236295E-4,-1.527118147E-3
2.064081105E0,-1.298050396E-3,-1.527118147E-3,3.054236295E-4
2.066507042E0,-6.872031372E-4,-3.054236295E-4,9.162708884E-4
2.068932980E0,1.145338640E-3,-9.162708884E-4,3.054236295E-4
2.071358917E0,-7.635590737E-5,3.054236295E-4,3.054236295E-4
2.073784855E0,1.756185899E-3,9.162708884E-4,9.162708884E-4
2.076210792E0,5.344913807E-4,2.137965523E-3,3.054236295E-4
2.078636730E0,-6.872031372E-4,-3.054236295E-4,3.054236295E-4
2.081062667E0,-7.635590737E-5,-3.054236295E-4,3.054236295E-4
2.083488605E0,-6.872031372E-4,-3.054236295E-4,9.162708884E-4
2.085914542E0,-7.635590737E-5,-3.054236295E-4,-3.054236295E-4
2.088340480E0,5.344913807E-4,-3.054236295E-4,1.527118147E-3
2.090766417E0,1.145338640E-3,-3.054236295E-4,3.054236295E-4
2.093192355E0,1.145338640E-3,9.162708884E-4,3.054236295E-4
2.095618292E0,1.145338640E-3,1.450762269E-3,-2.137965523E-3
2.098044230E0,5.344913807E-4,-1.603474026E-3,3.054236295E-4
2.100470167E0,-6.872031372E-4,-3.817795368E-4,9.162708884E-4
2.102896105E0,1.145338640E-3,2.290677221E-4,-3.054236295E-4
2.105322042E0,-7.635590737E-5,-9.926267667E-4,3.054236295E-4
2.107747980E0,-7.635590737E-5,2.290677221E-4,-9.162708884E-4
2.110173917E0,1.145338640E-3,-3.817795368E-4,-3.054236295E-4
2.112599855E0,-0.000000000E0,-9.926267667E-4,2.137965523E-3
2.115025792E0,-6.108472589E-4,-1.603474026E-3,9.162708884E-4
2.117451730E0,6.108472589E-4,-3.817795368E-4,3.054236295E-4
2.119877667E0,-0.000000000E0,-3.817795368E-4,-3.054236295E-4
2.122303605E0,6.108472589E-4,2.290677221E-4,1.527118147E-3
2.124729542E0,-0.000000000E0,1.450762269E-3,1.527118147E-3
2.127155480E0,-7.635590737E-5,-3.817795368E-4,-3.054236295E-4
2.129581417E0,-6.872031372E-4,-9.926267667E-4,3.054236295E-4
2.132007355E0,-7.635590737E-5,8.399150101E-4,-2.137965523E-3
2.134433292E0,-7.635590737E-5,-3.817795368E-4,-3.054236295E-4
2.136859230E0,5.344913807E-4,8.399150101E-4,-3.054236295E-4
2.139285167E0,-1.298050396E-3,-3.817795368E-4,-3.054236295E-4
2.141711105E0,5.344913807E-4,2.290677221E-4,-3.054236295E-4
2.144137042E0,-7.635590737E-5,-9.926267667E-4,3.054236295E-4
2.146562980E0,-6.872031372E-4,2.290677221E-4,-3.054236295E-4
2.148988917E0,-7.635590737E-5,2.061609412E-3,3.054236295E-4
2.151414855E0,5.344913807E-4,8.399150101E-4,1.527118147E-3
2.153840792E0,1.145338640E-3,8.399150101E-4,-9.162708884E-4
2.156266730E0,1.145338640E-3,8.399150101E-4,-9.162708884E-4
2.158692667E0,-7.635590737E-5,8.399150101E-4,-9.162708884E-4
2.161118605E0,-7.635590737E-5,-3.817795368E-4,-3.054236295E-4
2.163544542E0,-7.635590737E-5,-9.926267667E-4,9.162708884E-4
2.165970480E0,1.145338640E-3,2.290677221E-4,9.162708884E-4
2.168396417E0,-6.872031372E-4,2.290677221E-4,1.527118147E-3
2.170822355E0,-6.872031372E-4,2.290677221E-4,-3.054236295E-4
2.173248292E0,-7.635590737E-5,2.290677221E-4,-3.054236295E-4
2.175674230E0,-6.872031372E-4,1.450762269E-3,-9.162708884E-4
2.178100167E0,-7.635590737E-5,2.290677221E-4,3.054236295E-4
2.180526105E0,-7.635590737E-5,-3.817795368E-4,9.162708884E-4
2.182952042E0,-7.635590737E-5,-3.817795368E-4,-9.162708884E-4
2.185377980E0,-6.872031372E-4,-3.817795368E-4,-3.054236295E-4
2.187803917E0,-6.872031372E-4,-3.817795368E-4,3.054236295E-4
2.190229855E0,5.344913807E-4,-1.603474026E-3,1.527118147E-3
2.192655792E0,-1.298050396E-3,2.290677221E-4,9.162708884E-4
2.195081730E0,-6.872031372E-4,2.290677221E-4,-9.162708884E-4
2.197507667E0,-7.635590737E-5,-1.603474026E-3,-9.162708884E-4
2.199933605E0,-6.872031372E-4,-9.926267667E-4,-1.527118147E-3
2.202359542E0,-6.872031372E-4,2.290677221E-4,-3.054236295E-4
2.204785480E0,5.344913807E-4,2.290677221E-4,-9.162708884E-4
2.207211417E0,-6.872031372E-4,2.290677221E-4,3.054236295E-4
2.209637355E0,1.145338640E-3,2.290677221E-4,3.054236295E-4
2.212063292E0,-6.872031372E-4,-3.817795368E-4,3.054236295E-4
2.214489230E0,-6.872031372E-4,-9.926267667E-4,9.162708884E-4
2.216915167E0,5.344913807E-4,2.061609412E-3,-3.054236295E-4
2.219341105E0,5.344913807E-4,-3.817795368E-4,-9.162708884E-4
2.221767042E0,5.344913807E-4,-9.926267667E-4,-9.162708884E-4
2.224192980E0,-7.635590737E-5,2.290677221E-4,9.162708884E-4
2.226618917E0,-7.635590737E-5,8.399150101E-4,-1.527118147E-3
2.229044855E0,1.145338640E-3,2.290677221E-4,9.162708884E-4
2.231470792E0,5.344913807E-4,-9.926267667E-4,-3.054236295E-4
2.233896730E0,5.344913807E-4,1.450762269E-3,3.054236295E-4
2.236322667E0,1.145338640E-3,8.399150101E-4,-3.054236295E-4
2.238748605E0,1.145338640E-3,2.290677221E-4,-3.054236295E-4
2.241174542E0,2.367033157E-3,-3.817795368E-4,3.054236295E-4
2.243600480E0,1.756185899E-3,-9.926267667E-4,3.054236295E-4
2.246026417E0,5.344913807E-4,2.290677221E-4,-3.054236295E-4
2.248452355E0,5.344913807E-4,8.399150101E-4,-3.054236295E-4
2.250878292E0,-7.635590737E-5,-9.926267667E-4,3.054236295E-4
2.253304230E0,-6.872031372E-4,2.290677221E-4,9.162708884E-4
2.255730167E0,5.344913807E-4,-3.817795368E-4,1.527118147E-3
2.258156105E0,5.344913807E-4,-1.603474026E-3,9.162708884E-4
2.260582042E0,-7.635590737E-5,2.290677221E-4,3.054236295E-4
2.263007980E0,5.344913807E-4,-3.817795368E-4,9.162708884E-4
2.265433917E0,5.344913807E-4,2.290677221E-4,-3.054236295E-4
2.267859855E0,5.344913807E-4,-9.926267667E-4,3.054236295E-4
2.270285792E0,1.145338640E-3,8.399150101E-4,3.054236295E-4
2.272711730E0,-2.519744914E-3,-9.926267667E-4,-9.162708884E-4
2.275137667E0,-7.635590737E-5,-3.817795368E-4,-3.054236295E-4
2.277563605E0,5.344913807E-4,8.399150101E-4,9.162708884E-4
2.279989542E0,-7.635590737E-5,8.399150101E-4,-3.054236295E-4
2.282415480E0,5.344913807E-4,-3.817795368E-4,-3.054236295E-4
2.284841417E0,-7.635590737E-5,2.290677221E-4,-9.162708884E-4
2.287267355E0,5.344913807E-4,-3.817795368E-4,9.162708884E-4
2.289693292E0,5.344913807E-4,1.450762269E-3,9.162708884E-4
2.292119230E0,-7.635590737E-5,-3.817795368E-4,-9.162708884E-4
2.294545167E0,5.344913807E-4,-3.817795368E-4,-1.527118147E-3
2.296971105E0,5.344913807E-4,2.290677221E-4,-3.054236295E-4
2.299397042E0,1.145338640E-3,-3.817795368E-4,3.054236295E-4
2.301822980E0,5.344913807E-4,8.399150101E-4,3.054236295E-4
2.304248917E0,-7.635590737E-5,2.290677221E-4,-3.054236295E-4
2.306674855E0,5.344913807E-4,8.399150101E-4,-3.054236295E-4
2.309100792E0,1.145338640E-3,8.399150101E-4,9.162708884E-4
2.311526730E0,-7.635590737E-5,2.290677221E-4,3.054236295E-4
2.313952667E0,-7.635590737E-5,2.290677221E-4,3.054236295E-4
2.316378605E0,-7.635590737E-5,1.450762269E-3,3.054236295E-4
2.318804542E0,-6.872031372E-4,-9.926267667E-4,9.162708884E-4
2.321230480E0,-7.635590737E-5,2.290677221E-4,-3.054236295E-4
2.323656417E0,-6.872031372E-4,-3.817795368E-4,-1.527118147E-3
2.326082355E0,-1.908897655E-3,-3.817795368E-4,-3.054236295E-4
2.328508292E0,5.344913807E-4,-3.817795368E-4,3.054236295E-4
2.330934230E0,-7.635590737E-5,-9.926267667E-4,-3.054236295E-4
2.333360167E0,-7.635590737E-5,-9.926267667E-4,-3.054236295E-4
2.335786105E0,5.344913807E-4,-3.817795368E-4,-3.054236295E-4
2.338212042E0,-6.872031372E-4,-9.926267667E-4,-3.054236295E-4
2.340637980E0,-7.635590737E-4,-3.817795368E-4,-9.162708884E-4
2.343063969E0,-1.527118147E-4,2.290677221E-4,-3.054236295E-4
2.345489907E0,-1.527118147E-4,-1.603474026E-3,3.054236295E-4
2.347915792E0,-1.374406274E-3,-3.817795368E-4,3.054236295E-4
2.350341782E0,4.581354442E-4,-3.817795368E-4,9.162708884E-4
2.352767667E0,4.581354442E-4,-3.817795368E-4,3.054236295E-4
2.355193605E0,-1.527118147E-4,2.290677221E-4,-3.054236295E-4
2.357619594E0,1.068982761E-3,8.399150101E-4,-3.054236295E-4
2.360045532E0,1.068982761E-3,2.290677221E-4,-1.527118147E-3
2.362471469E0,-7.635590737E-4,-3.817795368E-4,3.054236295E-4
2.364897355E0,-7.635590737E-4,-9.926267667E-4,9.162708884E-4
2.367323344E0,-7.635590737E-4,-3.817795368E-4,3.054236295E-4
2.369749282E0,-1.527118147E-4,-9.926267667E-4,-9.162708884E-4
2.372175219E0,-1.527118147E-4,-3.817795368E-4,-9.162708884E-4
2.374601105E0,4.581354442E-4,-9.926267667E-4,-3.054236295E-4
2.377027094E0,-7.635590737E-4,8.399150101E-4,-3.054236295E-4
2.379453032E0,1.068982761E-3,-3.817795368E-4,3.054236295E-4
2.381878969E0,-1.527118147E-4,-3.817795368E-4,3.054236295E-4
2.384304907E0,4.581354442E-4,2.290677221E-4,1.527118147E-3
2.386730792E0,-1.527118147E-4,2.290677221E-4,9.162708884E-4
2.389156782E0,4.581354442E-4,2.290677221E-4,1.527118147E-3
2.391582719E0,4.581354442E-4,-3.817795368E-4,-9.162708884E-4
2.394008657E0,-7.635590737E-4,2.290677221E-4,3.054236295E-4
2.396434594E0,-1.527118147E-4,2.290677221E-4,-9.162708884E-4
2.398860532E0,-1.527118147E-4,8.399150101E-4,-3.054236295E-4
2.401286469E0,4.581354442E-4,-3.817795368E-4,3.054236295E-4
2.403712407E0,-7.635590737E-4,2.290677221E-4,9.162708884E-4
2.406138344E0,4.581354442E-4,-2.214321401E-3,3.054236295E-4
2.408564282E0,4.581354442E-4,-9.926267667E-4,-3.054236295E-4
2.410990219E0,1.068982761E-3,-9.926267667E-4,-9.162708884E-4
2.413416157E0,4.581354442E-4,-3.817795368E-4,3.054236295E-4
2.415842094E0,1.068982761E-3,-9.926267667E-4,9.162708884E-4
2.418268032E0,1.068982761E-3,-3.817795368E-4,1.527118147E-3
2.420693969E0,-7.635590737E-4,8.399150101E-4,3.054236295E-4
2.423119907E0,1.068982761E-3,-3.817795368E-4,-3.054236295E-4
2.425545844E0,-1.527118147E-4,2.290677221E-4,-9.162708884E-4
2.427971782E0,1.679830020E-3,-3.817795368E-4,-3.054236295E-4
2.430397719E0,1.068982761E-3,2.290677221E-4,3.054236295E-4
2.432823657E0,-1.527118147E-4,-3.817795368E-4,-3.054236295E-4
2.435249594E0,-1.527118147E-4,8.399150101E-4,3.054236295E-4
2.437675532E0,-1.374406274E-3,2.290677221E-4,-3.054236295E-4
2.440101469E0,-1.527118147E-4,-9.926267667E-4,-3.054236295E-4
2.442527407E0,-1.527118147E-4,2.290677221E-4,-3.054236295E-4
2.444953344E0,-1.374406274E-3,-3.817795368E-4,9.162708884E-4
2.447379282E0,-7.635590737E-4,2.290677221E-4,-9.162708884E-4
2.449805219E0,-1.527118147E-4,-9.926267667E-4,-3.054236295E-4
2.452231157E0,-1.527118147E-4,8.399150101E-4,-3.054236295E-4
2.454657094E0,-1.527118147E-4,-3.817795368E-4,3.054236295E-4
2.457083032E0,-1.527118147E-4,8.399150101E-4,-3.054236295E-4
2.459508969E0,-1.527118147E-4,8.399150101E-4,-9.162708884E-4
2.461934907E0,-1.527118147E-4,-9.926267667E-4,-9.162708884E-4
2.464360844E0,4.581354442E-4,3.054236295E-4,9.162708884E-4
2.466786782E0,-1.527118147E-4,9.162708884E-4,9.162708884E-4
2.469212719E0,4.581354442E-4,-9.162708884E-4,9.162708884E-4
2.471638657E0,-7.635590737E-4,-9.162708884E-4,-3.054236295E-4
2.474064594E0,4.581354442E-4,9.162708884E-4,3.054236295E-4
2.476490532E0,-7.635590737E-4,-3.054236295E-4,-3.054236295E-4
2.478916469E0,-7.635590737E-4,-9.162708884E-4,3.054236295E-4
2.481342407E0,4.581354442E-4,-9.162708884E-4,9.162708884E-4
2.483768344E0,-7.635590737E-4,3.054236295E-4,9.162708884E-4
2.486194282E0,-1.527118147E-4,3.054236295E-4,9.162708884E-4
2.488620219E0,4.581354442E-4,-3.054236295E-4,3.054236295E-4
2.491046157E0,4.581354442E-4,-3.054236295E-4,9.162708884E-4
2.493472094E0,4.581354442E-4,3.054236295E-4,9.162708884E-4
2.495898032E0,4.581354442E-4,3.054236295E-4,3.054236295E-4
2.498323969E0,-1.527118147E-4,3.054236295E-4,-3.054236295E-4
2.500749907E0,4.581354442E-4,3.054236295E-4,-9.162708884E-4
2.503175844E0,1.068982761E-3,3.054236295E-4,-3.054236295E-4
2.505601782E0,-1.374406274E-3,3.054236295E-4,1.527118147E-3
2.508027719E0,-1.527118147E-4,-9.162708884E-4,3.054236295E-4
2.510453657E0,1.068982761E-3,-3.054236295E-4,-3.054236295E-4
2.512879594E0,-7.635590737E-4,-2.137965523E-3,-3.054236295E-4
2.515305532E0,-1.374406274E-3,-9.162708884E-4,3.054236295E-4
2.517731469E0,4.581354442E-4,-3.054236295E-4,-9.162708884E-4
2.520157407E0,-1.527118147E-4,-2.137965523E-3,-3.054236295E-4
2.522583344E0,-7.635590737E-4,-9.162708884E-4,3.054236295E-4
2.525009282E0,1.068982761E-3,1.527118147E-3,-3.054236295E-4
2.527435219E0,-7.635590737E-4,-3.054236295E-4,9.162708884E-4
2.529861157E0,-7.635590737E-4,3.054236295E-4,3.054236295E-4
2.532287094E0,-1.527118147E-4,-3.054236295E-4,3.054236295E-4
2.534713032E0,-7.635590737E-4,-3.054236295E-4,3.054236295E-4
2.537138969E0,-1.527118147E-4,9.162708884E-4,-3.054236295E-4
2.539564907E0,-1.527118147E-4,9.162708884E-4,-9.162708884E-4
2.541990844E0,-7.635590737E-4,-3.054236295E-4,9.162708884E-4
2.544416782E0,-7.635590737E-4,9.162708884E-4,3.054236295E-4
2.546842719E0,-1.527118147E-4,3.054236295E-4,-1.527118147E-3
2.549268657E0,-1.985253533E-3,-3.054236295E-4,3.054236295E-4
2.551694594E0,-1.527118147E-4,3.054236295E-4,9.162708884E-4
2.554120532E0,1.679830020E-3,-9.162708884E-4,-3.054236295E-4
2.556546469E0,4.581354442E-4,9.162708884E-4,-9.162708884E-4
2.558972407E0,-1.374406274E-3,-3.054236295E-4,3.054236295E-4
2.561398344E0,-7.635590737E-4,-3.054236295E-4,3.054236295E-4
2.563824282E0,-1.527118147E-4,-3.054236295E-4,3.054236295E-4
2.566250219E0,-7.635590737E-4,3.054236295E-4,-3.054236295E-4
2.568676157E0,-1.527118147E-4,-3.054236295E-4,3.054236295E-4
2.571102094E0,-1.527118147E-4,9.162708884E-4,-3.054236295E-4
2.573528032E0,-1.374406274E-3,-3.054236295E-4,3.054236295E-4
2.575953969E0,4.581354442E-4,9.162708884E-4,-9.162708884E-4
2.578379907E0,-1.527118147E-4,9.162708884E-4,-3.054236295E-4
2.580805844E0,-1.527118147E-4,3.054236295E-4,-3.054236295E-4
2.583231782E0,4.581354442E-4,-9.162708884E-4,-3.054236295E-4
2.585657719E0,4.581354442E-4,3.054236295E-4,9.162708884E-4
2.588083657E0,4.581354442E-4,3.054236295E-4,9.162708884E-4
2.590509594E0,4.581354442E-4,3.054236295E-4,-3.054236295E-4
2.592935532E0,4.581354442E-4,-2.137965523E-3,3.054236295E-4
2.595361469E0,4.581354442E-4,-1.527118147E-3,-9.926267667E-4
2.597787407E0,1.068982761E-3,-9.162708884E-4,-3.817795368E-4
2.600213344E0,4.581354442E-4,-1.527118147E-3,2.290677221E-4
2.602639282E0,4.581354442E-4,-3.054236295E-4,8.399150101E-4
2.605065219E0,-1.527118147E-4,-3.054236295E-4,8.399150101E-4
2.607491157E0,4.581354442E-4,-9.162708884E-4,-3.817795368E-4
2.609917094E0,4.581354442E-4,-3.054236295E-4,-3.817795368E-4
2.612343032E0,-1.527118147E-4,-2.137965523E-3,2.290677221E-4
2.614768969E0,4.581354442E-4,3.054236295E-4,-3.817795368E-4
2.617194907E0,-1.374406274E-3,3.054236295E-4,2.290677221E-4
2.619620844E0,-1.527118147E-4,1.527118147E-3,2.290677221E-4
2.622046782E0,-7.635590737E-4,-2.290677221E-4,2.290677221E-4
2.624472719E0,-7.635590737E-4,9.926267667E-4,2.290677221E-4
2.626898657E0,1.068982761E-3,3.817795368E-4,2.290677221E-4
2.629324594E0,4.581354442E-4,3.817795368E-4,8.399150101E-4
2.631750532E0,-1.527118147E-4,9.926267667E-4,-3.817795368E-4
2.634176469E0,-1.527118147E-4,-1.450762269E-3,8.399150101E-4
2.636602407E0,-7.635590737E-4,-8.399150101E-4,1.450762269E-3
2.639028344E0,-1.527118147E-4,9.926267667E-4,-1.603474026E-3
2.641454282E0,-1.374406274E-3,3.817795368E-4,2.290677221E-4
2.643880219E0,-1.527118147E-4,-2.290677221E-4,-1.603474026E-3
2.646306157E0,1.068982761E-3,-2.290677221E-4,-2.214321401E-3
2.648732094E0,-1.527118147E-4,3.817795368E-4,-1.603474026E-3
2.651158032E0,4.581354442E-4,-8.399150101E-4,2.290677221E-4
2.653583969E0,4.581354442E-4,1.603474026E-3,2.290677221E-4
2.656009907E0,-7.635590737E-4,9.926267667E-4,8.399150101E-4
2.658435844E0,-1.527118147E-4,9.926267667E-4,2.290677221E-4
2.660861782E0,-1.527118147E-4,9.926267667E-4,2.290677221E-4
2.663287719E0,1.068982761E-3,-2.290677221E-4,2.290677221E-4
2.665713657E0,-1.527118147E-4,3.817795368E-4,2.290677221E-4
2.668139594E0,1.068982761E-3,1.603474026E-3,-9.926267667E-4
2.670565532E0,4.581354442E-4,3.817795368E-4,-3.817795368E-4
2.672991469E0,-1.527118147E-4,-2.290677221E-4,-3.817795368E-4
2.675417407E0,4.581354442E-4,3.817795368E-4,8.399150101E-4
2.677843344E0,-7.635590737E-4,-2.290677221E-4,8.399150101E-4
2.680269282E0,4.581354442E-4,3.817795368E-4,-3.817795368E-4
2.682695219E0,-1.527118147E-4,9.926267667E-4,2.290677221E-4
2.685121157E0,4.581354442E-4,-2.290677221E-4,2.290677221E-4
2.687547094E0,4.581354442E-4,-2.290677221E-4,2.290677221E-4
2.689973032E0,-7.635590737E-4,9.926267667E-4,-3.817795368E-4
2.692398969E0,-1.985253533E-3,3.817795368E-4,8.399150101E-4
2.694824907E0,-7.635590737E-4,3.817795368E-4,-3.817795368E-4
2.697250844E0,4.581354442E-4,-2.290677221E-4,-9.926267667E-4
2.699676782E0,-1.527118147E-4,3.817795368E-4,-3.817795368E-4
2.702102719E0,1.068982761E-3,-8.399150101E-4,2.290677221E-4
2.704528657E0,-1.374406274E-3,-2.290677221E-4,-3.817795368E-4
2.706954594E0,-1.527118147E-4,-8.399150101E-4,8.399150101E-4
2.709380532E0,-1.527118147E-4,3.817795368E-4,8.399150101E-4
2.711806469E0,4.581354442E-4,3.817795368E-4,2.290677221E-4
2.714232407E0,-1.527118147E-4,-2.290677221E-4,-9.926267667E-4
2.716658344E0,4.581354442E-4,-8.399150101E-4,2.290677221E-4
2.719084282E0,1.068982761E-3,-2.290677221E-4,8.399150101E-4
2.721510219E0,-1.527118147E-4,-1.450762269E-3,-9.926267667E-4
2.723936157E0,4.581354442E-4,3.817795368E-4,-3.817795368E-4
2.726362094E0,-1.527118147E-4,3.817795368E-4,-3.817795368E-4
2.728788032E0,-7.635590737E-4,3.817795368E-4,-9.926267667E-4
2.731213969E0,1.068982761E-3,-1.450762269E-3,-9.926267667E-4
2.733639907E0,1.068982761E-3,-2.290677221E-4,-9.926267667E-4
2.736065844E0,4.581354442E-4,3.817795368E-4,-3.817795368E-4
2.738491782E0,1.068982761E-3,3.817795368E-4,-3.817795368E-4
2.740917719E0,4.581354442E-4,3.817795368E-4,8.399150101E-4
2.743343657E0,1.068982761E-3,3.817795368E-4,2.290677221E-4
2.745769594E0,4.581354442E-4,1.603474026E-3,-9.926267667E-4
2.748195532E0,1.068982761E-3,9.926267667E-4,8.399150101E-4
2.750621469E0,4.581354442E-4,-2.290677221E-4,-9.926267667E-4
2.753047407E0,-2.596100792E-3,-8.399150101E-4,2.290677221E-4
2.755473344E0,-1.527118147E-4,3.817795368E-4,2.290677221E-4
2.757899282E0,1.679830020E-3,9.926267667E-4,-3.817795368E-4
2.760325219E0,-7.635590737E-4,-2.290677221E-4,2.290677221E-4
2.762751157E0,-1.374406274E-3,9.926267667E-4,8.399150101E-4
2.765177094E0,-7.635590737E-4,3.817795368E-4,-3.817795368E-4
2.767603032E0,-7.635590737E-4,3.817795368E-4,2.290677221E-4
2.770028969E0,4.581354442E-4,-2.290677221E-4,-3.817795368E-4
2.772454907E0,-1.527118147E-4,-1.450762269E-3,8.399150101E-4
2.774880844E0,4.581354442E-4,3.817795368E-4,2.290677221E-4
2.777306782E0,-7.635590737E-4,-2.290677221E-4,2.290677221E-4
2.779732719E0,1.068982761E-3,-2.290677221E-4,1.450762269E-3
2.782158657E0,-1.527118147E-4,-8.399150101E-4,-9.926267667E-4
2.784584594E0,4.581354442E-4,3.817795368E-4,-9.926267667E-4
2.787010532E0,-1.985253533E-3,9.926267667E-4,-3.817795368E-4
2.789436469E0,1.068982761E-3,-8.399150101E-4,8.399150101E-4
2.791862407E0,4.581354442E-4,-8.399150101E-4,-3.817795368E-4
2.794288344E0,4.581354442E-4,-2.290677221E-4,8.399150101E-4
2.796714282E0,1.068982761E-3,1.603474026E-3,3.054236295E-4
2.799140219E0,4.581354442E-4,3.817795368E-4,9.162708884E-4
2.801566157E0,1.679830020E-3,3.817795368E-4,9.162708884E-4
2.803992094E0,4.581354442E-4,-8.399150101E-4,3.054236295E-4
2.806418032E0,4.581354442E-4,-8.399150101E-4,9.162708884E-4
2.808843969E0,1.068982761E-3,-2.290677221E-4,-9.162708884E-4
2.811269907E0,-7.635590737E-4,3.817795368E-4,-3.054236295E-4
2.813695844E0,4.581354442E-4,-2.290677221E-4,3.054236295E-4
2.816121782E0,4.581354442E-4,-2.290677221E-4,1.527118147E-3
2.818547719E0,4.581354442E-4,-2.290677221E-4,9.162708884E-4
2.820973657E0,-7.635590737E-4,9.926267667E-4,-3.054236295E-4
2.823399594E0,-1.985253533E-3,-8.399150101E-4,-9.162708884E-4
2.825825532E0,-1.374406274E-3,3.817795368E-4,-9.162708884E-4
2.828251469E0,-7.635590737E-4,3.817795368E-4,-9.162708884E-4
2.830677407E0,-1.527118147E-4,-1.450762269E-3,1.527118147E-3
2.833103344E0,4.581354442E-4,3.817795368E-4,3.054236295E-4
2.835529282E0,-1.527118147E-4,-8.399150101E-4,-3.054236295E-4
2.837955219E0,-1.374406274E-3,-8.399150101E-4,-3.054236295E-4
2.840381157E0,-1.527118147E-4,-8.399150101E-4,3.054236295E-4
2.842807094E0,-7.635590737E-4,3.817795368E-4,-1.527118147E-3
2.845233032E0,-1.527118147E-4,3.817795368E-4,-3.054236295E-4
2.847658969E0,-1.527118147E-4,-8.399150101E-4,9.162708884E-4
2.850084907E0,-7.635590737E-4,9.926267667E-4,9.162708884E-4
2.852510844E0,-7.635590737E-4,9.926267667E-4,-3.817795368E-4
2.854936782E0,-1.527118147E-4,-2.290677221E-4,2.290677221E-4
2.857362719E0,-1.527118147E-4,-8.399150101E-4,8.399150101E-4
2.859788657E0,-7.635590737E-4,-8.399150101E-4,8.399150101E-4
2.862214594E0,4.581354442E-4,-2.290677221E-4,-3.817795368E-4
2.864640532E0,4.581354442E-4,9.926267667E-4,2.290677221E-4
2.867066469E0,4.581354442E-4,3.817795368E-4,8.399150101E-4
2.869492407E0,-1.527118147E-4,-2.290677221E-4,2.290677221E-4
2.871918344E0,-7.635590737E-4,9.926267667E-4,-9.926267667E-4
2.874344282E0,4.581354442E-4,9.926267667E-4,-3.817795368E-4
2.876770219E0,1.679830020E-3,3.817795368E-4,1.450762269E-3
2.879196157E0,1.068982761E-3,9.926267667E-4,-9.926267667E-4
2.881622094E0,-1.527118147E-4,9.926267667E-4,2.290677221E-4
2.884048032E0,-7.635590737E-4,9.926267667E-4,2.290677221E-4
2.886473969E0,-7.635590737E-4,3.817795368E-4,-3.817795368E-4
2.888899907E0,-1.527118147E-4,-2.290677221E-4,-3.817795368E-4
2.891325844E0,-7.635590737E-4,3.817795368E-4,-9.926267667E-4
2.893751782E0,-7.635590737E-4,-8.399150101E-4,1.450762269E-3
2.896177719E0,-1.527118147E-4,-8.399150101E-4,-3.817795368E-4
2.898603657E0,-1.527118147E-4,1.603474026E-3,8.399150101E-4
2.901029594E0,-1.527118147E-4,3.817795368E-4,2.290677221E-4
2.903455532E0,4.581354442E-4,9.926267667E-4,2.290677221E-4
2.905881469E0,-7.635590737E-4,-8.399150101E-4,-9.926267667E-4
2.908307407E0,-7.635590737E-4,-2.290677221E-4,-3.817795368E-4
2.910733344E0,-1.374406274E-3,3.817795368E-4,8.399150101E-4
2.913159282E0,-7.635590737E-4,3.817795368E-4,2.290677221E-4
2.915585219E0,-7.635590737E-4,1.603474026E-3,2.290677221E-4
2.918011157E0,-1.374406274E-3,9.926267667E-4,8.399150101E-4
2.920437094E0,4.581354442E-4,9.926267667E-4,8.399150101E-4
2.922863032E0,1.068982761E-3,3.817795368E-4,2.061609412E-3
2.925288969E0,-1.527118147E-4,3.817795368E-4,2.290677221E-4
2.927714907E0,-1.374406274E-3,3.817795368E-4,-3.817795368E-4
2.930140844E0,-1.527118147E-4,-2.290677221E-4,1.450762269E-3
2.932566782E0,4.581354442E-4,3.817795368E-4,8.399150101E-4
2.934992719E0,-1.527118147E-4,3.817795368E-4,8.399150101E-4
2.937418657E0,-7.635590737E-4,-2.290677221E-4,-9.926267667E-4
2.939844594E0,1.068982761E-3,3.817795368E-4,-9.926267667E-4
2.942270532E0,4.581354442E-4,-8.399150101E-4,-3.817795368E-4
2.944696469E0,-1.527118147E-4,-2.290677221E-4,8.399150101E-4
2.947122407E0,4.581354442E-4,9.926267667E-4,1.450762269E-3
2.949548344E0,4.581354442E-4,3.817795368E-4,-3.817795368E-4
2.951974282E0,2.290677279E-3,9.926267667E-4,-9.926267667E-4
2.954400219E0,-1.527118147E-4,-3.054236295E-4,1.450762269E-3
2.956826157E0,-1.527118147E-4,3.054236295E-4,-3.817795368E-4
2.959252094E0,-1.374406274E-3,9.162708884E-4,-3.817795368E-4
2.961678032E0,-7.635590737E-4,3.054236295E-4,-9.926267667E-4
2.964103969E0,-7.635590737E-4,-3.054236295E-4,-3.817795368E-4
2.966529907E0,-7.635590737E-4,-3.054236295E-4,2.290677221E-4
2.968955844E0,-1.527118147E-4,-1.527118147E-3,-3.817795368E-4
2.971381782E0,1.068982761E-3,-9.162708884E-4,8.399150101E-4
2.973807719E0,1.068982761E-3,-9.162708884E-4,-9.926267667E-4
2.976233657E0,4.581354442E-4,3.054236295E-4,-3.817795368E-4
2.978659594E0,-1.527118147E-4,-9.162708884E-4,8.399150101E-4
2.981085532E0,-1.527118147E-4,-3.054236295E-4,1.450762269E-3
2.983511469E0,-1.527118147E-4,9.162708884E-4,2.290677221E-4
2.985937407E0,-1.527118147E-4,3.054236295E-4,-3.817795368E-4
2.988363344E0,-1.527118147E-4,3.054236295E-4,2.290677221E-4
2.990789282E0,4.581354442E-4,9.162708884E-4,-3.817795368E-4
2.993215219E0,1.068982761E-3,-9.162708884E-4,2.290677221E-4
2.995641157E0,-1.527118147E-4,9.162708884E-4,-3.817795368E-4
2.998067094E0,-7.635590737E-4,1.527118147E-3,2.290677221E-4
3.000493032E0,4.581354442E-4,-1.527118147E-3,-1.603474026E-3
3.002918969E0,-1.527118147E-4,3.054236295E-4,2.290677221E-4
3.005344907E0,-1.527118147E-4,9.162708884E-4,-3.817795368E-4
3.007770844E0,-1.527118147E-4,-3.054236295E-4,2.290677221E-4
3.010196782E0,4.581354442E-4,-3.054236295E-4,-9.926267667E-4
3.012622719E0,4.581354442E-4,3.054236295E-4,-9.926267667E-4
3.015048657E0,-1.527118147E-4,3.054236295E-4,8.399150101E-4
3.017474594E0,4.581354442E-4,-9.162708884E-4,8.399150101E-4
3.019900532E0,4.581354442E-4,-9.162708884E-4,-3.817795368E-4
3.022326469E0,-1.527118147E-4,-3.054236295E-4,-3.817795368E-4
3.024752407E0,-7.635590737E-4,3.054236295E-4,1.450762269E-3
3.027178344E0,-1.527118147E-4,3.054236295E-4,2.290677221E-4
3.029604282E0,-1.527118147E-4,3.054236295E-4,8.399150101E-4
3.032030219E0,-7.635590737E-4,-3.054236295E-4,2.290677221E-4
3.034456157E0,-7.635590737E-5,-3.054236295E-4,-3.817795368E-4
3.036882094E0,-6.872031372E-4,-3.054236295E-4,-3.817795368E-4
3.039308032E0,5.344913807E-4,-3.054236295E-4,-9.926267667E-4
3.041733969E0,-6.872031372E-4,-9.162708884E-4,-9.926267667E-4
3.044159907E0,5.344913807E-4,-3.054236295E-4,-3.817795368E-4
3.046585844E0,-7.635590737E-5,-3.054236295E-4,8.399150101E-4
3.049011782E0,-6.872031372E-4,-3.054236295E-4,1.450762269E-3
3.051437719E0,-7.635590737E-5,-9.162708884E-4,8.399150101E-4
3.053863657E0,-7.635590737E-5,-9.162708884E-4,2.290677221E-4
3.056289594E0,-6.872031372E-4,3.054236295E-4,2.290677221E-4
3.058715532E0,5.344913807E-4,-3.054236295E-4,2.290677221E-4
3.061141469E0,-6.872031372E-4,-1.527118147E-3,-9.926267667E-4
3.063567407E0,-6.872031372E-4,-3.054236295E-4,2.290677221E-4
3.065993344E0,-1.298050396E-3,9.162708884E-4,-9.926267667E-4
3.068419282E0,5.344913807E-4,-3.054236295E-4,-3.817795368E-4
3.070845219E0,5.344913807E-4,3.054236295E-4,2.290677221E-4
3.073271157E0,5.344913807E-4,1.527118147E-3,-3.817795368E-4
3.075697094E0,-6.872031372E-4,3.054236295E-4,2.290677221E-4
3.078123032E0,5.344913807E-4,-9.162708884E-4,-3.817795368E-4
3.080548969E0,5.344913807E-4,-3.054236295E-4,2.290677221E-4
3.082974907E0,5.344913807E-4,-3.054236295E-4,8.399150101E-4
3.085400844E0,-7.635590737E-5,-3.054236295E-4,-3.817795368E-4
3.087826782E0,5.344913807E-4,-3.054236295E-4,-1.603474026E-3
3.090252719E0,-1.908897655E-3,-3.054236295E-4,2.290677221E-4
3.092678657E0,-6.872031372E-4,-9.162708884E-4,8.399150101E-4
3.095104594E0,1.145338640E-3,-9.162708884E-4,8.399150101E-4
3.097530532E0,1.145338640E-3,-1.527118147E-3,-3.817795368E-4
3.099956469E0,1.145338640E-3,9.162708884E-4,8.399150101E-4
3.102382407E0,1.145338640E-3,3.054236295E-4,2.290677221E-4
3.104808344E0,1.145338640E-3,-3.054236295E-4,2.290677221E-4
3.107234282E0,-6.872031372E-4,3.054236295E-4,8.399150101E-4
3.109660219E0,5.344913807E-4,9.162708884E-4,-4.581354442E-4
3.112086157E0,5.344913807E-4,9.162708884E-4,-1.068982761E-3
3.114512094E0,-1.298050396E-3,9.162708884E-4,1.527118147E-4
3.116938032E0,5.344913807E-4,3.054236295E-4,1.527118147E-4
3.119363969E0,-7.635590737E-5,9.162708884E-4,-4.581354442E-4
3.121789907E0,5.344913807E-4,1.527118147E-3,-1.068982761E-3
3.124215844E0,-7.635590737E-5,-3.054236295E-4,7.635590737E-4
3.126641782E0,-6.872031372E-4,-3.054236295E-4,1.527118147E-4
3.129067719E0,5.344913807E-4,1.527118147E-3,7.635590737E-4
3.131493657E0,5.344913807E-4,-3.054236295E-4,1.374406274E-3
3.133919594E0,1.145338640E-3,9.162708884E-4,7.635590737E-4
3.136345532E0,-6.872031372E-4,3.054236295E-4,7.635590737E-4
3.138771469E0,1.145338640E-3,-3.054236295E-4,-1.068982761E-3
3.141197407E0,5.344913807E-4,3.054236295E-4,-1.068982761E-3
3.143623344E0,1.145338640E-3,-1.527118147E-3,1.527118147E-4
3.146049282E0,-7.635590737E-5,-3.054236295E-4,7.635590737E-4
3.148475219E0,-7.635590737E-5,-3.054236295E-4,1.527118147E-4
3.150901157E0,-7.635590737E-5,3.054236295E-4,-4.581354442E-4
3.153327094E0,5.344913807E-4,-9.162708884E-4,-1.679830020E-3
3.155753032E0,-1.298050396E-3,-3.054236295E-4,-1.068982761E-3
3.158178969E0,-7.635590737E-5,3.054236295E-4,-4.581354442E-4
3.160604907E0,-7.635590737E-5,-3.054236295E-4,-4.581354442E-4
3.163030844E0,-7.635590737E-5,-9.162708884E-4,-4.581354442E-4
3.165456782E0,-7.635590737E-5,3.054236295E-4,-1.068982761E-3
3.167882719E0,1.145338640E-3,-3.054236295E-4,-4.581354442E-4
3.170308657E0,1.145338640E-3,-9.162708884E-4,-1.068982761E-3
3.172734594E0,5.344913807E-4,-3.054236295E-4,-4.581354442E-4
3.175160532E0,-7.635590737E-5,9.162708884E-4,-4.581354442E-4
3.177586469E0,-7.635590737E-5,3.054236295E-4,1.374406274E-3
3.180012407E0,5.344913807E-4,-3.054236295E-4,-4.581354442E-4
3.182438344E0,-1.298050396E-3,-9.162708884E-4,1.527118147E-4
3.184864282E0,-1.298050396E-3,3.054236295E-4,7.635590737E-4
3.187290219E0,5.344913807E-4,3.054236295E-4,-4.581354442E-4
3.189716157E0,-6.872031372E-4,9.162708884E-4,1.527118147E-4
3.192142094E0,-7.635590737E-5,9.162708884E-4,-4.581354442E-4
3.194568032E0,-7.635590737E-5,-3.054236295E-4,1.527118147E-4
3.196993969E0,-7.635590737E-5,-9.162708884E-4,-4.581354442E-4
3.199419907E0,-7.635590737E-5,-9.162708884E-4,-1.068982761E-3
3.201845844E0,5.344913807E-4,-3.054236295E-4,-1.068982761E-3
3.204271782E0,5.344913807E-4,-3.054236295E-4,1.527118147E-4
3.206697719E0,-6.872031372E-4,1.527118147E-3,1.527118147E-4
3.209123657E0,-1.298050396E-3,-1.527118147E-3,-1.679830020E-3
3.211549594E0,5.344913807E-4,3.054236295E-4,-4.581354442E-4
3.213975532E0,5.344913807E-4,-9.162708884E-4,-4.581354442E-4
3.216401521E0,5.344913807E-4,3.054236295E-4,-1.679830020E-3
3.218827407E0,-7.635590737E-5,9.162708884E-4,-4.581354442E-4
3.221253344E0,-7.635590737E-5,3.054236295E-4,1.527118147E-4
3.223679282E0,5.344913807E-4,3.054236295E-4,1.527118147E-4
3.226105219E0,-1.374406274E-3,-1.527118147E-3,-3.817795368E-4
3.228531157E0,-1.527118147E-4,-3.054236295E-4,-9.926267667E-4
3.230957094E0,2.290677279E-3,3.054236295E-4,-3.817795368E-4
3.233383032E0,4.581354442E-4,-3.054236295E-4,-9.926267667E-4
3.235808969E0,4.581354442E-4,3.054236295E-4,-1.603474026E-3
3.238234907E0,4.581354442E-4,3.054236295E-4,-3.817795368E-4
3.240660844E0,4.581354442E-4,-3.054236295E-4,-9.926267667E-4
3.243086782E0,4.581354442E-4,-3.054236295E-4,-3.817795368E-4
3.245512719E0,-1.527118147E-4,-9.162708884E-4,2.290677221E-4
3.247938657E0,-7.635590737E-4,3.054236295E-4,2.290677221E-4
3.250364594E0,-1.527118147E-4,3.054236295E-4,-3.817795368E-4
3.252790532E0,-7.635590737E-4,3.054236295E-4,-3.817795368E-4
3.255216469E0,-1.374406274E-3,3.054236295E-4,2.290677221E-4
3.257642407E0,-1.527118147E-4,-9.162708884E-4,2.290677221E-4
3.260068344E0,4.581354442E-4,3.054236295E-4,2.290677221E-4
3.262494282E0,4.581354442E-4,3.054236295E-4,-3.817795368E-4
3.264920219E0,4.581354442E-4,-9.162708884E-4,-3.817795368E-4
3.267346157E0,1.068982761E-3,3.054236295E-4,2.290677221E-4
3.269772094E0,4.581354442E-4,1.527118147E-3,-3.817795368E-4
3.272198032E0,1.068982761E-3,3.054236295E-4,-3.817795368E-4
3.274623969E0,4.581354442E-4,3.054236295E-4,2.290677221E-4
3.277049907E0,-1.527118147E-4,-3.054236295E-4,2.290677221E-4
3.279475844E0,-1.527118147E-4,-9.162708884E-4,2.290677221E-4
3.281901782E0,-1.527118147E-4,3.054236295E-4,2.290677221E-4
3.284327719E0,1.679830020E-3,9.162708884E-4,-9.926267667E-4
3.286753657E0,-1.985253533E-3,3.054236295E-4,-9.926267667E-4
3.289179594E0,-1.527118147E-4,-3.054236295E-4,2.290677221E-4
3.291605532E0,-7.635590737E-4,-9.162708884E-4,2.290677221E-4
3.294031469E0,-7.635590737E-4,3.054236295E-4,-3.817795368E-4
3.296457407E0,4.581354442E-4,-9.162708884E-4,-3.817795368E-4
3.298883344E0,4.581354442E-4,3.054236295E-4,1.450762269E-3
3.301309282E0,2.290677279E-3,3.054236295E-4,-3.817795368E-4
3.303735219E0,4.581354442E-4,9.162708884E-4,-9.926267667E-4
3.306161157E0,-7.635590737E-4,9.162708884E-4,-3.817795368E-4
3.308587094E0,-1.527118147E-4,-3.054236295E-4,2.290677221E-4
3.311013032E0,-1.527118147E-4,3.054236295E-4,-9.926267667E-4
3.313438969E0,-1.527118147E-4,-9.162708884E-4,-9.926267667E-4
3.315864907E0,-1.374406274E-3,-3.054236295E-4,8.399150101E-4
3.318290844E0,-7.635590737E-4,3.054236295E-4,-3.817795368E-4
3.320716782E0,-1.527118147E-4,-3.054236295E-4,-9.926267667E-4
3.323142719E0,4.581354442E-4,9.162708884E-4,3.054236295E-4
3.325568657E0,-7.635590737E-4,1.527118147E-3,3.054236295E-4
3.327994594E0,-1.527118147E-4,3.054236295E-4,9.162708884E-4
3.330420532E0,-7.635590737E-4,1.527118147E-3,9.162708884E-4
3.332846469E0,4.581354442E-4,9.162708884E-4,3.054236295E-4
3.335272407E0,-1.527118147E-4,-3.054236295E-4,9.162708884E-4
3.337698344E0,-1.527118147E-4,3.054236295E-4,1.527118147E-3
3.340124282E0,-1.527118147E-4,-3.054236295E-4,9.162708884E-4
3.342550219E0,4.581354442E-4,1.527118147E-3,-3.054236295E-4
3.344976157E0,-1.527118147E-4,3.054236295E-4,3.054236295E-4
3.347402094E0,-1.527118147E-4,9.162708884E-4,-3.054236295E-4
3.349828032E0,-1.527118147E-4,-3.054236295E-4,9.162708884E-4
3.352253969E0,4.581354442E-4,-1.527118147E-3,1.527118147E-3
3.354679907E0,-1.527118147E-4,-3.054236295E-4,9.162708884E-4
3.357105844E0,-7.635590737E-4,3.054236295E-4,3.054236295E-4
3.359531782E0,-1.527118147E-4,-3.054236295E-4,9.162708884E-4
3.361957719E0,-1.374406274E-3,9.162708884E-4,1.527118147E-3
3.364383657E0,-7.635590737E-4,3.054236295E-4,3.054236295E-4
3.366809594E0,-7.635590737E-4,-3.054236295E-4,1.527118147E-3
3.369235532E0,-1.527118147E-4,3.054236295E-4,3.054236295E-4
3.371661469E0,-1.527118147E-4,-3.054236295E-4,3.054236295E-4
3.374087407E0,-7.635590737E-4,-3.054236295E-4,3.054236295E-4
3.376513344E0,-1.527118147E-4,1.527118147E-3,-9.162708884E-4
3.378939282E0,1.068982761E-3,3.054236295E-4,9.162708884E-4
3.381365219E0,-1.527118147E-4,-9.162708884E-4,3.054236295E-4
3.383791157E0,-7.635590737E-4,-3.054236295E-4,9.162708884E-4
3.386217094E0,-1.527118147E-4,-3.054236295E-4,9.162708884E-4
3.388643032E0,-1.527118147E-4,-3.054236295E-4,-9.162708884E-4
3.391068969E0,-1.527118147E-4,-3.054236295E-4,-9.162708884E-4
3.393494907E0,-1.985253533E-3,-9.162708884E-4,3.054236295E-4
3.395920844E0,-1.527118147E-4,3.054236295E-4,3.054236295E-4
3.398346782E0,1.068982761E-3,3.054236295E-4,-9.162708884E-4
3.400772719E0,-7.635590737E-4,3.054236295E-4,3.054236295E-4
3.403198657E0,1.068982761E-3,-9.162708884E-4,-3.054236295E-4
3.405624594E0,-7.635590737E-4,-3.054236295E-4,-3.054236295E-4
3.408050532E0,-7.635590737E-4,-3.054236295E-4,3.054236295E-4
3.410476469E0,4.581354442E-4,-9.162708884E-4,-3.054236295E-4
3.412902407E0,-1.527118147E-4,-3.054236295E-4,3.054236295E-4
3.415328344E0,-1.527118147E-4,9.162708884E-4,-3.054236295E-4
3.417754282E0,-1.527118147E-4,-9.162708884E-4,9.162708884E-4
3.420180219E0,4.581354442E-4,-3.054236295E-4,9.162708884E-4
3.422606157E0,-7.635590737E-4,-3.054236295E-4,-3.054236295E-4
3.425032094E0,-1.527118147E-4,3.054236295E-4,3.054236295E-4
3.427458032E0,-7.635590737E-4,9.162708884E-4,2.137965523E-3
3.429883969E0,4.581354442E-4,-3.054236295E-4,9.162708884E-4
3.432309907E0,1.068982761E-3,9.162708884E-4,9.162708884E-4
3.434735844E0,4.581354442E-4,-3.054236295E-4,3.054236295E-4
3.437161782E0,4.581354442E-4,-9.162708884E-4,-9.162708884E-4
3.439587719E0,-7.635590737E-4,2.137965523E-3,-9.162708884E-4
3.442013657E0,1.068982761E-3,-3.054236295E-4,-9.162708884E-4
3.444439594E0,4.581354442E-4,1.527118147E-3,-3.054236295E-4
3.446865532E0,-1.527118147E-4,9.162708884E-4,3.054236295E-4
3.449291469E0,4.581354442E-4,-3.054236295E-4,9.162708884E-4
3.451717407E0,-1.527118147E-4,3.054236295E-4,-3.054236295E-4
3.454143344E0,-1.527118147E-4,-9.162708884E-4,-3.054236295E-4
3.456569282E0,-7.635590737E-4,9.162708884E-4,9.162708884E-4
3.458995219E0,-1.527118147E-4,9.162708884E-4,9.162708884E-4
3.461421157E0,4.581354442E-4,-9.162708884E-4,3.054236295E-4
3.463847094E0,4.581354442E-4,-3.054236295E-4,-3.054236295E-4
3.466273032E0,4.581354442E-4,9.162708884E-4,-3.054236295E-4
3.468698969E0,-1.527118147E-4,9.162708884E-4,3.054236295E-4
3.471124907E0,-7.635590737E-4,-3.054236295E-4,9.162708884E-4
3.473550844E0,-7.635590737E-4,3.054236295E-4,9.162708884E-4
3.475976782E0,-7.635590737E-4,3.054236295E-4,3.054236295E-4
3.478402719E0,-1.527118147E-4,3.054236295E-4,3.054236295E-4
3.480828657E0,4.581354442E-4,-3.054236295E-4,1.527118147E-3
3.483254594E0,4.581354442E-4,3.054236295E-4,9.162708884E-4
3.485680532E0,4.581354442E-4,3.054236295E-4,8.399150101E-4
3.488106469E0,-1.527118147E-4,3.054236295E-4,-9.926267667E-4
3.490532407E0,-7.635590737E-4,-9.162708884E-4,8.399150101E-4
3.492958344E0,-1.527118147E-4,-9.162708884E-4,1.450762269E-3
3.495384282E0,-7.635590737E-4,3.054236295E-4,8.399150101E-4
3.497810219E0,-1.527118147E-4,-3.054236295E-4,2.290677221E-4
3.500236157E0,-7.635590737E-4,3.054236295E-4,1.450762269E-3
3.502662094E0,-7.635590737E-4,-9.162708884E-4,8.399150101E-4
3.505088032E0,5.344913807E-4,-9.162708884E-4,-3.817795368E-4
3.507513969E0,1.145338640E-3,3.054236295E-4,-3.817795368E-4
3.509939907E0,1.145338640E-3,3.054236295E-4,-3.817795368E-4
3.512365844E0,-7.635590737E-5,-3.054236295E-4,8.399150101E-4
3.514791782E0,-6.872031372E-4,-3.054236295E-4,-3.817795368E-4
3.517217719E0,1.145338640E-3,-9.162708884E-4,2.290677221E-4
3.519643657E0,1.145338640E-3,9.162708884E-4,2.290677221E-4
3.522069594E0,-1.298050396E-3,-3.054236295E-4,1.450762269E-3
3.524495532E0,-1.298050396E-3,3.054236295E-4,8.399150101E-4
3.526921469E0,-6.872031372E-4,9.162708884E-4,1.450762269E-3
3.529347407E0,-7.635590737E-5,9.162708884E-4,8.399150101E-4
3.531773344E0,-6.872031372E-4,-3.054236295E-4,2.290677221E-4
3.534199282E0,1.145338640E-3,-9.162708884E-4,-9.926267667E-4
3.536625219E0,1.756185899E-3,3.054236295E-4,-1.603474026E-3
3.539051157E0,5.344913807E-4,3.054236295E-4,2.290677221E-4
3.541477094E0,5.344913807E-4,-9.162708884E-4,2.290677221E-4
3.543903032E0,5.344913807E-4,-3.054236295E-4,-9.926267667E-4
3.546328969E0,1.145338640E-3,-3.054236295E-4,2.290677221E-4
3.548754907E0,-7.635590737E-5,-1.527118147E-3,-9.926267667E-4
3.551180844E0,5.344913807E-4,-3.054236295E-4,2.290677221E-4
3.553606782E0,5.344913807E-4,-3.054236295E-4,2.290677221E-4
3.556032719E0,-1.908897655E-3,-3.817795368E-4,-3.817795368E-4
3.558458657E0,-7.635590737E-5,-9.926267667E-4,2.290677221E-4
3.560884594E0,-7.635590737E-5,-3.817795368E-4,2.290677221E-4
3.563310532E0,5.344913807E-4,-3.817795368E-4,-9.926267667E-4
3.565736469E0,-1.298050396E-3,8.399150101E-4,-9.926267667E-4
3.568162407E0,5.344913807E-4,2.290677221E-4,-3.817795368E-4
3.570588344E0,-7.635590737E-5,2.290677221E-4,2.290677221E-4
3.573014282E0,1.145338640E-3,2.290677221E-4,-3.817795368E-4
3.575440219E0,1.145338640E-3,9.162708884E-4,-1.679830020E-3
3.577866157E0,1.145338640E-3,-3.054236295E-4,1.527118147E-4
3.580292094E0,5.344913807E-4,9.162708884E-4,7.635590737E-4
3.582718032E0,-7.635590737E-5,-3.054236295E-4,1.527118147E-4
3.585143969E0,5.344913807E-4,-3.054236295E-4,-1.068982761E-3
3.587569907E0,5.344913807E-4,-3.054236295E-4,-4.581354442E-4
3.589995844E0,-7.635590737E-5,-3.054236295E-4,-1.068982761E-3
3.592421782E0,1.145338640E-3,-9.162708884E-4,1.527118147E-4
3.594847719E0,1.145338640E-3,1.527118147E-3,-4.581354442E-4
3.597273657E0,1.145338640E-3,-1.527118147E-3,-1.068982761E-3
3.599699594E0,-7.635590737E-5,-3.054236295E-4,-1.068982761E-3
3.602125532E0,-7.635590737E-5,3.054236295E-4,-4.581354442E-4
3.604551469E0,1.145338640E-3,-9.162708884E-4,-4.581354442E-4
3.606977407E0,5.344913807E-4,3.054236295E-4,-4.581354442E-4
3.609403344E0,5.344913807E-4,3.054236295E-4,7.635590737E-4
3.611829282E0,-7.635590737E-5,9.162708884E-4,-4.581354442E-4
3.614255219E0,5.344913807E-4,1.527118147E-3,1.374406274E-3
3.616681157E0,-1.298050396E-3,-9.162708884E-4,-1.068982761E-3
3.619107094E0,5.344913807E-4,3.054236295E-4,-4.581354442E-4
3.621533032E0,-7.635590737E-5,9.162708884E-4,-4.581354442E-4
3.623958969E0,5.344913807E-4,9.162708884E-4,-4.581354442E-4
3.626384907E0,-1.298050396E-3,3.054236295E-4,-1.068982761E-3
3.628810844E0,-1.374406274E-3,3.054236295E-4,-4.581354442E-4
3.631236782E0,4.581354442E-4,-9.162708884E-4,-1.068982761E-3
3.633662719E0,-1.985253533E-3,3.054236295E-4,7.635590737E-4
3.636088657E0,-1.527118147E-4,-3.054236295E-4,7.635590737E-4
3.638514594E0,1.068982761E-3,-9.162708884E-4,1.527118147E-4
3.640940532E0,4.581354442E-4,3.054236295E-4,7.635590737E-4
3.643366469E0,4.581354442E-4,3.054236295E-4,1.374406274E-3
3.645792407E0,4.581354442E-4,9.162708884E-4,1.527118147E-4
3.648218344E0,-1.527118147E-4,3.054236295E-4,1.374406274E-3
3.650644282E0,-7.635590737E-4,-3.054236295E-4,1.527118147E-4
3.653070219E0,-7.635590737E-4,3.054236295E-4,1.374406274E-3
3.655496157E0,-7.635590737E-4,-3.054236295E-4,7.635590737E-4
3.657922094E0,-7.635590737E-4,-3.054236295E-4,7.635590737E-4
3.660348032E0,4.581354442E-4,9.162708884E-4,1.527118147E-4
3.662773969E0,-7.635590737E-4,3.054236295E-4,-1.068982761E-3
3.665199907E0,1.068982761E-3,-3.054236295E-4,1.527118147E-4
3.667625844E0,-7.635590737E-4,9.162708884E-4,-1.068982761E-3
3.670051782E0,-1.527118147E-4,9.162708884E-4,-4.581354442E-4
3.672477719E0,-7.635590737E-4,3.054236295E-4,-4.581354442E-4
3.674903657E0,1.068982761E-3,-9.162708884E-4,-4.581354442E-4
3.677329594E0,-7.635590737E-4,-9.162708884E-4,-1.068982761E-3
3.679755532E0,-1.527118147E-4,1.527118147E-3,-4.581354442E-4
3.682181469E0,1.068982761E-3,1.527118147E-3,1.527118147E-4
3.684607407E0,-1.374406274E-3,3.054236295E-4,-4.581354442E-4
3.687033344E0,1.068982761E-3,-9.162708884E-4,7.635590737E-4
3.689459282E0,-1.527118147E-4,3.054236295E-4,-4.581354442E-4
3.691885219E0,1.068982761E-3,-3.054236295E-4,1.527118147E-4
3.694311157E0,4.581354442E-4,3.054236295E-4,-1.068982761E-3
3.696737094E0,4.581354442E-4,-3.054236295E-4,1.527118147E-4
3.699163032E0,4.581354442E-4,-3.054236295E-4,1.527118147E-4
3.701588969E0,4.581354442E-4,-3.054236295E-4,-4.581354442E-4
3.704014907E0,1.068982761E-3,-9.162708884E-4,7.635590737E-4
3.706440844E0,4.581354442E-4,3.054236295E-4,1.527118147E-4
3.708866782E0,1.068982761E-3,-9.162708884E-4,-4.581354442E-4
3.711292719E0,4.581354442E-4,-3.054236295E-4,-4.581354442E-4
3.713718657E0,-1.527118147E-4,-3.054236295E-4,1.527118147E-4
3.716144594E0,-7.635590737E-4,-3.054236295E-4,-4.581354442E-4
3.718570532E0,-7.635590737E-4,1.527118147E-3,7.635590737E-4
3.720996469E0,1.679830020E-3,3.054236295E-4,-4.581354442E-4
3.723422407E0,-1.527118147E-4,-3.054236295E-4,1.527118147E-4
3.725848344E0,-1.527118147E-4,3.054236295E-4,1.527118147E-4
3.728274282E0,-1.527118147E-4,-2.137965523E-3,-4.581354442E-4
3.730700219E0,-1.527118147E-4,3.054236295E-4,1.527118147E-4
3.733126157E0,-7.635590737E-4,9.162708884E-4,-4.581354442E-4
3.735552094E0,-7.635590737E-4,3.054236295E-4,7.635590737E-4
3.737978032E0,1.068982761E-3,3.054236295E-4,1.527118147E-4
3.740403969E0,-1.527118147E-4,-9.162708884E-4,1.527118147E-4
3.742829907E0,4.581354442E-4,-3.054236295E-4,1.527118147E-4
3.745255844E0,-1.527118147E-4,3.054236295E-4,7.635590737E-4
3.747681782E0,-7.635590737E-4,-3.054236295E-4,-1.068982761E-3
3.750107719E0,4.581354442E-4,-1.527118147E-3,1.527118147E-4
3.752533657E0,4.581354442E-4,3.054236295E-4,1.985253533E-3
3.754959594E0,4.581354442E-4,-9.162708884E-4,1.527118147E-4
3.757385532E0,-7.635590737E-4,-9.162708884E-4,7.635590737E-4
3.759811469E0,-1.527118147E-4,3.054236295E-4,1.527118147E-4
3.762237407E0,1.679830020E-3,-3.054236295E-4,7.635590737E-4
3.764663344E0,-1.527118147E-4,3.054236295E-4,7.635590737E-4
3.767089282E0,-1.374406274E-3,3.054236295E-4,-4.581354442E-4
3.769515219E0,-1.374406274E-3,-9.162708884E-4,-4.581354442E-4
3.771941157E0,4.581354442E-4,-9.162708884E-4,-1.068982761E-3
3.774367094E0,4.581354442E-4,-9.162708884E-4,1.527118147E-4
3.776793032E0,-1.374406274E-3,3.054236295E-4,-4.581354442E-4
3.779218969E0,-1.527118147E-4,9.162708884E-4,-4.581354442E-4
3.781644907E0,-7.635590737E-4,-3.054236295E-4,-4.581354442E-4
3.784070844E0,-1.527118147E-4,3.054236295E-4,-4.581354442E-4
3.786496782E0,-1.527118147E-4,-3.054236295E-4,-1.068982761E-3
3.788922719E0,4.581354442E-4,3.054236295E-4,7.635590737E-4
3.791348657E0,-1.374406274E-3,1.527118147E-3,1.527118147E-4
3.793774594E0,-7.635590737E-4,-3.054236295E-4,1.374406274E-3
3.796200532E0,-1.527118147E-4,9.162708884E-4,1.985253533E-3
3.798626469E0,1.068982761E-3,2.137965523E-3,1.374406274E-3
3.801052407E0,4.581354442E-4,-1.527118147E-3,-1.679830020E-3
3.803478344E0,4.581354442E-4,-3.054236295E-4,-4.581354442E-4
3.805904282E0,-1.527118147E-4,-3.054236295E-4,7.635590737E-4
3.808330219E0,4.581354442E-4,-3.054236295E-4,1.527118147E-4
3.810756157E0,1.068982761E-3,3.054236295E-4,1.527118147E-4
3.813182094E0,-1.374406274E-3,-1.527118147E-3,1.527118147E-4
3.815608032E0,4.581354442E-4,-9.162708884E-4,-4.581354442E-4
3.818033969E0,-7.635590737E-4,9.162708884E-4,1.374406274E-3
3.820459907E0,-7.635590737E-4,-3.054236295E-4,-4.581354442E-4
3.822885844E0,-7.635590737E-4,-3.054236295E-4,-4.581354442E-4
3.825311782E0,-1.527118147E-4,-9.162708884E-4,-4.581354442E-4
3.827737719E0,-1.527118147E-4,3.054236295E-4,1.985253533E-3
3.830163657E0,4.581354442E-4,9.162708884E-4,1.527118147E-4
3.832589594E0,-1.527118147E-4,-1.527118147E-3,-1.679830020E-3
3.835015532E0,1.068982761E-3,9.162708884E-4,-1.068982761E-3
3.837441469E0,-1.527118147E-4,-3.054236295E-4,-4.581354442E-4
3.839867407E0,-7.635590737E-4,9.162708884E-4,7.635590737E-4
3.842293344E0,4.581354442E-4,9.162708884E-4,-4.581354442E-4
3.844719282E0,-7.635590737E-4,-9.162708884E-4,1.527118147E-4
3.847145219E0,-1.527118147E-4,-3.054236295E-4,1.527118147E-4
3.849571157E0,1.068982761E-3,3.054236295E-4,1.527118147E-4
3.851997094E0,4.581354442E-4,-3.054236295E-4,1.374406274E-3
3.854423032E0,-1.527118147E-4,-3.054236295E-4,1.527118147E-4
3.856848969E0,1.679830020E-3,-3.054236295E-4,1.527118147E-4
3.859274907E0,-1.527118147E-4,-3.054236295E-4,-1.068982761E-3
3.861700844E0,1.068982761E-3,-3.054236295E-4,-1.068982761E-3
3.864126782E0,1.068982761E-3,-3.054236295E-4,-1.068982761E-3
3.866552719E0,4.581354442E-4,3.054236295E-4,1.527118147E-4
3.868978657E0,-7.635590737E-4,3.054236295E-4,1.527118147E-4
3.871404594E0,4.581354442E-4,-3.054236295E-4,1.374406274E-3
3.873830532E0,1.068982761E-3,3.054236295E-4,-1.068982761E-3
3.876256469E0,4.581354442E-4,3.054236295E-4,-4.581354442E-4
3.878682407E0,-1.527118147E-4,-3.054236295E-4,1.527118147E-4
3.881108344E0,-1.527118147E-4,3.054236295E-4,-4.581354442E-4
3.883534282E0,4.581354442E-4,9.162708884E-4,-4.581354442E-4
3.885960219E0,-1.374406274E-3,9.162708884E-4,-1.679830020E-3
3.888386157E0,-1.374406274E-3,-3.054236295E-4,1.527118147E-4
3.890812094E0,4.581354442E-4,-3.054236295E-4,-4.581354442E-4
3.893238032E0,-7.635590737E-4,-1.527118147E-3,7.635590737E-4
3.895663969E0,-1.374406274E-3,-3.054236295E-4,1.374406274E-3
3.898089907E0,-1.527118147E-4,3.054236295E-4,1.527118147E-4
3.900515844E0,-7.635590737E-4,-3.054236295E-4,1.527118147E-4
3.902941782E0,4.581354442E-4,-9.162708884E-4,7.635590737E-4
3.905367719E0,1.068982761E-3,-9.162708884E-4,1.985253533E-3
3.907793657E0,4.581354442E-4,-3.054236295E-4,-1.068982761E-3
3.910219594E0,-7.635590737E-4,3.054236295E-4,1.527118147E-4
3.912645532E0,-1.527118147E-4,-3.054236295E-4,-4.581354442E-4
3.915071469E0,4.581354442E-4,1.527118147E-3,-4.581354442E-4
3.917497407E0,4.581354442E-4,-3.054236295E-4,-4.581354442E-4
3.919923344E0,-1.527118147E-4,-3.054236295E-4,1.527118147E-4
3.922349282E0,-1.527118147E-4,-1.527118147E-3,7.635590737E-4
3.924775219E0,4.581354442E-4,-3.054236295E-4,-1.068982761E-3
3.927201157E0,-1.527118147E-4,-3.054236295E-4,-1.068982761E-3
3.929627094E0,1.679830020E-3,3.054236295E-4,-4.581354442E-4
3.932053032E0,4.581354442E-4,9.162708884E-4,-1.068982761E-3
3.934478969E0,1.068982761E-3,3.054236295E-4,7.635590737E-4
3.936904907E0,-7.635590737E-4,-9.162708884E-4,-1.068982761E-3
3.939330844E0,1.679830020E-3,-3.054236295E-4,7.635590737E-4
3.941756782E0,-1.527118147E-4,9.162708884E-4,1.527118147E-4
3.944182719E0,1.068982761E-3,3.054236295E-4,-1.068982761E-3
3.946608657E0,-1.374406274E-3,9.162708884E-4,7.635590737E-4
3.949034594E0,-1.374406274E-3,1.527118147E-3,-4.581354442E-4
3.951460532E0,4.581354442E-4,9.162708884E-4,1.527118147E-4
3.953886469E0,-7.635590737E-4,-3.054236295E-4,1.527118147E-4
3.956312407E0,-7.635590737E-4,-3.054236295E-4,-1.068982761E-3
3.958738344E0,-1.374406274E-3,-3.054236295E-4,1.527118147E-4
3.961164282E0,4.581354442E-4,-3.054236295E-4,1.527118147E-4
3.963590219E0,-1.527118147E-4,9.162708884E-4,-4.581354442E-4
3.966016157E0,4.581354442E-4,9.162708884E-4,-1.068982761E-3
3.968442094E0,1.068982761E-3,9.162708884E-4,-4.581354442E-4
3.970867980E0,4.581354442E-4,-9.162708884E-4,1.374406274E-3
3.973293969E0,-7.635590737E-4,-3.054236295E-4,1.527118147E-4
3.975719907E0,-1.527118147E-4,-3.054236295E-4,-4.581354442E-4
3.978145844E0,-1.527118147E-4,-3.054236295E-4,1.527118147E-4
3.980571730E0,-1.527118147E-4,-3.054236295E-4,7.635590737E-4
3.982997719E0,-1.527118147E-4,-9.162708884E-4,-4.581354442E-4
3.985423657E0,4.581354442E-4,3.054236295E-4,-4.581354442E-4
3.987849594E0,-1.527118147E-4,-3.054236295E-4,-1.068982761E-3
3.990275532E0,1.068982761E-3,-9.162708884E-4,-1.068982761E-3
3.992701469E0,4.581354442E-4,-9.162708884E-4,7.635590737E-4
3.995127407E0,1.679830020E-3,-3.054236295E-4,7.635590737E-4
3.997553344E0,4.581354442E-4,-3.054236295E-4,1.527118147E-4
3.999979230E0,-7.635590737E-4,9.162708884E-4,7.635590737E-4
4.002405219E0,-1.527118147E-4,9.162708884E-4,-1.679830020E-3
4.004831105E0,4.581354442E-4,-9.162708884E-4,-1.679830020E-3
4.007257094E0,4.581354442E-4,9.162708884E-4,1.527118147E-4
4.009682980E0,4.581354442E-4,3.054236295E-4,1.527118147E-4
4.012108917E0,-1.527118147E-4,3.054236295E-4,-4.581354442E-4
4.014534855E0,-1.527118147E-4,-3.054236295E-4,-1.679830020E-3
4.016960792E0,1.679830020E-3,-1.527118147E-3,1.527118147E-4
4.019386730E0,-7.635590737E-4,-3.054236295E-4,1.374406274E-3
4.021812667E0,-1.527118147E-4,-9.162708884E-4,1.374406274E-3
4.024238657E0,-1.527118147E-4,3.054236295E-4,7.635590737E-4
4.026664542E0,4.581354442E-4,-9.162708884E-4,-1.068982761E-3
4.029090480E0,1.068982761E-3,-1.527118147E-3,-4.581354442E-4
4.031516417E0,4.581354442E-4,-3.054236295E-4,7.635590737E-4
4.033942355E0,1.068982761E-3,-1.527118147E-3,-4.581354442E-4
4.036368292E0,-7.635590737E-4,3.054236295E-4,1.527118147E-4
4.038794230E0,-7.635590737E-4,3.054236295E-4,7.635590737E-4
4.041220167E0,1.068982761E-3,-9.162708884E-4,7.635590737E-4
4.043646105E0,-1.527118147E-4,-1.527118147E-3,1.527118147E-4
4.046072042E0,-7.635590737E-4,-9.162708884E-4,-4.581354442E-4
4.048497980E0,-1.527118147E-4,3.054236295E-4,1.527118147E-4
4.050923917E0,4.581354442E-4,-3.054236295E-4,-1.068982761E-3
4.053349855E0,4.581354442E-4,9.162708884E-4,1.527118147E-4
4.055775792E0,-1.527118147E-4,3.054236295E-4,-4.581354442E-4
4.058201730E0,1.068982761E-3,9.162708884E-4,-4.581354442E-4
4.060627667E0,1.679830020E-3,-3.054236295E-4,1.527118147E-4
4.063053605E0,-1.450762269E-3,-2.137965523E-3,-1.068982761E-3
4.065479542E0,-2.290677221E-4,-3.054236295E-4,1.527118147E-4
4.067905480E0,-2.290677221E-4,-3.054236295E-4,7.635590737E-4
4.070331417E0,-2.290677221E-4,3.054236295E-4,1.374406274E-3
4.072757355E0,-8.399150101E-4,-2.290677221E-4,2.290677221E-4
4.075183292E0,-2.290677221E-4,-2.290677221E-4,-3.817795368E-4
4.077609230E0,-8.399150101E-4,-2.061609412E-3,-1.603474026E-3
4.080035167E0,3.817795368E-4,-2.061609412E-3,2.290677221E-4
4.082461105E0,3.817795368E-4,-2.290677221E-4,-9.926267667E-4
4.084887042E0,-2.290677221E-4,-2.290677221E-4,2.290677221E-4
4.087312980E0,-8.399150101E-4,-8.399150101E-4,-9.926267667E-4
4.089738917E0,-1.450762269E-3,-8.399150101E-4,8.399150101E-4
4.092164855E0,-2.290677221E-4,9.926267667E-4,-3.817795368E-4
4.094590792E0,-2.290677221E-4,1.603474026E-3,-1.603474026E-3
4.097016730E0,-2.290677221E-4,-2.290677221E-4,-3.817795368E-4
4.099442667E0,9.926267667E-4,-2.290677221E-4,-3.817795368E-4
4.101868605E0,3.817795368E-4,9.926267667E-4,2.290677221E-4
4.104294542E0,3.817795368E-4,3.817795368E-4,8.399150101E-4
4.106720480E0,-2.290677221E-4,9.926267667E-4,2.290677221E-4
4.109146417E0,-8.399150101E-4,-2.290677221E-4,2.290677221E-4
4.111572355E0,-2.290677221E-4,-2.290677221E-4,2.290677221E-4
4.113998292E0,-2.290677221E-4,3.817795368E-4,2.290677221E-4
4.116424230E0,9.926267667E-4,3.817795368E-4,-9.926267667E-4
4.118850167E0,3.817795368E-4,9.926267667E-4,-9.926267667E-4
4.121276105E0,-1.450762269E-3,3.817795368E-4,2.290677221E-4
4.123702042E0,-1.450762269E-3,-2.290677221E-4,-3.817795368E-4
4.126127980E0,3.817795368E-4,3.817795368E-4,1.450762269E-3
4.128553917E0,-2.290677221E-4,3.817795368E-4,-9.926267667E-4
4.130979855E0,3.817795368E-4,-2.290677221E-4,-9.926267667E-4
4.133405792E0,-2.290677221E-4,-2.290677221E-4,2.290677221E-4
4.135831730E0,3.817795368E-4,9.926267667E-4,2.290677221E-4
4.138257667E0,9.926267667E-4,9.926267667E-4,-3.817795368E-4
4.140683605E0,3.817795368E-4,3.817795368E-4,2.290677221E-4
4.143109542E0,3.817795368E-4,-2.290677221E-4,2.290677221E-4
4.145535480E0,-8.399150101E-4,-2.061609412E-3,2.290677221E-4
4.147961417E0,3.817795368E-4,-8.399150101E-4,-1.603474026E-3
4.150387355E0,2.214321401E-3,-8.399150101E-4,-9.926267667E-4
4.152813292E0,9.926267667E-4,-2.290677221E-4,1.450762269E-3
4.155239230E0,-2.290677221E-4,9.926267667E-4,2.290677221E-4
4.157665167E0,3.817795368E-4,-2.290677221E-4,-3.817795368E-4
4.160091105E0,3.817795368E-4,-2.290677221E-4,-9.926267667E-4
4.162517042E0,-1.450762269E-3,-8.399150101E-4,-9.926267667E-4
4.164942980E0,-2.290677221E-4,3.817795368E-4,2.290677221E-4
4.167368917E0,3.817795368E-4,-2.290677221E-4,-3.817795368E-4
4.169794855E0,3.817795368E-4,-2.290677221E-4,2.290677221E-4
4.172220792E0,3.817795368E-4,9.926267667E-4,-3.817795368E-4
4.174646730E0,3.817795368E-4,-2.290677221E-4,2.290677221E-4
4.177072667E0,-2.290677221E-4,-2.290677221E-4,-3.817795368E-4
4.179498605E0,-2.290677221E-4,3.817795368E-4,8.399150101E-4
4.181924542E0,-2.290677221E-4,-2.061609412E-3,-3.817795368E-4
4.184350480E0,-2.290677221E-4,3.817795368E-4,-9.926267667E-4
4.186776417E0,-2.290677221E-4,1.603474026E-3,-9.926267667E-4
4.189202355E0,9.926267667E-4,1.603474026E-3,2.290677221E-4
4.191628292E0,-8.399150101E-4,9.926267667E-4,2.290677221E-4
4.194054230E0,-8.399150101E-4,9.926267667E-4,-3.817795368E-4
4.196480167E0,3.817795368E-4,3.817795368E-4,2.290677221E-4
4.198906105E0,3.817795368E-4,3.817795368E-4,2.290677221E-4
4.201332042E0,9.926267667E-4,-8.399150101E-4,-9.926267667E-4
4.203757980E0,1.603474026E-3,-2.290677221E-4,2.290677221E-4
4.206183917E0,3.817795368E-4,3.817795368E-4,-3.817795368E-4
4.208609855E0,-2.290677221E-4,-2.290677221E-4,8.399150101E-4
4.211035792E0,3.817795368E-4,3.817795368E-4,2.290677221E-4
4.213461730E0,-8.399150101E-4,3.817795368E-4,8.399150101E-4
4.215887667E0,-2.290677221E-4,9.926267667E-4,8.399150101E-4
4.218313605E0,-1.450762269E-3,3.817795368E-4,-3.817795368E-4
4.220739542E0,3.817795368E-4,-2.061609412E-3,2.290677221E-4
4.223165480E0,-2.290677221E-4,9.926267667E-4,1.450762269E-3
4.225591417E0,-8.399150101E-4,-2.290677221E-4,8.399150101E-4
4.228017355E0,3.817795368E-4,-1.450762269E-3,-3.817795368E-4
4.230443292E0,9.926267667E-4,1.603474026E-3,-9.926267667E-4
4.232869230E0,3.817795368E-4,9.926267667E-4,2.290677221E-4
4.235295167E0,9.926267667E-4,-8.399150101E-4,-2.214321401E-3
4.237721105E0,-2.290677221E-4,-1.450762269E-3,-9.926267667E-4
4.240147042E0,3.817795368E-4,-1.450762269E-3,-3.817795368E-4
4.242572980E0,-2.290677221E-4,9.926267667E-4,2.290677221E-4
4.244998917E0,-2.290677221E-4,1.603474026E-3,-3.817795368E-4
4.247424855E0,9.926267667E-4,-2.290677221E-4,8.399150101E-4
4.249850792E0,3.817795368E-4,-2.290677221E-4,2.290677221E-4
4.252276730E0,-8.399150101E-4,3.817795368E-4,-9.926267667E-4
4.254702667E0,3.817795368E-4,3.817795368E-4,2.290677221E-4
4.257128605E0,-8.399150101E-4,-2.290677221E-4,2.290677221E-4
4.259554542E0,-8.399150101E-4,-2.290677221E-4,3.054236295E-4
4.261980480E0,-8.399150101E-4,-8.399150101E-4,-9.162708884E-4
4.264406417E0,3.817795368E-4,1.603474026E-3,3.054236295E-4
4.266832355E0,-2.290677221E-4,-8.399150101E-4,9.162708884E-4
4.269258292E0,9.926267667E-4,-2.290677221E-4,-9.162708884E-4
4.271684230E0,-8.399150101E-4,-8.399150101E-4,9.162708884E-4
4.274110167E0,-2.061609412E-3,1.603474026E-3,9.162708884E-4
4.276536105E0,-8.399150101E-4,-1.450762269E-3,3.054236295E-4
4.278962042E0,-2.290677221E-4,3.817795368E-4,-3.054236295E-4
4.281387980E0,-2.290677221E-4,-8.399150101E-4,-9.162708884E-4
4.283813917E0,-8.399150101E-4,-2.290677221E-4,3.054236295E-4
4.286239855E0,-2.290677221E-4,-8.399150101E-4,3.054236295E-4
4.288665792E0,-2.290677221E-4,-8.399150101E-4,-3.054236295E-4
4.291091730E0,3.817795368E-4,-2.290677221E-4,-3.054236295E-4
4.293517667E0,1.603474026E-3,1.603474026E-3,9.162708884E-4
4.295943605E0,-1.450762269E-3,1.603474026E-3,-1.527118147E-3
4.298369542E0,-8.399150101E-4,3.817795368E-4,-9.162708884E-4
4.300795480E0,-8.399150101E-4,3.817795368E-4,-3.054236295E-4
4.303221417E0,-1.450762269E-3,-2.290677221E-4,3.054236295E-4
4.305647355E0,3.817795368E-4,-2.290677221E-4,3.054236295E-4
4.308073292E0,-1.450762269E-3,3.817795368E-4,3.054236295E-4
4.310499230E0,-1.450762269E-3,-8.399150101E-4,-3.054236295E-4
4.312925167E0,-8.399150101E-4,9.926267667E-4,3.054236295E-4
4.315351105E0,-8.399150101E-4,3.817795368E-4,-3.054236295E-4
4.317777042E0,-2.290677221E-4,3.817795368E-4,3.054236295E-4
4.320202980E0,-2.290677221E-4,3.817795368E-4,-3.054236295E-4
4.322628917E0,3.817795368E-4,-2.290677221E-4,-3.054236295E-4
4.325054855E0,-8.399150101E-4,3.817795368E-4,-3.054236295E-4
4.327480792E0,-8.399150101E-4,3.817795368E-4,-3.054236295E-4
4.329906730E0,3.817795368E-4,-2.290677221E-4,-3.054236295E-4
4.332332667E0,9.926267667E-4,-2.290677221E-4,3.054236295E-4
4.334758605E0,-8.399150101E-4,-2.290677221E-4,9.162708884E-4
4.337184542E0,-8.399150101E-4,9.926267667E-4,9.162708884E-4
4.339610428E0,-2.290677221E-4,3.817795368E-4,-3.054236295E-4
4.342036417E0,-8.399150101E-4,-8.399150101E-4,-3.054236295E-4
4.344462303E0,3.817795368E-4,-8.399150101E-4,-9.162708884E-4
4.346888292E0,1.603474026E-3,-2.061609412E-3,9.162708884E-4
4.349314230E0,-2.290677221E-4,1.603474026E-3,3.054236295E-4
4.351740167E0,9.926267667E-4,-2.290677221E-4,-9.162708884E-4
4.354166053E0,1.603474026E-3,9.926267667E-4,-1.527118147E-3
4.356591990E0,1.603474026E-3,-2.290677221E-4,-3.054236295E-4
4.359017980E0,-2.290677221E-4,3.817795368E-4,9.162708884E-4
4.361443865E0,-8.399150101E-4,3.817795368E-4,9.162708884E-4
4.363869803E0,-8.399150101E-4,-8.399150101E-4,-9.162708884E-4
4.366295740E0,-1.450762269E-3,-8.399150101E-4,9.162708884E-4
4.368721678E0,-2.290677221E-4,-2.290677221E-4,-9.162708884E-4
4.371147615E0,-8.399150101E-4,-8.399150101E-4,1.527118147E-3
4.373573553E0,-2.290677221E-4,-2.290677221E-4,-1.527118147E-3
4.375999490E0,3.817795368E-4,-2.290677221E-4,-2.137965523E-3
4.378425428E0,-8.399150101E-4,9.926267667E-4,-9.162708884E-4
4.380851365E0,9.926267667E-4,9.926267667E-4,9.162708884E-4
4.383277303E0,-1.450762269E-3,3.817795368E-4,3.054236295E-4
4.385703240E0,3.817795368E-4,3.817795368E-4,3.054236295E-4
4.388129178E0,-2.290677221E-4,2.214321401E-3,9.162708884E-4
4.390555115E0,3.817795368E-4,3.817795368E-4,9.162708884E-4
4.392981053E0,3.817795368E-4,-2.290677221E-4,3.054236295E-4
4.395406990E0,-2.290677221E-4,3.817795368E-4,-1.527118147E-3
4.397832928E0,-8.399150101E-4,3.817795368E-4,-3.054236295E-4
4.400258865E0,-2.290677221E-4,-2.290677221E-4,3.054236295E-4
4.402684803E0,-1.527118147E-4,3.817795368E-4,3.054236295E-4
4.405110740E0,-1.374406274E-3,-8.399150101E-4,3.054236295E-4
4.407536678E0,-1.527118147E-4,3.817795368E-4,-2.137965523E-3
4.409962615E0,-7.635590737E-4,3.817795368E-4,-9.162708884E-4
4.412388553E0,-1.374406274E-3,3.817795368E-4,-3.054236295E-4
4.414814490E0,-1.374406274E-3,-8.399150101E-4,9.162708884E-4
4.417240428E0,-1.527118147E-4,3.817795368E-4,3.054236295E-4
4.419666365E0,-1.374406274E-3,-2.290677221E-4,-1.527118147E-3
4.422092303E0,-7.635590737E-4,-2.290677221E-4,-9.162708884E-4
4.424518240E0,1.068982761E-3,-2.290677221E-4,-3.054236295E-4
4.426944178E0,4.581354442E-4,9.926267667E-4,-2.137965523E-3
4.429370115E0,-7.635590737E-4,9.926267667E-4,9.162708884E-4
4.431796053E0,-1.527118147E-4,9.926267667E-4,3.054236295E-4
4.434221990E0,4.581354442E-4,-2.290677221E-4,-3.054236295E-4
4.436647928E0,4.581354442E-4,-2.290677221E-4,3.054236295E-4
4.439073865E0,-1.527118147E-4,3.817795368E-4,-3.054236295E-4
4.441499803E0,-7.635590737E-4,3.817795368E-4,-3.054236295E-4
4.443925740E0,-1.527118147E-4,9.926267667E-4,-3.054236295E-4
4.446351678E0,1.068982761E-3,-8.399150101E-4,-1.527118147E-3
4.448777615E0,4.581354442E-4,3.817795368E-4,-3.054236295E-4
4.451203553E0,-7.635590737E-4,9.926267667E-4,1.527118147E-3
4.453629490E0,-1.527118147E-4,9.926267667E-4,-3.054236295E-4
4.456055428E0,-1.985253533E-3,-8.399150101E-4,-3.054236295E-4
4.458481365E0,1.068982761E-3,3.817795368E-4,-3.054236295E-4
4.460907303E0,4.581354442E-4,-2.290677221E-4,-3.054236295E-4
4.463333240E0,-7.635590737E-4,-2.290677221E-4,9.162708884E-4
4.465759178E0,-1.527118147E-4,9.926267667E-4,9.162708884E-4
4.468185115E0,-1.527118147E-4,9.926267667E-4,9.162708884E-4
4.470611053E0,1.679830020E-3,3.817795368E-4,9.162708884E-4
4.473036990E0,4.581354442E-4,3.817795368E-4,3.054236295E-4
4.475462928E0,1.068982761E-3,-2.290677221E-4,-2.290677221E-4
4.477888865E0,4.581354442E-4,-8.399150101E-4,-1.450762269E-3
4.480314803E0,4.581354442E-4,-2.290677221E-4,9.926267667E-4
4.482740740E0,4.581354442E-4,-2.290677221E-4,-8.399150101E-4
4.485166678E0,1.068982761E-3,-2.290677221E-4,3.817795368E-4
4.487592615E0,4.581354442E-4,-2.290677221E-4,3.817795368E-4
4.490018553E0,-7.635590737E-4,3.817795368E-4,-2.290677221E-4
4.492444490E0,4.581354442E-4,3.817795368E-4,-2.290677221E-4
4.494870428E0,-1.527118147E-4,-1.450762269E-3,-8.399150101E-4
4.497296365E0,-1.527118147E-4,3.817795368E-4,-1.450762269E-3
4.499722303E0,1.068982761E-3,9.926267667E-4,-1.450762269E-3
4.502148240E0,-7.635590737E-4,9.926267667E-4,-2.290677221E-4
4.504574178E0,4.581354442E-4,-2.290677221E-4,3.817795368E-4
4.507000115E0,-1.527118147E-4,3.817795368E-4,2.214321401E-3
4.509426053E0,-1.374406274E-3,-2.290677221E-4,-2.290677221E-4
4.511851990E0,-6.872031372E-4,3.817795368E-4,9.926267667E-4
4.514277928E0,-6.872031372E-4,-3.054236295E-4,-2.290677221E-4
4.516703865E0,-7.635590737E-5,-3.054236295E-4,-8.399150101E-4
4.519129803E0,-7.635590737E-5,3.054236295E-4,3.817795368E-4
4.521555740E0,5.344913807E-4,-3.054236295E-4,9.926267667E-4
4.523981678E0,1.145338640E-3,3.054236295E-4,3.817795368E-4
4.526407615E0,-7.635590737E-5,-9.162708884E-4,-1.450762269E-3
4.528833553E0,-6.872031372E-4,-9.162708884E-4,1.603474026E-3
4.531259490E0,-6.872031372E-4,-1.527118147E-3,3.817795368E-4
4.533685428E0,5.344913807E-4,3.054236295E-4,-2.290677221E-4
4.536111365E0,5.344913807E-4,-3.054236295E-4,3.817795368E-4
4.538537303E0,1.145338640E-3,3.054236295E-4,3.817795368E-4
4.540963240E0,-6.872031372E-4,-3.054236295E-4,-8.399150101E-4
4.543389178E0,5.344913807E-4,9.162708884E-4,-8.399150101E-4
4.545815115E0,-7.635590737E-5,-9.162708884E-4,3.817795368E-4
4.548241053E0,-6.872031372E-4,-3.054236295E-4,3.817795368E-4
4.550666990E0,-1.298050396E-3,-3.054236295E-4,-1.450762269E-3
4.553092928E0,5.344913807E-4,-3.054236295E-4,-8.399150101E-4
4.555518865E0,5.344913807E-4,9.162708884E-4,3.817795368E-4
4.557944803E0,1.145338640E-3,-3.054236295E-4,9.926267667E-4
4.560370740E0,-6.872031372E-4,-3.054236295E-4,-2.290677221E-4
4.562796678E0,-7.635590737E-5,9.162708884E-4,3.817795368E-4
4.565222615E0,5.344913807E-4,9.162708884E-4,9.926267667E-4
4.567648553E0,5.344913807E-4,-3.054236295E-4,9.926267667E-4
4.570074490E0,1.756185899E-3,3.054236295E-4,1.603474026E-3
4.572500428E0,1.756185899E-3,-9.162708884E-4,9.926267667E-4
4.574926365E0,1.756185899E-3,-9.162708884E-4,3.817795368E-4
4.577352303E0,-7.635590737E-5,3.054236295E-4,1.603474026E-3
4.579778240E0,-6.872031372E-4,-3.054236295E-4,-2.290677221E-4
4.582204178E0,5.344913807E-4,9.162708884E-4,-2.290677221E-4
4.584630115E0,5.344913807E-4,-9.162708884E-4,-2.290677221E-4
4.587056053E0,-7.635590737E-5,-3.054236295E-4,1.603474026E-3
4.589481990E0,5.344913807E-4,-3.054236295E-4,-8.399150101E-4
4.591907928E0,1.145338640E-3,-9.162708884E-4,3.817795368E-4
4.594333865E0,-7.635590737E-5,3.054236295E-4,-2.290677221E-4
4.596759803E0,-6.872031372E-4,3.054236295E-4,9.926267667E-4
4.599185740E0,-6.872031372E-4,3.054236295E-4,1.603474026E-3
4.601611625E0,-6.872031372E-4,-9.162708884E-4,3.817795368E-4
4.604037563E0,5.344913807E-4,-3.054236295E-4,-8.399150101E-4
4.606463500E0,-7.635590737E-5,3.054236295E-4,9.926267667E-4
4.608889438E0,-6.872031372E-4,-3.054236295E-4,9.926267667E-4
4.611315375E0,-1.298050396E-3,3.054236295E-4,3.817795368E-4
4.613741365E0,-6.872031372E-4,-9.162708884E-4,-2.290677221E-4
4.616167250E0,-6.872031372E-4,3.054236295E-4,-8.399150101E-4
4.618593240E0,-7.635590737E-5,-3.054236295E-4,2.214321401E-3
4.621019178E0,-1.298050396E-3,9.162708884E-4,2.214321401E-3
4.623445063E0,-1.908897655E-3,3.054236295E-4,9.926267667E-4
4.625871000E0,-7.635590737E-5,-9.162708884E-4,9.926267667E-4
4.628296938E0,5.344913807E-4,9.162708884E-4,-2.061609412E-3
4.630722875E0,-7.635590737E-5,9.162708884E-4,9.926267667E-4
4.633148813E0,-6.872031372E-4,9.162708884E-4,-2.290677221E-4
4.635574750E0,-7.635590737E-5,3.054236295E-4,-2.290677221E-4
4.638000688E0,-7.635590737E-5,-9.162708884E-4,-1.450762269E-3
4.640426625E0,-7.635590737E-5,-3.054236295E-4,3.817795368E-4
4.642852563E0,-7.635590737E-5,3.054236295E-4,3.817795368E-4
4.645278500E0,5.344913807E-4,3.054236295E-4,3.817795368E-4
4.647704438E0,-7.635590737E-5,-9.162708884E-4,3.817795368E-4
4.650130375E0,-7.635590737E-5,-3.054236295E-4,1.603474026E-3
4.652556313E0,5.344913807E-4,1.527118147E-3,-2.290677221E-4
4.654982250E0,-7.635590737E-5,3.054236295E-4,-1.450762269E-3
4.657408188E0,-6.872031372E-4,3.054236295E-4,9.926267667E-4
4.659834125E0,-1.908897655E-3,-1.527118147E-3,9.926267667E-4
4.662260063E0,-7.635590737E-5,-9.162708884E-4,3.817795368E-4
4.664686000E0,-1.298050396E-3,-3.054236295E-4,9.926267667E-4
4.667111938E0,-7.635590737E-5,-9.162708884E-4,3.817795368E-4
4.669537875E0,-6.872031372E-4,-9.162708884E-4,-2.290677221E-4
4.671963813E0,-6.872031372E-4,-3.054236295E-4,9.926267667E-4
4.674389750E0,-6.872031372E-4,3.054236295E-4,3.817795368E-4
4.676815688E0,5.344913807E-4,3.054236295E-4,3.817795368E-4
4.679241625E0,5.344913807E-4,3.054236295E-4,-2.061609412E-3
4.681667563E0,1.145338640E-3,-3.054236295E-4,-9.162708884E-4
4.684093500E0,-6.872031372E-4,-9.162708884E-4,-3.054236295E-4
4.686519438E0,-7.635590737E-5,-9.162708884E-4,3.054236295E-4
4.688945375E0,5.344913807E-4,-3.054236295E-4,3.054236295E-4
4.691371313E0,-7.635590737E-5,-9.162708884E-4,-1.527118147E-3
4.693797250E0,-7.635590737E-5,3.054236295E-4,-3.054236295E-4
4.696223188E0,-7.635590737E-5,-9.162708884E-4,-9.162708884E-4
4.698649125E0,-6.872031372E-4,-9.162708884E-4,-3.054236295E-4
4.701075063E0,5.344913807E-4,-9.162708884E-4,-1.527118147E-3
4.703501000E0,-7.635590737E-5,-9.162708884E-4,9.162708884E-4
4.705926938E0,5.344913807E-4,-3.054236295E-4,-1.527118147E-3
4.708352875E0,5.344913807E-4,-1.527118147E-3,-1.527118147E-3
4.710778813E0,-7.635590737E-5,-9.162708884E-4,-3.054236295E-4
4.713204750E0,5.344913807E-4,9.162708884E-4,-3.054236295E-4
4.715630688E0,-1.298050396E-3,-1.527118147E-3,3.054236295E-4
4.718056625E0,1.145338640E-3,-3.054236295E-4,-2.137965523E-3
4.720482563E0,-7.635590737E-5,-3.054236295E-4,-9.162708884E-4
4.722908500E0,-6.872031372E-4,-9.162708884E-4,9.162708884E-4
4.725334438E0,-7.635590737E-5,-3.054236295E-4,1.527118147E-3
4.727760375E0,-7.635590737E-5,9.162708884E-4,-9.162708884E-4
4.730186313E0,-7.635590737E-5,9.162708884E-4,-3.054236295E-4
4.732612250E0,-7.635590737E-5,-3.054236295E-4,-3.054236295E-4
4.735038188E0,1.756185899E-3,-9.162708884E-4,-3.054236295E-4
4.737464125E0,5.344913807E-4,3.054236295E-4,-3.054236295E-4
4.739890063E0,-7.635590737E-5,3.054236295E-4,-3.054236295E-4
4.742316000E0,-1.298050396E-3,-3.054236295E-4,9.162708884E-4
4.744741938E0,-6.872031372E-4,3.054236295E-4,-3.054236295E-4
4.747167875E0,5.344913807E-4,-9.162708884E-4,9.162708884E-4
4.749593813E0,-7.635590737E-5,9.162708884E-4,-3.054236295E-4
4.752019750E0,-7.635590737E-5,9.162708884E-4,3.054236295E-4
4.754445688E0,1.145338640E-3,-3.054236295E-4,-3.054236295E-4
4.756871625E0,5.344913807E-4,9.926267667E-4,-9.162708884E-4
4.759297563E0,-7.635590737E-5,-2.290677221E-4,-3.054236295E-4
4.761723500E0,-6.872031372E-4,3.817795368E-4,3.054236295E-4
4.764149438E0,-6.872031372E-4,3.817795368E-4,-3.054236295E-4
4.766575375E0,-6.872031372E-4,9.926267667E-4,-9.162708884E-4
4.769001313E0,-1.298050396E-3,1.603474026E-3,3.054236295E-4
4.771427250E0,-7.635590737E-5,3.817795368E-4,3.054236295E-4
4.773853188E0,-6.872031372E-4,3.817795368E-4,-3.054236295E-4
4.776279125E0,5.344913807E-4,-2.290677221E-4,-3.054236295E-4
4.778705063E0,-7.635590737E-5,3.817795368E-4,3.054236295E-4
4.781131000E0,5.344913807E-4,3.817795368E-4,-3.054236295E-4
4.783556938E0,-7.635590737E-5,-8.399150101E-4,3.054236295E-4
4.785982875E0,-6.872031372E-4,3.817795368E-4,3.054236295E-4
4.788408813E0,5.344913807E-4,3.817795368E-4,2.137965523E-3
4.790834750E0,5.344913807E-4,-8.399150101E-4,-3.054236295E-4
4.793260688E0,-7.635590737E-5,-1.450762269E-3,9.162708884E-4
4.795686625E0,-7.635590737E-5,3.817795368E-4,3.054236295E-4
4.798112563E0,1.145338640E-3,-2.290677221E-4,9.162708884E-4
4.800538500E0,-1.298050396E-3,3.817795368E-4,9.162708884E-4
4.802964438E0,-6.872031372E-4,-8.399150101E-4,9.162708884E-4
4.805390375E0,-7.635590737E-5,-2.290677221E-4,3.054236295E-4
4.807816313E0,5.344913807E-4,-8.399150101E-4,3.054236295E-4
4.810242250E0,-7.635590737E-5,-8.399150101E-4,-9.162708884E-4
4.812668136E0,5.344913807E-4,-2.290677221E-4,-3.054236295E-4
4.815094073E0,5.344913807E-4,3.817795368E-4,9.162708884E-4
4.817520063E0,-7.635590737E-5,3.817795368E-4,-9.162708884E-4
4.819946000E0,-6.872031372E-4,9.926267667E-4,3.054236295E-4
4.822371938E0,5.344913807E-4,3.817795368E-4,3.054236295E-4
4.824797875E0,1.145338640E-3,-2.290677221E-4,-3.054236295E-4
4.827223761E0,5.344913807E-4,3.817795368E-4,-3.054236295E-4
4.829649698E0,-7.635590737E-5,3.817795368E-4,1.527118147E-3
4.832075636E0,1.756185899E-3,3.817795368E-4,-3.054236295E-4
4.834501573E0,5.344913807E-4,3.817795368E-4,9.162708884E-4
4.836927511E0,-7.635590737E-5,-2.290677221E-4,-9.162708884E-4
4.839353448E0,1.756185899E-3,3.817795368E-4,-3.054236295E-4
4.841779386E0,2.367033157E-3,-2.290677221E-4,-9.162708884E-4
4.844205323E0,5.344913807E-4,-8.399150101E-4,-3.054236295E-4
4.846631261E0,-7.635590737E-5,-8.399150101E-4,9.162708884E-4
4.849057198E0,-7.635590737E-5,-3.283303929E-3,-3.054236295E-4
4.851483136E0,-7.635590737E-5,3.817795368E-4,-3.054236295E-4
4.853909073E0,1.145338640E-3,9.926267667E-4,-9.162708884E-4
4.856335011E0,-7.635590737E-5,3.817795368E-4,9.162708884E-4
4.858760948E0,-6.872031372E-4,9.926267667E-4,-1.527118147E-3
4.861186886E0,5.344913807E-4,-2.290677221E-4,-3.054236295E-4
4.863612823E0,-7.635590737E-5,3.817795368E-4,3.054236295E-4
4.866038761E0,-1.298050396E-3,-2.290677221E-4,2.137965523E-3
4.868464698E0,-6.872031372E-4,-8.399150101E-4,9.162708884E-4
4.870890636E0,-7.635590737E-5,3.817795368E-4,3.054236295E-4
4.873316573E0,5.344913807E-4,-8.399150101E-4,-3.054236295E-4
4.875742511E0,-7.635590737E-5,-2.290677221E-4,-9.162708884E-4
4.878168448E0,-6.872031372E-4,-2.290677221E-4,3.054236295E-4
4.880594386E0,1.145338640E-3,3.817795368E-4,-9.162708884E-4
4.883020323E0,5.344913807E-4,9.926267667E-4,9.162708884E-4
4.885446261E0,-7.635590737E-5,-2.290677221E-4,-3.054236295E-4
4.887872198E0,-6.872031372E-4,-1.450762269E-3,3.054236295E-4
4.890298136E0,1.145338640E-3,-2.290677221E-4,9.162708884E-4
