"Time (s)","Acceleration x (m/s^2)","Acceleration y (m/s^2)","Acceleration z (m/s^2)","Absolute acceleration (m/s^2)"
2.475673600E-2,-9.750752151E-2,-9.571290575E-3,9.871291161E0,9.871777373E0
2.717991300E-2,-9.511470050E-2,-4.785645287E-3,9.883255005E0,9.883713836E0
2.960361100E-2,-9.272187948E-2,-2.392822644E-3,9.864111900E0,9.864547970E0
3.202741300E-2,-1.094716340E-1,-0.000000000E0,9.830613136E0,9.831222644E0
3.445095400E-2,-8.793623000E-2,-4.785645287E-3,9.840184212E0,9.840578286E0
3.687434000E-2,-1.070788130E-1,-1.435693540E-2,9.871291161E0,9.871882352E0
3.929835000E-2,-1.405783296E-1,-7.178467698E-3,9.864111900E0,9.865116187E0
4.172215200E-2,-1.046859920E-1,3.589234129E-2,9.840184212E0,9.840806509E0
4.414585000E-2,-9.990034252E-2,4.785645287E-3,9.828220367E0,9.828729245E0
4.656991300E-2,-1.142572835E-1,-1.674975827E-2,9.835398674E0,9.836076573E0
4.899314200E-2,-1.094716340E-1,1.435693540E-2,9.847362518E0,9.847981454E0
5.141611100E-2,-1.094716340E-1,2.632104978E-2,9.854540825E0,9.855184002E0
5.383939200E-2,-1.118644550E-1,1.196411345E-2,9.854540825E0,9.855182985E0
5.626371500E-2,-9.272187948E-2,1.914258115E-2,9.840184212E0,9.840639670E0
5.868751700E-2,-1.094716340E-1,2.153540403E-2,9.859326363E0,9.859957613E0
6.111053800E-2,-1.166501045E-1,2.392822690E-2,9.859326363E0,9.860045443E0
6.353392300E-2,-8.554340899E-2,-4.785645287E-3,9.868897438E0,9.869269336E0
6.595746500E-2,-9.272187948E-2,-9.571290575E-3,9.842576981E0,9.843018367E0
6.838090200E-2,-9.990034252E-2,7.178467698E-3,9.852148056E0,9.852657151E0
7.080335000E-2,-1.333998591E-1,-0.000000000E0,9.854540825E0,9.855443693E0
7.322678800E-2,-1.118644550E-1,2.392822690E-2,9.873683929E0,9.874346589E0
7.565032900E-2,-1.046859920E-1,1.914258115E-2,9.840184212E0,9.840759672E0
7.807381900E-2,-1.190429255E-1,1.674975827E-2,9.856933594E0,9.857666643E0
8.049751700E-2,-1.022931710E-1,2.392822690E-2,9.833005905E0,9.833567083E0
8.292064200E-2,-9.272187948E-2,4.785645287E-3,9.837791443E0,9.838229552E0
8.534465200E-2,-1.166501045E-1,2.392822644E-3,9.859326363E0,9.860016699E0
8.776824600E-2,-1.262213886E-1,1.914258115E-2,9.844969749E0,9.845797461E0
9.019194400E-2,-1.190429255E-1,1.435693540E-2,9.842576981E0,9.843307318E0
9.261574600E-2,-1.046859920E-1,2.392822644E-3,9.844969749E0,9.845526611E0
9.503975600E-2,-1.118644550E-1,1.196411345E-2,9.840184212E0,9.840827309E0
9.746319400E-2,-1.190429255E-1,2.392822644E-3,9.811470032E0,9.812192473E0
9.988600600E-2,-1.190429255E-1,-4.785645287E-3,9.842576981E0,9.843298011E0
1.023092880E-1,-1.070788130E-1,-0.000000000E0,9.840184212E0,9.840766799E0
1.047333500E-1,-1.238285750E-1,-9.571290575E-3,9.852148056E0,9.852930856E0
1.071578290E-1,-1.046859920E-1,-1.674975827E-2,9.859326363E0,9.859896350E0
1.095818920E-1,-1.238285750E-1,-1.674975827E-2,9.859326363E0,9.860118173E0
1.120060060E-1,-1.405783296E-1,2.392822644E-3,9.859326363E0,9.860328814E0
1.144302250E-1,-9.750752151E-2,4.785645287E-3,9.900004387E0,9.900485719E0
1.168543920E-1,-1.166501045E-1,-2.392822644E-3,9.871291161E0,9.871980660E0
1.192784020E-1,-1.094716340E-1,-0.000000000E0,9.876076698E0,9.876683400E0
1.217019440E-1,-1.238285750E-1,-7.178467698E-3,9.854540825E0,9.855321401E0
1.241260060E-1,-1.142572835E-1,-2.392822644E-3,9.844969749E0,9.845633033E0
1.265500170E-1,-1.118644550E-1,4.785645287E-3,9.828220367E0,9.828858131E0
1.289732460E-1,-1.094716340E-1,2.392822644E-3,9.830613136E0,9.831222935E0
1.313971000E-1,-1.046859920E-1,4.785645287E-3,9.818648338E0,9.819207567E0
1.338205380E-1,-7.118647546E-2,7.178467698E-3,9.823433876E0,9.823694425E0
1.362437150E-1,-1.094716340E-1,1.196411345E-2,9.823433876E0,9.824051114E0
1.386672560E-1,-9.511470050E-2,-2.392822644E-3,9.816255569E0,9.816716658E0
1.410909540E-1,-1.142572835E-1,-4.785645287E-3,9.821041107E0,9.821706881E0
1.435147040E-1,-1.118644550E-1,2.392822644E-3,9.837791443E0,9.838427713E0
1.459385590E-1,-8.075776696E-2,4.785645287E-3,9.852148056E0,9.852480197E0
1.483627250E-1,-1.046859920E-1,4.785645287E-3,9.871291161E0,9.871847407E0
1.507869960E-1,-9.750752151E-2,1.435693540E-2,9.864111900E0,9.864604271E0
1.532111630E-1,-1.310070455E-1,2.392822644E-3,9.864111900E0,9.864982116E0
1.556344440E-1,-1.286142170E-1,-0.000000000E0,9.866504669E0,9.867342905E0
1.580580380E-1,-1.094716340E-1,-0.000000000E0,9.885647774E0,9.886253888E0
1.604810060E-1,-1.190429255E-1,3.589234129E-2,9.868897438E0,9.869680649E0
1.629050690E-1,-1.190429255E-1,1.914258115E-2,9.866504669E0,9.867241359E0
1.653288190E-1,-1.046859920E-1,2.153540403E-2,9.854540825E0,9.855120385E0
1.677524130E-1,-8.075776696E-2,7.178467698E-3,9.840184212E0,9.840518211E0
1.701759540E-1,-1.190429255E-1,-0.000000000E0,9.849755287E0,9.850474630E0
1.725996000E-1,-1.310070455E-1,7.178467698E-3,9.849755287E0,9.850629096E0
1.750229860E-1,-1.262213886E-1,-2.392822644E-3,9.830613136E0,9.831423712E0
1.774463710E-1,-1.405783296E-1,-1.196411345E-2,9.833005905E0,9.834018026E0
1.798705380E-1,-9.990034252E-2,4.785645287E-3,9.835398674E0,9.835907180E0
1.822942880E-1,-9.272187948E-2,9.571290575E-3,9.842576981E0,9.843018367E0
1.847175170E-1,-9.511470050E-2,1.914258115E-2,9.859326363E0,9.859803729E0
1.871418920E-1,-1.070788130E-1,-1.435693540E-2,9.833005905E0,9.833599398E0
1.895662670E-1,-1.046859920E-1,-2.392822644E-3,9.868897438E0,9.869452950E0
1.919897560E-1,-1.333998591E-1,4.785645287E-3,9.864111900E0,9.865015054E0
1.944134540E-1,-1.022931710E-1,1.435693540E-2,9.873683929E0,9.874224241E0
1.968360060E-1,-1.094716340E-1,3.828516230E-2,9.854540825E0,9.855223217E0
1.992591840E-1,-1.262213886E-1,9.571290575E-3,9.854540825E0,9.855353790E0
2.016828810E-1,-1.310070455E-1,-9.571290575E-3,9.861719131E0,9.862593913E0
2.041065790E-1,-9.990034252E-2,4.785645287E-3,9.861719131E0,9.862226281E0
2.065300170E-1,-1.166501045E-1,1.196411345E-2,9.849755287E0,9.850453269E0
2.089538710E-1,-1.190429255E-1,2.153540403E-2,9.844969749E0,9.845712994E0
2.113778290E-1,-1.094716340E-1,9.571290575E-3,9.847362518E0,9.847975640E0
2.138015270E-1,-1.118644550E-1,3.828516230E-2,9.847362518E0,9.848072298E0
2.162251210E-1,-1.501496136E-1,-4.785645287E-3,9.842576981E0,9.843723352E0
2.186492360E-1,-1.094716340E-1,-1.914258115E-2,9.856933594E0,9.857560061E0
2.210727250E-1,-9.511470050E-2,1.435693540E-2,9.849755287E0,9.850224979E0
2.234967880E-1,-1.022931710E-1,-1.196411345E-2,9.856933594E0,9.857471628E0
2.259201210E-1,-9.272187948E-2,1.435693540E-2,9.852148056E0,9.852594825E0
2.283443920E-1,-9.990034252E-2,1.435693540E-2,9.828220367E0,9.828738566E0
2.307680380E-1,-1.262213886E-1,1.435693540E-2,9.837791443E0,9.838611611E0
2.331911110E-1,-1.142572835E-1,-0.000000000E0,9.840184212E0,9.840847527E0
2.356147040E-1,-1.070788130E-1,7.178467698E-3,9.844969749E0,9.845554671E0
2.380382460E-1,-1.214357466E-1,-0.000000000E0,9.842576981E0,9.843326077E0
2.404618400E-1,-1.046859920E-1,1.196411345E-2,9.830613136E0,9.831177800E0
2.428853810E-1,-1.166501045E-1,1.435693540E-2,9.859326363E0,9.860026861E0
2.453089750E-1,-1.142572835E-1,1.435693540E-2,9.852148056E0,9.852821026E0
2.477326210E-1,-1.142572835E-1,-4.785645287E-3,9.837791443E0,9.838456083E0
2.501554860E-1,-1.214357466E-1,-2.392822644E-3,9.844969749E0,9.845718955E0
2.525785590E-1,-1.046859920E-1,-4.785645287E-3,9.856933594E0,9.857490651E0
2.550009020E-1,-1.142572835E-1,-4.785645287E-3,9.835398674E0,9.836063476E0
2.574237150E-1,-1.190429255E-1,-0.000000000E0,9.833005905E0,9.833726473E0
2.598461630E-1,-1.238285750E-1,-2.392822644E-3,9.849755287E0,9.850533917E0
2.622693920E-1,-9.750752151E-2,-2.153540403E-2,9.842576981E0,9.843083516E0
2.646923610E-1,-1.094716340E-1,-0.000000000E0,9.859326363E0,9.859934095E0
2.671150690E-1,-8.554340899E-2,2.392822644E-3,9.825826645E0,9.826199299E0
2.695382460E-1,-1.094716340E-1,-4.785645287E-3,9.842576981E0,9.843186911E0
2.719610060E-1,-1.046859920E-1,9.571290575E-3,9.830613136E0,9.831175179E0
2.743850690E-1,-9.511470050E-2,7.178467698E-3,9.844969749E0,9.845431819E0
2.768088710E-1,-1.286142170E-1,9.571290575E-3,9.842576981E0,9.843421907E0
2.792318920E-1,-1.214357466E-1,-2.392822644E-3,9.864111900E0,9.864859652E0
2.816556940E-1,-1.094716340E-1,-1.674975827E-2,9.835398674E0,9.836022147E0
2.840797560E-1,-1.238285750E-1,-2.392822644E-3,9.842576981E0,9.843356179E0
2.865030380E-1,-1.190429255E-1,1.435693540E-2,9.828220367E0,9.828951772E0
2.889267360E-1,-1.357926875E-1,2.153540403E-2,9.840184212E0,9.841144687E0
2.913503810E-1,-1.214357466E-1,1.196411345E-2,9.849755287E0,9.850511103E0
2.937740270E-1,-1.094716340E-1,1.914258115E-2,9.866504669E0,9.867130528E0
2.961977770E-1,-1.190429255E-1,4.785645287E-3,9.847362518E0,9.848083199E0
2.986208500E-1,-1.286142170E-1,-4.785645287E-3,9.835398674E0,9.836240725E0
3.010442360E-1,-1.381855011E-1,-7.178467698E-3,9.837791443E0,9.838764518E0
3.034676730E-1,-1.286142170E-1,4.785645287E-3,9.842576981E0,9.843418417E0
3.058910590E-1,-1.118644550E-1,1.196411345E-2,9.844969749E0,9.845612534E0
3.083149130E-1,-1.118644550E-1,9.571290575E-3,9.847362518E0,9.848002530E0
3.107388190E-1,-1.286142170E-1,-7.178467698E-3,9.864111900E0,9.864952951E0
3.131631940E-1,-1.142572835E-1,1.196411345E-2,9.840184212E0,9.840854800E0
3.155872560E-1,-1.166501045E-1,1.435693540E-2,9.840184212E0,9.840886072E0
3.180113710E-1,-1.166501045E-1,3.349951655E-2,9.864111900E0,9.864858491E0
3.204347040E-1,-1.046859920E-1,1.196411345E-2,9.866504669E0,9.867067279E0
3.228579340E-1,-1.214357466E-1,-1.674975827E-2,9.856933594E0,9.857695829E0
3.252820480E-1,-9.511470050E-2,-2.392822644E-3,9.866504669E0,9.866963409E0
3.277056420E-1,-1.070788130E-1,1.914258115E-2,9.847362518E0,9.847963286E0
3.301293400E-1,-9.990034252E-2,1.914258115E-2,9.849755287E0,9.850280490E0
3.325530380E-1,-1.142572835E-1,1.914258115E-2,9.852148056E0,9.852829161E0
3.349772560E-1,-1.094716340E-1,4.785645287E-3,9.844969749E0,9.845579531E0
3.374005900E-1,-1.214357466E-1,-1.914258115E-2,9.816255569E0,9.817025338E0
3.398232460E-1,-1.094716340E-1,-0.000000000E0,9.830613136E0,9.831222644E0
3.422465790E-1,-1.022931710E-1,1.914258115E-2,9.828220367E0,9.828771333E0
3.446706940E-1,-1.166501045E-1,1.196411345E-2,9.837791443E0,9.838490273E0
3.470937670E-1,-8.554340899E-2,1.196411345E-2,9.861719131E0,9.862097396E0
3.495174130E-1,-1.046859920E-1,2.392822644E-3,9.859326363E0,9.859882413E0
3.519414230E-1,-1.094716340E-1,-1.914258115E-2,9.847362518E0,9.847989594E0
3.543652250E-1,-1.262213886E-1,-2.392822644E-3,9.864111900E0,9.864919723E0
3.567894440E-1,-1.214357466E-1,1.674975827E-2,9.847362518E0,9.848125495E0
3.592131940E-1,-9.272187948E-2,4.785645287E-3,9.842576981E0,9.843014877E0
3.616366840E-1,-1.070788130E-1,7.178467698E-3,9.864111900E0,9.864695686E0
3.640606420E-1,-9.990034252E-2,9.571290575E-3,9.837791443E0,9.838303317E0
3.664841840E-1,-8.554340899E-2,3.110669367E-2,9.861719131E0,9.862139196E0
3.689075690E-1,-8.793623000E-2,-2.392822644E-3,9.861719131E0,9.862111474E0
3.713302250E-1,-1.094716340E-1,2.392822644E-3,9.856933594E0,9.857541764E0
3.737544960E-1,-1.046859920E-1,-2.392822644E-3,9.847362518E0,9.847919245E0
3.761777250E-1,-1.118644550E-1,-4.785645287E-3,9.861719131E0,9.862354728E0
3.786014750E-1,-9.990034252E-2,2.392822644E-3,9.835398674E0,9.835906307E0
3.810250690E-1,-1.118644550E-1,1.196411345E-2,9.842576981E0,9.843219921E0
3.834482980E-1,-1.190429255E-1,-4.785645287E-3,9.837791443E0,9.838512824E0
3.858713190E-1,-1.238285750E-1,-4.785645287E-3,9.840184212E0,9.840964472E0
3.882949130E-1,-1.357926875E-1,7.178467698E-3,9.852148056E0,9.853086445E0
3.907187150E-1,-1.262213886E-1,-1.196411345E-2,9.847362518E0,9.848178692E0
3.931431940E-1,-1.333998591E-1,-7.178467698E-3,9.844969749E0,9.845876112E0
3.955666840E-1,-1.166501045E-1,-2.632104978E-2,9.866504669E0,9.867229319E0
3.979901210E-1,-9.750752151E-2,-1.435693540E-2,9.861719131E0,9.862211621E0
4.004143400E-1,-1.070788130E-1,-4.785645287E-3,9.852148056E0,9.852731098E0
4.028387670E-1,-1.094716340E-1,1.196411345E-2,9.842576981E0,9.843193018E0
4.052631940E-1,-1.381855011E-1,-7.178467698E-3,9.840184212E0,9.841157050E0
4.076872560E-1,-1.333998591E-1,-0.000000000E0,9.847362518E0,9.848266045E0
4.101113190E-1,-1.094716340E-1,4.785645287E-3,9.861719131E0,9.862327878E0
4.125351730E-1,-1.022931710E-1,9.571290575E-3,9.852148056E0,9.852683737E0
4.149584540E-1,-1.166501045E-1,-9.571290575E-3,9.888040543E0,9.888733217E0
4.173825170E-1,-1.262213886E-1,-0.000000000E0,9.856933594E0,9.857741715E0
4.198070480E-1,-1.046859920E-1,1.914258115E-2,9.847362518E0,9.847937559E0
4.222304340E-1,-1.190429255E-1,1.435693540E-2,9.844969749E0,9.845699909E0
4.246530380E-1,-1.118644550E-1,1.196411345E-2,9.842576981E0,9.843219921E0
4.270764230E-1,-1.190429255E-1,-7.178467698E-3,9.840184212E0,9.840906872E0
4.294997560E-1,-9.990034252E-2,-7.178467698E-3,9.861719131E0,9.862227732E0
4.319232460E-1,-1.142572835E-1,-1.196411345E-2,9.835398674E0,9.836069588E0
4.343465270E-1,-1.333998591E-1,-0.000000000E0,9.854540825E0,9.855443693E0
4.367702250E-1,-9.511470050E-2,4.785645287E-3,9.861719131E0,9.862178965E0
4.391941840E-1,-8.793623000E-2,-2.392822644E-3,9.844969749E0,9.845362760E0
4.416175170E-1,-1.070788130E-1,-7.178467698E-3,9.837791443E0,9.838376791E0
4.440411110E-1,-8.793623000E-2,9.571290575E-3,9.825826645E0,9.826224791E0
4.464648090E-1,-1.022931710E-1,7.178467698E-3,9.830613136E0,9.831147952E0
4.488886110E-1,-1.262213886E-1,2.392822644E-3,9.842576981E0,9.843386571E0
4.513118400E-1,-9.750752151E-2,4.785645287E-3,9.856933594E0,9.857417029E0
4.537353290E-1,-1.046859920E-1,9.571290575E-3,9.837791443E0,9.838353076E0
4.561589230E-1,-9.750752151E-2,-0.000000000E0,9.859326363E0,9.859808520E0
4.585826730E-1,-1.046859920E-1,7.178467698E-3,9.847362518E0,9.847921570E0
4.610063190E-1,-9.032905847E-2,2.153540403E-2,9.830613136E0,9.831051711E0
4.634297560E-1,-9.990034252E-2,1.674975827E-2,9.847362518E0,9.847883488E0
4.658532980E-1,-1.022931710E-1,4.785645287E-3,9.849755287E0,9.850287611E0
4.682767880E-1,-1.142572835E-1,7.178467698E-3,9.861719131E0,9.862383611E0
4.706999650E-1,-1.094716340E-1,7.178467698E-3,9.854540825E0,9.855151467E0
4.731236110E-1,-9.750752151E-2,1.196411345E-2,9.844969749E0,9.845459879E0
4.755464230E-1,-1.381855011E-1,9.571290575E-3,9.828220367E0,9.829196429E0
4.779693400E-1,-1.094716340E-1,9.571290575E-3,9.840184212E0,9.840797781E0
4.803929340E-1,-1.333998591E-1,1.674975827E-2,9.847362518E0,9.848280289E0
4.828167880E-1,-1.142572835E-1,1.435693540E-2,9.833005905E0,9.833680185E0
4.852402770E-1,-1.022931710E-1,1.196411345E-2,9.849755287E0,9.850293714E0
4.876636110E-1,-1.214357466E-1,-1.435693540E-2,9.856933594E0,9.857692054E0
4.900869960E-1,-1.214357466E-1,-0.000000000E0,9.830613136E0,9.831363144E0
4.925110060E-1,-1.238285750E-1,2.153540403E-2,9.840184212E0,9.840986872E0
4.949354340E-1,-1.166501045E-1,2.392822644E-3,9.847362518E0,9.848053693E0
4.973595480E-1,-9.990034252E-2,1.196411345E-2,9.856933594E0,9.857447088E0
4.997826210E-1,-1.118644550E-1,-9.571290575E-3,9.861719131E0,9.862358212E0
5.022061630E-1,-1.070788130E-1,2.392822644E-3,9.852148056E0,9.852730226E0
5.046296520E-1,-1.262213886E-1,-0.000000000E0,9.840184212E0,9.840993708E0
5.070532980E-1,-1.118644550E-1,-2.392822644E-3,9.856933594E0,9.857568628E0
5.094766310E-1,-1.022931710E-1,1.196411345E-2,9.859326363E0,9.859864267E0
5.119000690E-1,-9.272187948E-2,-1.435693540E-2,9.849755287E0,9.850202165E0
5.143232980E-1,-9.511470050E-2,-0.000000000E0,9.868897438E0,9.869355777E0
5.167469960E-1,-1.118644550E-1,2.392822644E-3,9.852148056E0,9.852783399E0
5.191712150E-1,-1.190429255E-1,-4.785645287E-3,9.835398674E0,9.836120231E0
5.215955900E-1,-9.990034252E-2,1.435693540E-2,9.833005905E0,9.833523851E0
5.240199130E-1,-1.214357466E-1,2.153540403E-2,9.842576981E0,9.843349635E0
5.264438710E-1,-1.333998591E-1,9.571290575E-3,9.852148056E0,9.853055792E0
5.288674650E-1,-1.070788130E-1,-7.178467698E-3,9.852148056E0,9.852732551E0
5.312914750E-1,-1.094716340E-1,-0.000000000E0,9.825826645E0,9.826436449E0
5.337149130E-1,-7.597211748E-2,9.571290575E-3,9.849755287E0,9.850052923E0
5.361381420E-1,-1.190429255E-1,4.785645287E-3,9.840184212E0,9.840905418E0
5.385618920E-1,-1.142572835E-1,1.435693540E-2,9.852148056E0,9.852821026E0
5.409854860E-1,-1.214357466E-1,1.196411345E-2,9.852148056E0,9.852903689E0
5.434090270E-1,-1.262213886E-1,-2.392822644E-3,9.861719131E0,9.862527150E0
5.458321000E-1,-9.990034252E-2,1.674975827E-2,9.835398674E0,9.835920278E0
5.482550690E-1,-9.511470050E-2,-0.000000000E0,9.847362518E0,9.847821859E0
5.506779860E-1,-1.118644550E-1,-4.785645287E-3,9.844969749E0,9.845606428E0
5.531011630E-1,-8.315058798E-2,7.178467698E-3,9.844969749E0,9.845323505E0
5.555236630E-1,-9.750752151E-2,2.392822644E-3,9.861719131E0,9.862201462E0
5.579464750E-1,-9.750752151E-2,2.392822644E-3,9.852148056E0,9.852630855E0
5.603695480E-1,-1.262213886E-1,1.196411345E-2,9.854540825E0,9.855356404E0
5.627923090E-1,-1.022931710E-1,1.914258115E-2,9.844969749E0,9.845519778E0
5.652154860E-1,-1.046859920E-1,7.178467698E-3,9.861719131E0,9.862277370E0
5.676385060E-1,-1.118644550E-1,1.914258115E-2,9.847362518E0,9.848016484E0
5.700624650E-1,-1.070788130E-1,-2.392822644E-3,9.864111900E0,9.864693365E0
5.724859020E-1,-9.032905847E-2,1.196411345E-2,9.830613136E0,9.831035404E0
5.749096520E-1,-1.094716340E-1,-0.000000000E0,9.856933594E0,9.857541474E0
5.773336110E-1,-9.990034252E-2,-0.000000000E0,9.847362518E0,9.847869244E0
5.797577770E-1,-1.094716340E-1,9.571290575E-3,9.842576981E0,9.843190401E0
5.821817360E-1,-1.166501045E-1,1.196411345E-2,9.837791443E0,9.838490273E0
5.846049650E-1,-1.166501045E-1,-0.000000000E0,9.833005905E0,9.833697798E0
5.870283500E-1,-1.118644550E-1,-4.785645287E-3,9.852148056E0,9.852784270E0
5.894515270E-1,-1.238285750E-1,-2.392822644E-3,9.830613136E0,9.831393283E0
5.918742880E-1,-1.238285750E-1,1.435693540E-2,9.842576981E0,9.843366358E0
5.942974130E-1,-1.118644550E-1,4.785645287E-3,9.844969749E0,9.845606428E0
5.967200690E-1,-1.094716340E-1,2.632104978E-2,9.868897438E0,9.869539679E0
5.991433500E-1,-1.070788130E-1,1.196411345E-2,9.844969749E0,9.845559323E0
6.015660060E-1,-1.238285750E-1,-0.000000000E0,9.861719131E0,9.862496527E0
6.039890270E-1,-1.190429255E-1,1.435693540E-2,9.866504669E0,9.867233236E0
6.064124650E-1,-9.990034252E-2,2.392822690E-2,9.859326363E0,9.859861508E0
6.088362670E-1,-8.315058798E-2,9.571290575E-3,9.871291161E0,9.871646003E0
6.112600170E-1,-1.094716340E-1,3.349951655E-2,9.856933594E0,9.857598396E0
6.136834020E-1,-1.262213886E-1,1.435693540E-2,9.864111900E0,9.864929880E0
6.161065790E-1,-1.166501045E-1,-1.196411345E-2,9.844969749E0,9.845668071E0
6.185297040E-1,-1.214357466E-1,2.392822644E-3,9.842576981E0,9.843326368E0
6.209528290E-1,-1.214357466E-1,7.178467698E-3,9.844969749E0,9.845721281E0
6.233763190E-1,-1.166501045E-1,7.178467698E-3,9.842576981E0,9.843270818E0
6.257993920E-1,-1.238285750E-1,-2.392822690E-2,9.835398674E0,9.836207254E0
6.282225690E-1,-1.262213886E-1,-2.392822690E-2,9.828220367E0,9.829059975E0
6.306461110E-1,-1.118644550E-1,2.392822644E-3,9.830613136E0,9.831249871E0
6.330693920E-1,-1.477568001E-1,1.196411345E-2,9.842576981E0,9.843693252E0
6.354919440E-1,-1.333998591E-1,9.571290575E-3,9.842576981E0,9.843485600E0
6.379152250E-1,-1.022931710E-1,-0.000000000E0,9.830613136E0,9.831145331E0
6.403376210E-1,-1.070788130E-1,9.571290575E-3,9.847362518E0,9.847949332E0
6.427601730E-1,-1.046859920E-1,3.110669367E-2,9.847362518E0,9.847968082E0
6.451827770E-1,-1.238285750E-1,7.178467698E-3,9.854540825E0,9.855321401E0
6.476063190E-1,-1.310070455E-1,-1.196411345E-2,9.842576981E0,9.843456080E0
6.500297560E-1,-9.750752151E-2,4.785645287E-3,9.847362518E0,9.847846424E0
6.524534540E-1,-1.238285750E-1,1.196411345E-2,9.844969749E0,9.845755737E0
6.548768920E-1,-1.190429255E-1,2.153540403E-2,9.854540825E0,9.855283348E0
6.573003290E-1,-1.190429255E-1,2.632104978E-2,9.842576981E0,9.843332039E0
6.597236110E-1,-8.315058798E-2,7.178467698E-3,9.842576981E0,9.842930822E0
6.621460060E-1,-1.118644550E-1,7.178467698E-3,9.861719131E0,9.862356180E0
6.645689750E-1,-1.310070455E-1,1.674975827E-2,9.844969749E0,9.845855614E0
6.669919440E-1,-9.990034252E-2,-1.674975827E-2,9.864111900E0,9.864631986E0
6.694156940E-1,-9.511470050E-2,4.785645287E-3,9.852148056E0,9.852608336E0
6.718390270E-1,-1.094716340E-1,-0.000000000E0,9.861719131E0,9.862326717E0
6.742626210E-1,-1.166501045E-1,2.392822644E-3,9.849755287E0,9.850446294E0
6.766861110E-1,-1.022931710E-1,9.571290575E-3,9.833005905E0,9.833542629E0
6.791089230E-1,-1.142572835E-1,2.632104978E-2,9.856933594E0,9.857630922E0
6.815318920E-1,-1.070788130E-1,1.914258115E-2,9.859326363E0,9.859926401E0
6.839556420E-1,-9.990034252E-2,7.178467698E-3,9.842576981E0,9.843086570E0
6.863790790E-1,-1.142572835E-1,-7.178467698E-3,9.847362518E0,9.848027966E0
6.888026210E-1,-1.142572835E-1,9.571290575E-3,9.868897438E0,9.869563464E0
6.912262150E-1,-1.118644550E-1,2.871387079E-2,9.840184212E0,9.840861927E0
6.936496520E-1,-1.022931710E-1,-9.571290575E-3,9.835398674E0,9.835935267E0
6.960725690E-1,-1.046859920E-1,-2.392822644E-3,9.830613136E0,9.831170811E0
6.984957460E-1,-1.190429255E-1,-1.196411345E-2,9.847362518E0,9.848089303E0
7.009192880E-1,-9.750752151E-2,1.914258115E-2,9.859326363E0,9.859827102E0
7.033428810E-1,-1.190429255E-1,1.674975827E-2,9.835398674E0,9.836133328E0
7.057659540E-1,-9.511470050E-2,2.392822644E-3,9.842576981E0,9.843036836E0
7.081892880E-1,-1.142572835E-1,-1.196411345E-2,9.844969749E0,9.845640011E0
7.106126730E-1,-1.142572835E-1,7.178467698E-3,9.840184212E0,9.840850145E0
7.130356420E-1,-1.046859920E-1,4.785645287E-3,9.837791443E0,9.838349584E0
7.154585060E-1,-7.836493850E-2,-1.196411345E-2,9.842576981E0,9.842896211E0
7.178814230E-1,-9.032905847E-2,-0.000000000E0,9.849755287E0,9.850169468E0
7.203045480E-1,-1.142572835E-1,-4.785645287E-3,9.849755287E0,9.850419120E0
7.227280380E-1,-9.750752151E-2,-9.571290575E-3,9.830613136E0,9.831101361E0
7.251509020E-1,-1.118644550E-1,2.871387079E-2,9.837791443E0,9.838469323E0
7.275744440E-1,-1.118644550E-1,2.632104978E-2,9.835398674E0,9.836070025E0
7.299974130E-1,-1.190429255E-1,1.435693540E-2,9.842576981E0,9.843307318E0
7.324204860E-1,-1.166501045E-1,-0.000000000E0,9.835398674E0,9.836090398E0
7.348439750E-1,-1.094716340E-1,1.435693540E-2,9.847362518E0,9.847981454E0
7.372673610E-1,-9.750752151E-2,1.674975827E-2,9.823433876E0,9.823932074E0
7.396902250E-1,-9.990034252E-2,9.571290575E-3,9.833005905E0,9.833518029E0
7.421127770E-1,-1.166501045E-1,7.178467698E-3,9.840184212E0,9.840878218E0
7.445351210E-1,-9.272187948E-2,-7.178467698E-3,9.828220367E0,9.828660360E0
7.469582980E-1,-1.142572835E-1,-7.178467698E-3,9.813862801E0,9.814530520E0
7.493810590E-1,-1.118644550E-1,-2.153540403E-2,9.837791443E0,9.838450991E0
7.518043920E-1,-1.094716340E-1,9.571290575E-3,9.852148056E0,9.852760880E0
7.542281420E-1,-1.118644550E-1,-4.785645287E-3,9.849755287E0,9.850391656E0
7.566518920E-1,-1.142572835E-1,4.785645287E-3,9.849755287E0,9.850419120E0
7.590754860E-1,-1.142572835E-1,4.785645287E-3,9.835398674E0,9.836063476E0
7.614994440E-1,-1.070788130E-1,-7.178467698E-3,9.842576981E0,9.843162044E0
7.639221520E-1,-1.214357466E-1,-4.785645287E-3,9.854540825E0,9.855290174E0
7.663454860E-1,-9.750752151E-2,1.914258115E-2,9.856933594E0,9.857434455E0
7.687694960E-1,-1.070788130E-1,-1.196411345E-2,9.852148056E0,9.852737200E0
7.711926730E-1,-1.070788130E-1,4.785645287E-3,9.864111900E0,9.864694235E0
7.736160060E-1,-1.022931710E-1,1.674975827E-2,9.854540825E0,9.855085962E0
7.760396520E-1,-9.272187948E-2,-4.785645287E-3,9.859326363E0,9.859763515E0
7.784628810E-1,-1.142572835E-1,-9.571290575E-3,9.847362518E0,9.848030001E0
7.808863190E-1,-8.554340899E-2,-2.153540403E-2,9.847362518E0,9.847757614E0
7.833094960E-1,-1.286142170E-1,-1.435693540E-2,9.833005905E0,9.833857477E0
7.857327770E-1,-9.990034252E-2,-0.000000000E0,9.854540825E0,9.855047181E0
7.881563190E-1,-1.310070455E-1,-2.392822644E-3,9.849755287E0,9.850626771E0
7.905798090E-1,-1.286142170E-1,2.392822644E-3,9.823433876E0,9.824276078E0
7.930030900E-1,-1.214357466E-1,-0.000000000E0,9.842576981E0,9.843326077E0
7.954266310E-1,-1.286142170E-1,-4.785645287E-3,9.861719131E0,9.862558935E0
7.978503290E-1,-1.142572835E-1,1.914258115E-2,9.840184212E0,9.840866145E0
8.002743920E-1,-1.142572835E-1,-7.178467698E-3,9.835398674E0,9.836064931E0
8.026980380E-1,-9.511470050E-2,-1.196411345E-2,9.854540825E0,9.855007094E0
8.051214230E-1,-1.094716340E-1,-7.178467698E-3,9.854540825E0,9.855151467E0
8.075450690E-1,-1.094716340E-1,-7.178467698E-3,9.849755287E0,9.850366226E0
8.099690270E-1,-9.032905847E-2,-2.871387079E-2,9.861719131E0,9.862174611E0
8.123930380E-1,-1.190429255E-1,1.914258115E-2,9.861719131E0,9.862456179E0
8.148163710E-1,-1.286142170E-1,7.178467698E-3,9.859326363E0,9.860167822E0
8.172396000E-1,-1.070788130E-1,-1.196411345E-2,9.861719131E0,9.862307704E0
8.196636110E-1,-1.070788130E-1,-2.392822644E-3,9.835398674E0,9.835981836E0
8.220874650E-1,-1.262213886E-1,2.632104978E-2,9.847362518E0,9.848206598E0
8.245098090E-1,-1.094716340E-1,-0.000000000E0,9.861719131E0,9.862326717E0
8.269328290E-1,-1.190429255E-1,4.785645287E-3,9.849755287E0,9.850475792E0
8.293558500E-1,-9.511470050E-2,4.785645287E-3,9.859326363E0,9.859786308E0
8.317795480E-1,-1.142572835E-1,-7.178467698E-3,9.861719131E0,9.862383611E0
8.342034020E-1,-1.190429255E-1,2.392822644E-3,9.873683929E0,9.874401819E0
8.366270480E-1,-1.070788130E-1,9.571290575E-3,9.847362518E0,9.847949332E0
8.390506940E-1,-1.070788130E-1,2.392822644E-3,9.847362518E0,9.847944972E0
8.414745480E-1,-8.554340899E-2,2.392822690E-2,9.842576981E0,9.842977794E0
8.438977770E-1,-1.094716340E-1,-0.000000000E0,9.844969749E0,9.845578368E0
8.463211110E-1,-1.070788130E-1,-1.674975827E-2,9.842576981E0,9.843173678E0
8.487447040E-1,-9.511470050E-2,1.435693540E-2,9.835398674E0,9.835869052E0
8.511678810E-1,-1.166501045E-1,-7.178467698E-3,9.859326363E0,9.860019021E0
8.535909540E-1,-1.166501045E-1,1.914258115E-2,9.854540825E0,9.855249797E0
8.560138710E-1,-1.094716340E-1,4.785645287E-3,9.861719131E0,9.862327878E0
8.584367360E-1,-1.046859920E-1,-0.000000000E0,9.856933594E0,9.857489489E0
8.608597040E-1,-1.046859920E-1,2.392822644E-3,9.849755287E0,9.850311878E0
8.632828810E-1,-1.022931710E-1,-7.178467698E-3,9.844969749E0,9.845503786E0
8.657066310E-1,-1.190429255E-1,-1.196411345E-2,9.844969749E0,9.845696711E0
8.681302770E-1,-9.511470050E-2,-0.000000000E0,9.861719131E0,9.862177804E0
8.705535060E-1,-9.990034252E-2,-4.785645287E-3,9.840184212E0,9.840692471E0
8.729767880E-1,-1.070788130E-1,9.571290575E-3,9.856933594E0,9.857519838E0
8.754000690E-1,-1.214357466E-1,-7.178467698E-3,9.866504669E0,9.867254560E0
8.778237670E-1,-1.190429255E-1,9.571290575E-3,9.871291161E0,9.872013574E0
8.802470480E-1,-1.310070455E-1,-4.785645287E-3,9.852148056E0,9.853020200E0
8.826703810E-1,-1.262213886E-1,1.674975827E-2,9.854540825E0,9.855363375E0
8.850934540E-1,-1.310070455E-1,1.196411345E-2,9.842576981E0,9.843456080E0
8.875177250E-1,-8.075776696E-2,2.392822644E-3,9.854540825E0,9.854872014E0
8.899420480E-1,-1.166501045E-1,1.914258115E-2,9.847362518E0,9.848072007E0
8.923658500E-1,-8.554340899E-2,4.785645287E-3,9.837791443E0,9.838164516E0
8.947897040E-1,-1.190429255E-1,9.571290575E-3,9.837791443E0,9.838516316E0
8.972132980E-1,-1.214357466E-1,-9.571290575E-3,9.856933594E0,9.857686246E0
8.996371520E-1,-1.094716340E-1,4.785645287E-3,9.849755287E0,9.850364773E0
9.020610060E-1,-1.094716340E-1,2.632104978E-2,9.864111900E0,9.864754453E0
9.044847560E-1,-1.022931710E-1,-0.000000000E0,9.864111900E0,9.864642288E0
9.069088710E-1,-1.142572835E-1,1.435693540E-2,9.842576981E0,9.843250605E0
9.093326210E-1,-1.022931710E-1,-0.000000000E0,9.840184212E0,9.840715889E0
9.117561630E-1,-1.118644550E-1,2.632104978E-2,9.837791443E0,9.838462630E0
9.141796000E-1,-1.070788130E-1,2.392822690E-2,9.854540825E0,9.855151612E0
9.166035060E-1,-1.046859920E-1,1.435693540E-2,9.837791443E0,9.838358895E0
9.190280900E-1,-1.166501045E-1,-9.571290575E-3,9.852148056E0,9.852843253E0
9.214517360E-1,-9.511470050E-2,-4.785645287E-3,9.861719131E0,9.862178965E0
9.238756420E-1,-1.070788130E-1,-2.392822644E-3,9.847362518E0,9.847944972E0
9.262989230E-1,-1.214357466E-1,4.785645287E-3,9.835398674E0,9.836149481E0
9.287224130E-1,-1.166501045E-1,1.914258115E-2,9.837791443E0,9.838501622E0
9.311459540E-1,-1.094716340E-1,-1.674975827E-2,9.878469467E0,9.879090222E0
9.335689230E-1,-1.046859920E-1,-4.785645287E-3,9.859326363E0,9.859883284E0
9.359925170E-1,-1.022931710E-1,7.178467698E-3,9.842576981E0,9.843111146E0
9.384166840E-1,-1.094716340E-1,-7.178467698E-3,9.842576981E0,9.843188365E0
9.408411110E-1,-1.070788130E-1,-7.178467698E-3,9.842576981E0,9.843162044E0
9.432643920E-1,-9.990034252E-2,-2.153540403E-2,9.859326363E0,9.859855992E0
9.456877770E-1,-1.070788130E-1,-7.178467698E-3,9.837791443E0,9.838376791E0
9.481110060E-1,-9.272187948E-2,9.571290575E-3,9.856933594E0,9.857374337E0
9.505342360E-1,-1.166501045E-1,1.196411345E-2,9.842576981E0,9.843275471E0
9.529580380E-1,-1.094716340E-1,7.178467698E-3,9.849755287E0,9.850366226E0
9.553817880E-1,-9.511470050E-2,9.571290575E-3,9.859326363E0,9.859789792E0
9.578058500E-1,-1.022931710E-1,4.785645287E-3,9.849755287E0,9.850287611E0
9.602301210E-1,-1.333998591E-1,-0.000000000E0,9.835398674E0,9.836303299E0
9.626541310E-1,-1.070788130E-1,3.110669367E-2,9.844969749E0,9.845601194E0
9.650779860E-1,-1.142572835E-1,7.178467698E-3,9.856933594E0,9.857598396E0
9.675016840E-1,-1.166501045E-1,-2.392822644E-3,9.856933594E0,9.857624097E0
9.699251210E-1,-8.075776696E-2,1.674975827E-2,9.854540825E0,9.854885958E0
9.723488190E-1,-1.094716340E-1,2.392822644E-3,9.849755287E0,9.850363901E0
9.747726210E-1,-1.142572835E-1,4.785645287E-3,9.871291161E0,9.871953546E0
9.771961110E-1,-9.272187948E-2,-2.392822644E-3,9.871291161E0,9.871726913E0
9.796191310E-1,-1.238285750E-1,1.435693540E-2,9.864111900E0,9.864899554E0
9.820426210E-1,-1.142572835E-1,-4.785645287E-3,9.852148056E0,9.852811728E0
9.844659020E-1,-1.070788130E-1,-2.392822644E-3,9.868897438E0,9.869478621E0
9.868891310E-1,-1.094716340E-1,4.785645287E-3,9.852148056E0,9.852757394E0
9.893131940E-1,-9.990034252E-2,7.178467698E-3,9.847362518E0,9.847871860E0
9.917372040E-1,-1.046859920E-1,-4.785645287E-3,9.847362518E0,9.847920117E0
9.941611110E-1,-1.166501045E-1,1.435693540E-2,9.878469467E0,9.879168608E0
9.965848090E-1,-1.070788130E-1,4.785645287E-3,9.844969749E0,9.845553217E0
9.990084020E-1,-9.990034252E-2,2.871387079E-2,9.854540825E0,9.855089012E0
1.001431736E0,-1.262213886E-1,1.435693540E-2,9.842576981E0,9.843396750E0
1.003855486E0,-1.142572835E-1,7.178467698E-3,9.868897438E0,9.869561434E0
1.006279236E0,-1.262213886E-1,7.178467698E-3,9.856933594E0,9.857744328E0
1.008703194E0,-1.094716340E-1,4.785645287E-3,9.854540825E0,9.855150015E0
1.011126371E0,-1.142572835E-1,-9.571290575E-3,9.837791443E0,9.838459575E0
1.013549548E0,-1.046859920E-1,-2.392822644E-3,9.844969749E0,9.845526611E0
1.015972986E0,-1.357926875E-1,1.914258115E-2,9.828220367E0,9.829177060E0
1.018396163E0,-1.190429255E-1,2.392822644E-3,9.859326363E0,9.860045297E0
1.020819288E0,-1.286142170E-1,-0.000000000E0,9.852148056E0,9.852987513E0
1.023242881E0,-1.070788130E-1,7.178467698E-3,9.859326363E0,9.859910432E0
1.025666892E0,-1.238285750E-1,3.110669367E-2,9.856933594E0,9.857760446E0
1.028089965E0,-1.142572835E-1,9.571290575E-3,9.833005905E0,9.833674362E0
1.030513246E0,-1.286142170E-1,2.392822644E-3,9.840184212E0,9.841024980E0
1.032936631E0,-1.046859920E-1,-0.000000000E0,9.842576981E0,9.843133687E0
1.035360642E0,-1.070788130E-1,-0.000000000E0,9.866504669E0,9.867085702E0
1.037784652E0,-1.190429255E-1,9.571290575E-3,9.844969749E0,9.845694094E0
1.040208402E0,-9.272187948E-2,2.871387079E-2,9.840184212E0,9.840662943E0
1.042632100E0,-9.511470050E-2,2.632104978E-2,9.861719131E0,9.862212928E0
1.045056631E0,-1.214357466E-1,1.435693540E-2,9.861719131E0,9.862477224E0
1.047480538E0,-9.750752151E-2,2.392822644E-3,9.849755287E0,9.850238203E0
1.049904913E0,-1.357926875E-1,7.178467698E-3,9.837791443E0,9.838731202E0
1.052329236E0,-1.238285750E-1,-2.392822644E-3,9.856933594E0,9.857711657E0
1.054753715E0,-1.166501045E-1,1.435693540E-2,9.854540825E0,9.855241663E0
1.057177465E0,-1.118644550E-1,2.871387079E-2,9.861719131E0,9.862395367E0
1.059601475E0,-1.190429255E-1,-0.000000000E0,9.842576981E0,9.843296848E0
1.062026319E0,-1.238285750E-1,-0.000000000E0,9.842576981E0,9.843355888E0
1.064449861E0,-1.262213886E-1,9.571290575E-3,9.864111900E0,9.864924076E0
1.066873454E0,-1.214357466E-1,7.178467698E-3,9.847362518E0,9.848113867E0
1.069297204E0,-8.075776696E-2,1.196411345E-2,9.868897438E0,9.869235107E0
1.071721267E0,-8.793623000E-2,2.632104978E-2,9.854540825E0,9.854968313E0
1.074145225E0,-1.262213886E-1,-4.785645287E-3,9.861719131E0,9.862528021E0
1.076568663E0,-1.262213886E-1,-2.392822644E-3,9.840184212E0,9.840993999E0
1.078992309E0,-1.142572835E-1,1.674975827E-2,9.854540825E0,9.855217408E0
1.081415850E0,-1.214357466E-1,1.435693540E-2,9.852148056E0,9.852906885E0
1.083839340E0,-8.554340899E-2,2.392822690E-2,9.856933594E0,9.857333823E0
1.086264027E0,-1.166501045E-1,4.785645287E-3,9.854540825E0,9.855232368E0
1.088687934E0,-1.094716340E-1,7.178467698E-3,9.847362518E0,9.847973606E0
1.091111996E0,-1.094716340E-1,2.392822644E-3,9.852148056E0,9.852756522E0
1.093535746E0,-9.272187948E-2,2.153540403E-2,9.854540825E0,9.855000558E0
1.095959704E0,-1.286142170E-1,-4.785645287E-3,9.861719131E0,9.862558935E0
1.098383611E0,-1.214357466E-1,-7.178467698E-3,9.873683929E0,9.874433275E0
1.100806944E0,-1.094716340E-1,-1.435693540E-2,9.849755287E0,9.850374073E0
1.103230381E0,-1.357926875E-1,1.196411345E-2,9.840184212E0,9.841128396E0
1.105653402E0,-1.286142170E-1,9.571290575E-3,9.852148056E0,9.852992162E0
1.108077100E0,-1.094716340E-1,1.196411345E-2,9.854540825E0,9.855156115E0
1.110501006E0,-1.166501045E-1,4.785645287E-3,9.842576981E0,9.843269364E0
1.112925069E0,-1.238285750E-1,1.435693540E-2,9.852148056E0,9.852936667E0
1.115348819E0,-1.022931710E-1,1.196411345E-2,9.868897438E0,9.869434820E0
1.117772361E0,-1.094716340E-1,1.435693540E-2,9.847362518E0,9.847981454E0
1.120195538E0,-1.214357466E-1,2.392822690E-2,9.854540825E0,9.855318060E0
1.122618975E0,-1.070788130E-1,7.178467698E-3,9.852148056E0,9.852732551E0
1.125042465E0,-9.511470050E-2,4.785645287E-3,9.864111900E0,9.864571622E0
1.127466371E0,-9.990034252E-2,-1.674975827E-2,9.866504669E0,9.867024629E0
1.129889861E0,-1.118644550E-1,-0.000000000E0,9.876076698E0,9.876710212E0
1.132313819E0,-1.022931710E-1,-0.000000000E0,9.871291161E0,9.871821163E0
1.134737465E0,-1.118644550E-1,1.914258115E-2,9.864111900E0,9.864764755E0
1.137161111E0,-9.511470050E-2,-7.178467698E-3,9.847362518E0,9.847824476E0
1.139584756E0,-9.990034252E-2,-0.000000000E0,9.856933594E0,9.857439827E0
1.142008246E0,-1.214357466E-1,7.178467698E-3,9.837791443E0,9.838543523E0
1.144432048E0,-1.094716340E-1,-1.435693540E-2,9.854540825E0,9.855159310E0
1.146855329E0,-1.070788130E-1,-7.178467698E-3,9.864111900E0,9.864695686E0
1.149279236E0,-9.750752151E-2,9.571290575E-3,9.847362518E0,9.847849912E0
1.151702986E0,-9.272187948E-2,1.674975827E-2,9.837791443E0,9.838242647E0
1.154127204E0,-1.022931710E-1,-2.392822644E-3,9.854540825E0,9.855072018E0
1.156550850E0,-9.032905847E-2,-2.153540403E-2,9.854540825E0,9.854978335E0
1.158974340E0,-1.070788130E-1,1.674975827E-2,9.840184212E0,9.840781054E0
1.161397465E0,-1.310070455E-1,2.153540403E-2,9.847362518E0,9.848257470E0
1.163821527E0,-1.166501045E-1,9.571290575E-3,9.835398674E0,9.836095055E0
1.166244756E0,-1.118644550E-1,-0.000000000E0,9.847362518E0,9.847997879E0
1.168668819E0,-1.214357466E-1,7.178467698E-3,9.854540825E0,9.855291626E0
1.171092621E0,-1.310070455E-1,4.785645287E-3,9.830613136E0,9.831487191E0
1.173516475E0,-9.032905847E-2,3.110669367E-2,9.856933594E0,9.857396555E0
1.175940329E0,-9.750752151E-2,7.178467698E-3,9.835398674E0,9.835884623E0
1.178363402E0,-1.094716340E-1,2.153540403E-2,9.844969749E0,9.845601921E0
1.180787673E0,-1.166501045E-1,-7.178467698E-3,9.842576981E0,9.843270818E0
1.183211423E0,-1.214357466E-1,2.153540403E-2,9.837791443E0,9.838564473E0
1.185635173E0,-1.238285750E-1,1.196411345E-2,9.825826645E0,9.826614163E0
1.188058871E0,-7.597211748E-2,1.196411345E-2,9.835398674E0,9.835699364E0
1.190483038E0,-9.511470050E-2,4.785645287E-3,9.847362518E0,9.847823022E0
1.192907204E0,-1.190429255E-1,-2.392822644E-3,9.856933594E0,9.857652703E0
1.195331215E0,-1.166501045E-1,-2.392822644E-3,9.835398674E0,9.836090689E0
1.197755329E0,-1.118644550E-1,1.196411345E-2,9.849755287E0,9.850397759E0
1.200178819E0,-1.190429255E-1,4.785645287E-3,9.842576981E0,9.843298011E0
1.202602725E0,-1.046859920E-1,-0.000000000E0,9.847362518E0,9.847918954E0
1.205025954E0,-9.272187948E-2,-2.392822644E-3,9.840184212E0,9.840621342E0
1.207448871E0,-1.046859920E-1,9.571290575E-3,9.866504669E0,9.867064668E0
1.209872673E0,-9.511470050E-2,9.571290575E-3,9.876076698E0,9.876539342E0
1.212296215E0,-1.190429255E-1,4.785645287E-3,9.849755287E0,9.850475792E0
1.214719913E0,-1.238285750E-1,1.914258115E-2,9.854540825E0,9.855337377E0
1.217143038E0,-1.310070455E-1,-4.785645287E-3,9.854540825E0,9.855412757E0
1.219566631E0,-1.357926875E-1,1.914258115E-2,9.871291161E0,9.872243680E0
1.221990486E0,-1.214357466E-1,7.178467698E-3,9.854540825E0,9.855291626E0
1.224413715E0,-9.990034252E-2,2.392822644E-3,9.864111900E0,9.864618056E0
1.226836996E0,-1.118644550E-1,1.914258115E-2,9.854540825E0,9.855194314E0
1.229260173E0,-1.094716340E-1,-4.785645287E-3,9.847362518E0,9.847972152E0
1.231683454E0,-1.118644550E-1,-1.435693540E-2,9.849755287E0,9.850400956E0
1.234106631E0,-1.262213886E-1,9.571290575E-3,9.842576981E0,9.843390933E0
1.236529600E0,-1.166501045E-1,1.914258115E-2,9.842576981E0,9.843286814E0
1.238952829E0,-1.262213886E-1,2.153540403E-2,9.854540825E0,9.855372671E0
1.241376684E0,-1.022931710E-1,-1.435693540E-2,9.844969749E0,9.845511636E0
1.243800225E0,-8.793623000E-2,-2.392822644E-3,9.864111900E0,9.864504148E0
1.246224236E0,-1.094716340E-1,-2.392822644E-3,9.852148056E0,9.852756522E0
1.248647934E0,-1.094716340E-1,-4.785645287E-3,9.830613136E0,9.831223809E0
1.251070798E0,-1.166501045E-1,-2.392822690E-2,9.854540825E0,9.855260254E0
1.253494236E0,-1.166501045E-1,7.178467698E-3,9.859326363E0,9.860019021E0
1.255918142E0,-1.166501045E-1,-7.178467698E-3,9.859326363E0,9.860019021E0
1.258341319E0,-1.118644550E-1,9.571290575E-3,9.852148056E0,9.852787757E0
1.260764913E0,-9.272187948E-2,-4.785645287E-3,9.835398674E0,9.835836890E0
1.263188506E0,-1.166501045E-1,4.785645287E-3,9.847362518E0,9.848054565E0
1.265611423E0,-9.032905847E-2,2.153540403E-2,9.852148056E0,9.852585672E0
1.268034444E0,-1.238285750E-1,3.828516230E-2,9.844969749E0,9.845822903E0
1.270457413E0,-1.214357466E-1,2.153540403E-2,9.856933594E0,9.857705123E0
1.272880694E0,-1.118644550E-1,2.392822644E-3,9.873683929E0,9.874317886E0
1.275303975E0,-9.990034252E-2,-4.785645287E-3,9.856933594E0,9.857440989E0
1.277727256E0,-9.511470050E-2,-4.785645287E-3,9.866504669E0,9.866964280E0
1.280150590E0,-8.554340899E-2,2.392822644E-3,9.866504669E0,9.866875787E0
1.282573454E0,-8.554340899E-2,1.914258115E-2,9.852148056E0,9.852538020E0
1.284996579E0,-1.142572835E-1,-1.196411345E-2,9.835398674E0,9.836069588E0
1.287419861E0,-1.118644550E-1,9.571290575E-3,9.854540825E0,9.855180371E0
1.289843767E0,-9.272187948E-2,-4.785645287E-3,9.852148056E0,9.852585527E0
1.292267829E0,-1.190429255E-1,-7.178467698E-3,9.871291161E0,9.872011544E0
1.294691319E0,-1.022931710E-1,2.392822644E-3,9.847362518E0,9.847894099E0
1.297114704E0,-1.190429255E-1,1.674975827E-2,9.837791443E0,9.838525918E0
1.299538663E0,-1.142572835E-1,-1.435693540E-2,9.856933594E0,9.857606237E0
1.301961944E0,-9.272187948E-2,1.674975827E-2,9.849755287E0,9.850205943E0
1.304385746E0,-8.793623000E-2,1.674975827E-2,9.847362518E0,9.847769387E0
1.306809236E0,-9.032905847E-2,2.153540403E-2,9.864111900E0,9.864548986E0
1.309232309E0,-1.070788130E-1,2.392822644E-3,9.840184212E0,9.840767090E0
1.311655902E0,-1.286142170E-1,1.674975827E-2,9.849755287E0,9.850609189E0
1.314079131E0,-1.310070455E-1,9.571290575E-3,9.854540825E0,9.855416243E0
1.316502986E0,-1.333998591E-1,4.785645287E-3,9.864111900E0,9.865015054E0
1.318926631E0,-1.286142170E-1,3.349951655E-2,9.844969749E0,9.845866808E0
1.321349965E0,-1.190429255E-1,1.914258115E-2,9.866504669E0,9.867241359E0
1.323773559E0,-9.511470050E-2,2.392822690E-2,9.854540825E0,9.855028881E0
1.326197100E0,-1.070788130E-1,2.153540403E-2,9.828220367E0,9.828827256E0
1.328620798E0,-1.238285750E-1,9.571290575E-3,9.847362518E0,9.848145698E0
1.331044444E0,-1.094716340E-1,-4.785645287E-3,9.849755287E0,9.850364773E0
1.333468611E0,-1.070788130E-1,-2.392822644E-3,9.823433876E0,9.824017748E0
1.335892100E0,-1.429711580E-1,7.178467698E-3,9.833005905E0,9.834047865E0
1.338315434E0,-1.094716340E-1,1.914258115E-2,9.856933594E0,9.857560061E0
1.340738767E0,-1.238285750E-1,2.392822644E-3,9.861719131E0,9.862496817E0
1.343161996E0,-1.238285750E-1,-9.571290575E-3,9.871291161E0,9.872072442E0
1.345585329E0,-1.070788130E-1,-7.178467698E-3,9.861719131E0,9.862303059E0
1.348007777E0,-9.750752151E-2,-1.196411345E-2,9.873683929E0,9.874172633E0
1.350430954E0,-1.118644550E-1,2.392822644E-3,9.866504669E0,9.867139087E0
1.352854079E0,-1.022931710E-1,-2.153540403E-2,9.871291161E0,9.871844653E0
1.355277569E0,-1.118644550E-1,-7.178467698E-3,9.854540825E0,9.855178337E0
1.357701371E0,-8.793623000E-2,-4.785645287E-3,9.849755287E0,9.850148979E0
1.360124913E0,-1.022931710E-1,-4.785645287E-3,9.861719131E0,9.862250809E0
1.362548194E0,-8.315058798E-2,-0.000000000E0,9.842576981E0,9.842928205E0
1.364971996E0,-1.142572835E-1,9.571290575E-3,9.854540825E0,9.855207822E0
1.367395902E0,-1.046859920E-1,4.785645287E-3,9.856933594E0,9.857490651E0
1.369820329E0,-1.046859920E-1,-4.785645287E-3,9.859326363E0,9.859883284E0
1.372244600E0,-1.238285750E-1,-3.828516230E-2,9.830613136E0,9.831467536E0
1.374668298E0,-1.070788130E-1,9.571290575E-3,9.835398674E0,9.835986202E0
1.377092517E0,-9.272187948E-2,3.110669367E-2,9.859326363E0,9.859811423E0
1.379516684E0,-1.166501045E-1,-0.000000000E0,9.856933594E0,9.857623807E0
1.381941006E0,-8.793623000E-2,2.153540403E-2,9.840184212E0,9.840600687E0
1.384364444E0,-9.272187948E-2,7.178467698E-3,9.840184212E0,9.840623669E0
1.386787986E0,-1.238285750E-1,2.392822644E-3,9.864111900E0,9.864889397E0
1.389211631E0,-1.166501045E-1,-7.178467698E-3,9.828220367E0,9.828915218E0
1.391635225E0,-1.166501045E-1,3.589234129E-2,9.859326363E0,9.860081736E0
1.394058715E0,-1.214357466E-1,7.178467698E-3,9.847362518E0,9.848113867E0
1.396482413E0,-1.094716340E-1,4.785645287E-3,9.840184212E0,9.840794290E0
1.398906267E0,-1.094716340E-1,1.674975827E-2,9.861719131E0,9.862340940E0
1.401330486E0,-1.046859920E-1,-4.785645287E-3,9.861719131E0,9.862275918E0
1.403753506E0,-1.166501045E-1,-1.435693540E-2,9.830613136E0,9.831315680E0
1.406176631E0,-1.118644550E-1,2.392822644E-3,9.844969749E0,9.845605555E0
1.408600381E0,-1.118644550E-1,-4.785645287E-3,9.835398674E0,9.836035972E0
1.411024184E0,-1.118644550E-1,-1.674975827E-2,9.856933594E0,9.857582568E0
1.413448090E0,-1.262213886E-1,-4.785645287E-3,9.847362518E0,9.848172587E0
1.415871736E0,-1.262213886E-1,1.674975827E-2,9.844969749E0,9.845793100E0
1.418294913E0,-8.793623000E-2,-4.785645287E-3,9.840184212E0,9.840578286E0
1.420717986E0,-1.094716340E-1,-4.785645287E-3,9.854540825E0,9.855150015E0
1.423141163E0,-1.190429255E-1,-1.914258115E-2,9.852148056E0,9.852885820E0
1.425563923E0,-1.166501045E-1,1.196411345E-2,9.856933594E0,9.857631067E0
1.427986944E0,-1.166501045E-1,7.178467698E-3,9.849755287E0,9.850448619E0
1.430410590E0,-1.046859920E-1,-0.000000000E0,9.849755287E0,9.850311588E0
1.432834652E0,-1.190429255E-1,9.571290575E-3,9.878469467E0,9.879191356E0
1.435258402E0,-1.214357466E-1,-2.392822644E-3,9.844969749E0,9.845718955E0
1.437682725E0,-1.094716340E-1,-0.000000000E0,9.852148056E0,9.852756231E0
1.440106788E0,-1.022931710E-1,-2.392822644E-3,9.859326363E0,9.859857298E0
1.442531267E0,-1.118644550E-1,4.785645287E-3,9.844969749E0,9.845606428E0
1.444954965E0,-1.094716340E-1,-2.392822644E-3,9.837791443E0,9.838400797E0
1.447378559E0,-1.022931710E-1,1.914258115E-2,9.864111900E0,9.864660862E0
1.449802777E0,-1.166501045E-1,2.392822644E-3,9.842576981E0,9.843268491E0
1.452227152E0,-1.142572835E-1,7.178467698E-3,9.866504669E0,9.867168826E0
1.454650538E0,-1.166501045E-1,-1.914258115E-2,9.856933594E0,9.857642393E0
1.457073819E0,-1.094716340E-1,-3.828516230E-2,9.842576981E0,9.843260202E0
1.459497048E0,-9.032905847E-2,-2.392822644E-3,9.861719131E0,9.862133101E0
1.461920381E0,-1.070788130E-1,-0.000000000E0,9.849755287E0,9.850337308E0
1.464343871E0,-1.262213886E-1,1.914258115E-2,9.852148056E0,9.852975165E0
1.466767621E0,-1.070788130E-1,-1.914258115E-2,9.871291161E0,9.871890472E0
1.469190590E0,-1.094716340E-1,9.571290575E-3,9.876076698E0,9.876688038E0
1.471614600E0,-1.214357466E-1,2.392822644E-3,9.852148056E0,9.852896715E0
1.474037673E0,-1.190429255E-1,4.785645287E-3,9.854540825E0,9.855260980E0
1.476460590E0,-1.070788130E-1,9.571290575E-3,9.861719131E0,9.862305091E0
1.478883819E0,-9.990034252E-2,1.196411345E-2,9.847362518E0,9.847876511E0
1.481307256E0,-9.750752151E-2,1.435693540E-2,9.854540825E0,9.855033674E0
1.483730746E0,-9.032905847E-2,2.153540403E-2,9.873683929E0,9.874120591E0
1.486153923E0,-1.070788130E-1,-4.785645287E-3,9.844969749E0,9.845553217E0
1.488577829E0,-1.214357466E-1,7.178467698E-3,9.837791443E0,9.838543523E0
1.491001840E0,-1.142572835E-1,-4.785645287E-3,9.852148056E0,9.852811728E0
1.493425069E0,-1.118644550E-1,2.392822644E-3,9.840184212E0,9.840820327E0
1.495848611E0,-1.094716340E-1,1.914258115E-2,9.830613136E0,9.831241280E0
1.498272413E0,-9.750752151E-2,-1.196411345E-2,9.852148056E0,9.852637828E0
1.500696631E0,-1.262213886E-1,-7.178467698E-3,9.871291161E0,9.872100716E0
1.503120850E0,-1.046859920E-1,-2.392822644E-3,9.842576981E0,9.843133978E0
1.505543767E0,-1.166501045E-1,-7.178467698E-3,9.856933594E0,9.857626421E0
1.507967569E0,-1.190429255E-1,1.196411345E-2,9.849755287E0,9.850481896E0
1.510391423E0,-1.310070455E-1,4.785645287E-3,9.844969749E0,9.845842530E0
1.512814236E0,-1.022931710E-1,1.674975827E-2,9.854540825E0,9.855085962E0
1.515238038E0,-8.793623000E-2,2.392822644E-3,9.849755287E0,9.850148107E0
1.517661111E0,-9.032905847E-2,9.571290575E-3,9.835398674E0,9.835818117E0
1.520084600E0,-1.070788130E-1,4.785645287E-3,9.871291161E0,9.871873072E0
1.522507986E0,-1.166501045E-1,2.392822690E-2,9.828220367E0,9.828941723E0
1.524932100E0,-8.793623000E-2,-4.785645287E-3,9.837791443E0,9.838185613E0
1.527356006E0,-8.793623000E-2,-0.000000000E0,9.844969749E0,9.845362469E0
1.529779756E0,-9.990034252E-2,-4.785645287E-3,9.844969749E0,9.845477761E0
1.532203038E0,-9.990034252E-2,3.110669367E-2,9.856933594E0,9.857488908E0
1.534626267E0,-1.070788130E-1,-2.392822644E-3,9.859326363E0,9.859908109E0
1.537049809E0,-1.094716340E-1,1.196411345E-2,9.840184212E0,9.840800399E0
1.539473663E0,-1.190429255E-1,1.435693540E-2,9.842576981E0,9.843307318E0
1.541896840E0,-9.990034252E-2,9.571290575E-3,9.842576981E0,9.843088606E0
1.544320329E0,-1.046859920E-1,-2.392822644E-3,9.847362518E0,9.847919245E0
1.546744079E0,-1.070788130E-1,-7.178467698E-3,9.837791443E0,9.838376791E0
1.549167881E0,-1.214357466E-1,9.571290575E-3,9.849755287E0,9.850508488E0
1.551591579E0,-1.310070455E-1,1.914258115E-2,9.840184212E0,9.841074870E0
1.554015121E0,-1.022931710E-1,2.153540403E-2,9.852148056E0,9.852702623E0
1.556438350E0,-1.142572835E-1,-7.178467698E-3,9.859326363E0,9.859991003E0
1.558862152E0,-9.511470050E-2,4.546362907E-2,9.854540825E0,9.855104698E0
1.561285642E0,-8.554340899E-2,2.392822690E-2,9.864111900E0,9.864511839E0
1.563709756E0,-9.990034252E-2,1.674975827E-2,9.835398674E0,9.835920278E0
1.566133611E0,-1.070788130E-1,1.435693540E-2,9.837791443E0,9.838384647E0
1.568557465E0,-1.262213886E-1,-0.000000000E0,9.844969749E0,9.845778852E0
1.570981163E0,-1.118644550E-1,-7.178467698E-3,9.856933594E0,9.857570951E0
1.573405486E0,-1.238285750E-1,2.392822644E-3,9.868897438E0,9.869674558E0
1.575829913E0,-1.357926875E-1,4.785645287E-3,9.852148056E0,9.853084993E0
1.578253767E0,-9.990034252E-2,1.914258115E-2,9.847362518E0,9.847887849E0
1.580677777E0,-9.032905847E-2,-2.392822644E-3,9.837791443E0,9.838206419E0
1.583101684E0,-1.022931710E-1,-2.392822644E-3,9.837791443E0,9.838323541E0
1.585525381E0,-1.118644550E-1,1.196411345E-2,9.859326363E0,9.859968211E0
1.587950121E0,-1.238285750E-1,-2.392822644E-3,9.866504669E0,9.867281978E0
1.590374756E0,-1.046859920E-1,-0.000000000E0,9.844969749E0,9.845526320E0
1.592799079E0,-9.272187948E-2,1.435693540E-2,9.866504669E0,9.866950788E0
1.595222777E0,-9.750752151E-2,1.435693540E-2,9.849755287E0,9.850248375E0
1.597646371E0,-1.022931710E-1,-4.785645287E-3,9.866504669E0,9.867036089E0
1.600070121E0,-1.166501045E-1,-4.785645287E-3,9.859326363E0,9.860017570E0
1.602494236E0,-1.070788130E-1,2.392822690E-2,9.854540825E0,9.855151612E0
1.604918298E0,-9.750752151E-2,1.914258115E-2,9.840184212E0,9.840685925E0
1.607342465E0,-1.214357466E-1,1.914258115E-2,9.859326363E0,9.860092768E0
1.609766579E0,-1.262213886E-1,3.349951655E-2,9.849755287E0,9.850620959E0
1.612190642E0,-1.166501045E-1,1.914258115E-2,9.849755287E0,9.850464603E0
1.614614392E0,-1.262213886E-1,-4.785645287E-3,9.835398674E0,9.836209728E0
1.617038611E0,-1.022931710E-1,-7.178467698E-3,9.830613136E0,9.831147952E0
1.619462152E0,-1.142572835E-1,4.785645287E-3,9.842576981E0,9.843241298E0
1.621885225E0,-1.333998591E-1,-4.785645287E-3,9.840184212E0,9.841089561E0
1.624308767E0,-1.214357466E-1,-1.435693540E-2,9.859326363E0,9.860084639E0
1.626733090E0,-1.094716340E-1,1.196411345E-2,9.856933594E0,9.857548734E0
1.629156892E0,-8.075776696E-2,-1.435693540E-2,9.856933594E0,9.857274867E0
1.631581163E0,-1.046859920E-1,-2.392822644E-3,9.854540825E0,9.855097146E0
1.634004444E0,-1.046859920E-1,1.674975827E-2,9.864111900E0,9.864681611E0
1.636428038E0,-9.990034252E-2,2.392822690E-2,9.847362518E0,9.847898314E0
1.638851475E0,-1.046859920E-1,-4.785645287E-3,9.849755287E0,9.850312750E0
1.641275069E0,-9.032905847E-2,2.153540403E-2,9.856933594E0,9.857370998E0
1.643698819E0,-1.046859920E-1,2.392822644E-3,9.849755287E0,9.850311878E0
1.646122517E0,-1.046859920E-1,7.178467698E-3,9.871291161E0,9.871848857E0
1.648545486E0,-1.046859920E-1,1.196411345E-2,9.861719131E0,9.862282014E0
1.650968194E0,-1.262213886E-1,1.435693540E-2,9.828220367E0,9.829041334E0
1.653391475E0,-9.032905847E-2,-9.571290575E-3,9.837791443E0,9.838210784E0
1.655814600E0,-1.022931710E-1,7.178467698E-3,9.828220367E0,9.828755314E0
1.658238663E0,-9.511470050E-2,9.571290575E-3,9.847362518E0,9.847826511E0
1.660662777E0,-1.046859920E-1,-7.178467698E-3,9.830613136E0,9.831173141E0
1.663086684E0,-1.046859920E-1,9.571290575E-3,9.856933594E0,9.857494136E0
1.665511475E0,-1.070788130E-1,1.674975827E-2,9.835398674E0,9.835995806E0
1.667935538E0,-9.750752151E-2,2.392822644E-3,9.856933594E0,9.857416158E0
1.670359184E0,-8.793623000E-2,4.785645287E-3,9.866504669E0,9.866897692E0
1.672782829E0,-8.793623000E-2,2.392822690E-2,9.840184212E0,9.840606214E0
1.675206371E0,-1.070788130E-1,-1.914258115E-2,9.837791443E0,9.838392795E0
1.677630850E0,-1.262213886E-1,7.178467698E-3,9.842576981E0,9.843388898E0
1.680054756E0,-1.190429255E-1,1.674975827E-2,9.852148056E0,9.852881461E0
1.682478402E0,-9.750752151E-2,1.914258115E-2,9.859326363E0,9.859827102E0
1.684902256E0,-9.990034252E-2,1.435693540E-2,9.873683929E0,9.874199742E0
1.687326996E0,-1.094716340E-1,-1.674975827E-2,9.856933594E0,9.857555704E0
1.689751319E0,-1.022931710E-1,-1.914258115E-2,9.847362518E0,9.847912413E0
1.692175954E0,-1.094716340E-1,-1.674975827E-2,9.833005905E0,9.833629530E0
1.694600121E0,-1.094716340E-1,9.571290575E-3,9.842576981E0,9.843190401E0
1.697024184E0,-1.142572835E-1,9.571290575E-3,9.849755287E0,9.850422608E0
1.699448194E0,-1.214357466E-1,-7.178467698E-3,9.835398674E0,9.836150937E0
1.701871788E0,-1.022931710E-1,1.196411345E-2,9.842576981E0,9.843115800E0
1.704295486E0,-9.511470050E-2,-2.392822644E-3,9.849755287E0,9.850214807E0
1.706718767E0,-1.094716340E-1,-0.000000000E0,9.864111900E0,9.864719338E0
1.709142881E0,-1.022931710E-1,7.178467698E-3,9.847362518E0,9.847896425E0
1.711566944E0,-8.554340899E-2,2.392822644E-3,9.849755287E0,9.850127036E0
1.713991475E0,-1.070788130E-1,-4.785645287E-3,9.859326363E0,9.859908980E0
1.716414444E0,-1.046859920E-1,-2.392822644E-3,9.847362518E0,9.847919245E0
1.718837725E0,-1.118644550E-1,9.571290575E-3,9.847362518E0,9.848002530E0
1.721261631E0,-1.046859920E-1,1.914258115E-2,9.849755287E0,9.850330188E0
1.723685434E0,-1.094716340E-1,9.571290575E-3,9.854540825E0,9.855153500E0
1.726109288E0,-1.142572835E-1,-0.000000000E0,9.856933594E0,9.857595782E0
1.728533298E0,-9.990034252E-2,7.178467698E-3,9.840184212E0,9.840693925E0
1.730957256E0,-1.357926875E-1,2.392822644E-3,9.859326363E0,9.860261746E0
1.733380902E0,-1.094716340E-1,-1.674975827E-2,9.864111900E0,9.864733558E0
1.735804496E0,-1.094716340E-1,3.589234129E-2,9.854540825E0,9.855214212E0
1.738227986E0,-9.750752151E-2,2.392822644E-3,9.849755287E0,9.850238203E0
1.740651475E0,-9.511470050E-2,-1.674975827E-2,9.849755287E0,9.850228758E0
1.743075850E0,-9.032905847E-2,-9.571290575E-3,9.847362518E0,9.847781451E0
1.745499913E0,-1.022931710E-1,2.871387079E-2,9.840184212E0,9.840757781E0
1.747924340E0,-1.190429255E-1,7.178467698E-3,9.849755287E0,9.850477246E0
1.750348402E0,-1.118644550E-1,-0.000000000E0,9.849755287E0,9.850390493E0
1.752772986E0,-9.272187948E-2,-1.435693540E-2,9.856933594E0,9.857380146E0
1.755196423E0,-7.836493850E-2,-4.785645287E-3,9.844969749E0,9.845282796E0
1.757620538E0,-9.990034252E-2,-1.435693540E-2,9.859326363E0,9.859842926E0
1.760044444E0,-9.990034252E-2,9.571290575E-3,9.842576981E0,9.843088606E0
1.762468402E0,-9.511470050E-2,3.589234129E-2,9.847362518E0,9.847887268E0
1.764892881E0,-9.511470050E-2,9.571290575E-3,9.835398674E0,9.835863231E0
1.767316996E0,-7.118647546E-2,2.392822644E-3,9.854540825E0,9.854798228E0
1.769740746E0,-8.554340899E-2,7.178467698E-3,9.849755287E0,9.850129361E0
1.772165069E0,-1.118644550E-1,3.110669367E-2,9.854540825E0,9.855224815E0
1.774588715E0,-1.214357466E-1,2.392822644E-3,9.835398674E0,9.836148608E0
1.777013402E0,-1.070788130E-1,1.914258115E-2,9.859326363E0,9.859926401E0
1.779437361E0,-1.118644550E-1,7.178467698E-3,9.844969749E0,9.845607881E0
1.781861475E0,-1.142572835E-1,7.178467698E-3,9.852148056E0,9.852813181E0
1.784285121E0,-1.118644550E-1,-0.000000000E0,9.856933594E0,9.857568337E0
1.786708454E0,-1.046859920E-1,-7.178467698E-3,9.844969749E0,9.845528937E0
1.789132048E0,-9.272187948E-2,1.914258115E-2,9.844969749E0,9.845424986E0
1.791555486E0,-1.190429255E-1,1.674975827E-2,9.828220367E0,9.828955558E0
1.793979184E0,-1.190429255E-1,2.632104978E-2,9.854540825E0,9.855294967E0
1.796403090E0,-1.190429255E-1,1.435693540E-2,9.864111900E0,9.864840644E0
1.798827100E0,-9.272187948E-2,-2.392822644E-3,9.849755287E0,9.850191993E0
1.801250642E0,-1.022931710E-1,4.785645287E-3,9.844969749E0,9.845502332E0
1.803673559E0,-1.022931710E-1,2.153540403E-2,9.849755287E0,9.850309989E0
1.806097256E0,-9.990034252E-2,1.196411345E-2,9.828220367E0,9.828735362E0
1.808520538E0,-1.046859920E-1,-2.392822644E-3,9.844969749E0,9.845526611E0
1.810944444E0,-1.094716340E-1,4.785645287E-3,9.864111900E0,9.864720499E0
1.813368038E0,-1.142572835E-1,1.435693540E-2,9.835398674E0,9.836072790E0
1.815792309E0,-1.262213886E-1,1.914258115E-2,9.837791443E0,9.838619758E0
1.818215694E0,-1.262213886E-1,-0.000000000E0,9.878469467E0,9.879275826E0
1.820639131E0,-1.190429255E-1,9.571290575E-3,9.856933594E0,9.857657059E0
1.823062465E0,-1.142572835E-1,1.196411345E-2,9.856933594E0,9.857603042E0
1.825486423E0,-9.990034252E-2,4.785645287E-3,9.864111900E0,9.864618926E0
1.827910590E0,-1.262213886E-1,2.153540403E-2,9.844969749E0,9.845802404E0
1.830334444E0,-1.142572835E-1,2.632104978E-2,9.854540825E0,9.855238323E0
1.832757152E0,-9.032905847E-2,2.392822644E-3,9.835398674E0,9.835813751E0
1.835180798E0,-1.118644550E-1,-0.000000000E0,9.835398674E0,9.836034807E0
1.837604444E0,-9.511470050E-2,7.178467698E-3,9.856933594E0,9.857395103E0
1.840027777E0,-1.166501045E-1,2.153540403E-2,9.861719131E0,9.862432522E0
1.842450954E0,-1.022931710E-1,9.571290575E-3,9.847362518E0,9.847898460E0
1.844874600E0,-8.554340899E-2,-4.785645287E-3,9.861719131E0,9.862091300E0
1.847297986E0,-1.214357466E-1,9.571290575E-3,9.854540825E0,9.855293660E0
1.849721840E0,-9.032905847E-2,-1.435693540E-2,9.852148056E0,9.852572597E0
1.852145069E0,-1.022931710E-1,4.785645287E-3,9.859326363E0,9.859858169E0
1.854568715E0,-1.381855011E-1,2.392822644E-3,9.856933594E0,9.857902456E0
1.856991840E0,-1.070788130E-1,-4.785645287E-3,9.866504669E0,9.867086863E0
1.859415434E0,-9.511470050E-2,2.392822644E-3,9.837791443E0,9.838251522E0
1.861838663E0,-1.070788130E-1,-7.178467698E-3,9.835398674E0,9.835984164E0
1.864261684E0,-1.333998591E-1,2.392822644E-3,9.837791443E0,9.838696139E0
1.866684652E0,-1.118644550E-1,-1.435693540E-2,9.847362518E0,9.848008344E0
1.869108454E0,-1.094716340E-1,-0.000000000E0,9.861719131E0,9.862326717E0
1.871532204E0,-1.046859920E-1,-1.196411345E-2,9.852148056E0,9.852711485E0
1.873956736E0,-1.190429255E-1,-0.000000000E0,9.852148056E0,9.852867224E0
1.876380329E0,-1.118644550E-1,1.196411345E-2,9.849755287E0,9.850397759E0
1.878804340E0,-1.166501045E-1,1.914258115E-2,9.854540825E0,9.855249797E0
1.881228142E0,-1.214357466E-1,-0.000000000E0,9.844969749E0,9.845718664E0
1.883651579E0,-1.238285750E-1,4.785645287E-3,9.835398674E0,9.836179314E0
1.886075069E0,-1.022931710E-1,1.435693540E-2,9.852148056E0,9.852689548E0
1.888499392E0,-1.238285750E-1,1.196411345E-2,9.859326363E0,9.860111205E0
1.890923038E0,-9.032905847E-2,1.674975827E-2,9.861719131E0,9.862147034E0
1.893347361E0,-1.214357466E-1,7.178467698E-3,9.861719131E0,9.862469386E0
1.895771371E0,-1.118644550E-1,4.785645287E-3,9.859326363E0,9.859962114E0
1.898195642E0,-1.310070455E-1,-4.785645287E-3,9.844969749E0,9.845842530E0
1.900619756E0,-1.142572835E-1,-2.392822644E-3,9.840184212E0,9.840847818E0
1.903043611E0,-1.070788130E-1,2.392822644E-3,9.864111900E0,9.864693365E0
1.905466840E0,-1.046859920E-1,-2.392822644E-3,9.854540825E0,9.855097146E0
1.907890798E0,-1.022931710E-1,-1.674975827E-2,9.849755287E0,9.850300689E0
1.910314079E0,-1.046859920E-1,7.178467698E-3,9.859326363E0,9.859884736E0
1.912738402E0,-1.214357466E-1,2.871387079E-2,9.840184212E0,9.840975381E0
1.915161944E0,-1.166501045E-1,-0.000000000E0,9.833005905E0,9.833697798E0
1.917585746E0,-1.381855011E-1,2.153540403E-2,9.844969749E0,9.845963050E0
1.920009340E0,-9.272187948E-2,1.674975827E-2,9.861719131E0,9.862169241E0
1.922432881E0,-1.046859920E-1,2.153540403E-2,9.856933594E0,9.857513013E0
1.924856319E0,-1.094716340E-1,-2.392822644E-3,9.847362518E0,9.847971280E0
1.927280381E0,-1.094716340E-1,-1.435693540E-2,9.852148056E0,9.852766692E0
1.929703819E0,-1.214357466E-1,4.785645287E-3,9.859326363E0,9.860075348E0
1.932127517E0,-1.310070455E-1,9.571290575E-3,9.852148056E0,9.853023687E0
1.934551527E0,-1.166501045E-1,-1.196411345E-2,9.844969749E0,9.845668071E0
1.936975381E0,-1.286142170E-1,2.392822644E-3,9.854540825E0,9.855380369E0
1.939399131E0,-1.357926875E-1,-2.392822644E-3,9.840184212E0,9.841121415E0
1.941824288E0,-1.166501045E-1,-4.785645287E-3,9.852148056E0,9.852839767E0
1.944248142E0,-1.118644550E-1,4.785645287E-3,9.847362518E0,9.847999042E0
1.946671892E0,-9.750752151E-2,-1.435693540E-2,9.864111900E0,9.864604271E0
1.949095642E0,-1.046859920E-1,-4.785645287E-3,9.847362518E0,9.847920117E0
1.951519496E0,-1.046859920E-1,2.392822690E-2,9.842576981E0,9.843162771E0
1.953943402E0,-9.511470050E-2,2.392822690E-2,9.849755287E0,9.850243580E0
1.956367361E0,-1.094716340E-1,1.435693540E-2,9.859326363E0,9.859944548E0
1.958791319E0,-1.190429255E-1,1.435693540E-2,9.840184212E0,9.840914727E0
1.961215694E0,-1.022931710E-1,2.392822690E-2,9.856933594E0,9.857493410E0
1.963640173E0,-1.022931710E-1,7.178467698E-3,9.849755287E0,9.850289064E0
1.966063975E0,-1.166501045E-1,-0.000000000E0,9.854540825E0,9.855231206E0
1.968487934E0,-1.262213886E-1,1.914258115E-2,9.861719131E0,9.862545437E0
1.970911579E0,-9.750752151E-2,9.571290575E-3,9.866504669E0,9.866991118E0
1.973335381E0,-8.075776696E-2,-1.435693540E-2,9.854540825E0,9.854882181E0
1.975759496E0,-1.046859920E-1,9.571290575E-3,9.856933594E0,9.857494136E0
1.978183350E0,-1.190429255E-1,7.178467698E-3,9.837791443E0,9.838514279E0
1.980606892E0,-9.990034252E-2,-1.914258115E-2,9.849755287E0,9.850280490E0
1.983030850E0,-9.990034252E-2,9.571290575E-3,9.844969749E0,9.845481251E0
1.985454600E0,-8.793623000E-2,2.632104978E-2,9.859326363E0,9.859753643E0
1.987877569E0,-1.238285750E-1,-2.392822644E-3,9.835398674E0,9.836178441E0
1.990300798E0,-1.118644550E-1,-1.435693540E-2,9.837791443E0,9.838437897E0
1.992724600E0,-1.381855011E-1,2.392822644E-3,9.847362518E0,9.848332322E0
1.995148454E0,-1.214357466E-1,2.392822644E-3,9.854540825E0,9.855289302E0
1.997572361E0,-1.094716340E-1,9.571290575E-3,9.873683929E0,9.874295417E0
1.999996111E0,-1.022931710E-1,1.674975827E-2,9.859326363E0,9.859871235E0
2.002419652E0,-1.214357466E-1,4.785645287E-3,9.825826645E0,9.826578184E0
2.004843246E0,-1.142572835E-1,2.632104978E-2,9.842576981E0,9.843275326E0
2.007266111E0,-1.381855011E-1,1.196411345E-2,9.840184212E0,9.841161704E0
2.009689444E0,-1.286142170E-1,1.196411345E-2,9.844969749E0,9.845817088E0
2.012112361E0,-1.238285750E-1,7.178467698E-3,9.854540825E0,9.855321401E0
2.014535329E0,-1.238285750E-1,1.914258115E-2,9.852148056E0,9.852944802E0
2.016958246E0,-9.990034252E-2,4.785645287E-3,9.844969749E0,9.845477761E0
2.019381631E0,-1.357926875E-1,-1.196411345E-2,9.828220367E0,9.829165701E0
2.021805017E0,-1.094716340E-1,4.785645287E-3,9.837791443E0,9.838401670E0
2.024228402E0,-1.286142170E-1,1.196411345E-2,9.854540825E0,9.855387340E0
2.026652048E0,-9.990034252E-2,1.435693540E-2,9.842576981E0,9.843094423E0
2.029075954E0,-8.554340899E-2,-2.392822644E-3,9.856933594E0,9.857305071E0
2.031499027E0,-1.166501045E-1,7.178467698E-3,9.840184212E0,9.840878218E0
2.033922361E0,-1.046859920E-1,9.571290575E-3,9.844969749E0,9.845530973E0
2.036345850E0,-1.118644550E-1,-0.000000000E0,9.837791443E0,9.838427422E0
2.038769600E0,-1.142572835E-1,-7.178467698E-3,9.813862801E0,9.814530520E0
2.041192986E0,-9.990034252E-2,-7.178467698E-3,9.859326363E0,9.859835087E0
2.043616267E0,-1.070788130E-1,7.178467698E-3,9.856933594E0,9.857517805E0
2.046040069E0,-1.286142170E-1,1.674975827E-2,9.859326363E0,9.860179435E0
2.048464131E0,-1.477568001E-1,7.178467698E-3,9.844969749E0,9.846081097E0
2.050887465E0,-9.750752151E-2,-1.196411345E-2,9.859326363E0,9.859815778E0
2.053311006E0,-9.032905847E-2,1.914258115E-2,9.873683929E0,9.874115662E0
2.055734809E0,-1.142572835E-1,9.571290575E-3,9.876076698E0,9.876742241E0
2.058158246E0,-1.094716340E-1,7.178467698E-3,9.861719131E0,9.862329329E0
2.060582309E0,-9.990034252E-2,7.178467698E-3,9.847362518E0,9.847871860E0
2.063006267E0,-1.118644550E-1,-4.785645287E-3,9.864111900E0,9.864747343E0
2.065429079E0,-1.070788130E-1,-4.785645287E-3,9.842576981E0,9.843160590E0
2.067852673E0,-1.046859920E-1,1.196411345E-2,9.835398674E0,9.835963063E0
2.070276267E0,-1.070788130E-1,9.571290575E-3,9.856933594E0,9.857519838E0
2.072699652E0,-1.405783296E-1,-0.000000000E0,9.849755287E0,9.850758422E0
2.075123298E0,-1.190429255E-1,-4.785645287E-3,9.852148056E0,9.852868386E0
2.077546788E0,-1.262213886E-1,-1.674975827E-2,9.840184212E0,9.841007962E0
2.079970121E0,-9.990034252E-2,1.196411345E-2,9.837791443E0,9.838305936E0
2.082393923E0,-1.070788130E-1,-2.392822644E-3,9.849755287E0,9.850337599E0
2.084818142E0,-9.032905847E-2,1.196411345E-2,9.868897438E0,9.869318068E0
2.087241631E0,-1.262213886E-1,7.178467698E-3,9.868897438E0,9.869707190E0
2.089665486E0,-1.190429255E-1,-2.153540403E-2,9.852148056E0,9.852890759E0
2.092089548E0,-1.190429255E-1,-1.196411345E-2,9.849755287E0,9.850481896E0
2.094513350E0,-1.286142170E-1,9.571290575E-3,9.852148056E0,9.852992162E0
2.096937517E0,-1.190429255E-1,-0.000000000E0,9.828220367E0,9.828941286E0
2.099361319E0,-1.166501045E-1,1.674975827E-2,9.835398674E0,9.836104660E0
2.101785486E0,-1.094716340E-1,4.785645287E-3,9.847362518E0,9.847972152E0
2.104209340E0,-1.046859920E-1,-0.000000000E0,9.854540825E0,9.855096855E0
2.106633142E0,-9.032905847E-2,-2.392822644E-3,9.852148056E0,9.852562427E0
2.109056527E0,-1.046859920E-1,2.392822644E-3,9.868897438E0,9.869452950E0
2.111480434E0,-9.750752151E-2,7.178467698E-3,9.866504669E0,9.866989087E0
2.113903506E0,-1.046859920E-1,-0.000000000E0,9.849755287E0,9.850311588E0
2.116327204E0,-9.272187948E-2,-7.178467698E-3,9.859326363E0,9.859764967E0
2.118750173E0,-1.022931710E-1,2.632104978E-2,9.864111900E0,9.864677403E0
2.121173559E0,-1.118644550E-1,9.571290575E-3,9.833005905E0,9.833646851E0
2.123596892E0,-1.214357466E-1,2.392822690E-2,9.837791443E0,9.838570001E0
2.126020954E0,-1.094716340E-1,-7.178467698E-3,9.847362518E0,9.847973606E0
2.128444861E0,-1.094716340E-1,-2.392822690E-2,9.830613136E0,9.831251763E0
2.130868871E0,-1.070788130E-1,7.178467698E-3,9.844969749E0,9.845554671E0
2.133292361E0,-9.272187948E-2,2.153540403E-2,9.835398674E0,9.835859301E0
2.135716631E0,-1.094716340E-1,2.392822644E-3,9.840184212E0,9.840793417E0
2.138140069E0,-1.094716340E-1,-0.000000000E0,9.837791443E0,9.838400506E0
2.140563715E0,-1.166501045E-1,1.435693540E-2,9.835398674E0,9.836100876E0
2.142987413E0,-1.357926875E-1,-0.000000000E0,9.818648338E0,9.819587305E0
2.145410954E0,-1.262213886E-1,2.392822644E-3,9.854540825E0,9.855349432E0
2.147834548E0,-1.070788130E-1,2.392822644E-3,9.849755287E0,9.850337599E0
2.150258454E0,-1.262213886E-1,2.392822644E-3,9.844969749E0,9.845779143E0
2.152683090E0,-1.046859920E-1,-1.196411345E-2,9.849755287E0,9.850318853E0
2.155106996E0,-1.094716340E-1,-1.435693540E-2,9.864111900E0,9.864729786E0
2.157530121E0,-1.190429255E-1,1.435693540E-2,9.844969749E0,9.845699909E0
2.159953246E0,-9.750752151E-2,-9.571290575E-3,9.847362518E0,9.847849912E0
2.162376163E0,-9.511470050E-2,-0.000000000E0,9.864111900E0,9.864570461E0
2.164798663E0,-1.046859920E-1,-7.178467698E-3,9.861719131E0,9.862277370E0
2.167221736E0,-1.094716340E-1,-2.392822644E-3,9.856933594E0,9.857541764E0
2.169644444E0,-1.190429255E-1,-2.392822644E-3,9.866504669E0,9.867223081E0
2.172068194E0,-1.022931710E-1,1.435693540E-2,9.849755287E0,9.850296911E0
2.174492309E0,-1.118644550E-1,9.571290575E-3,9.830613136E0,9.831254238E0
2.176914965E0,-1.094716340E-1,-9.571290575E-3,9.852148056E0,9.852760880E0
2.179339027E0,-9.511470050E-2,4.785645287E-3,9.859326363E0,9.859786308E0
2.181762048E0,-9.990034252E-2,-9.571290575E-3,9.852148056E0,9.852659185E0
2.184185538E0,-1.046859920E-1,3.110669367E-2,9.840184212E0,9.840790217E0
2.186608819E0,-9.750752151E-2,7.178467698E-3,9.828220367E0,9.828706672E0
2.189032517E0,-1.190429255E-1,2.392822644E-3,9.859326363E0,9.860045297E0
2.191456527E0,-1.094716340E-1,2.153540403E-2,9.842576981E0,9.843209305E0
2.193880277E0,-1.262213886E-1,1.196411345E-2,9.864111900E0,9.864926688E0
2.196303454E0,-1.166501045E-1,1.674975827E-2,9.849755287E0,9.850460244E0
2.198726996E0,-9.990034252E-2,-2.392822644E-3,9.859326363E0,9.859832764E0
2.201150017E0,-9.990034252E-2,1.914258115E-2,9.861719131E0,9.862243697E0
2.203573611E0,-1.070788130E-1,-0.000000000E0,9.871291161E0,9.871871912E0
2.205997048E0,-1.238285750E-1,1.435693540E-2,9.854540825E0,9.855329244E0
2.208420902E0,-1.094716340E-1,-0.000000000E0,9.854540825E0,9.855148853E0
2.210844704E0,-8.554340899E-2,-4.785645287E-3,9.859326363E0,9.859698621E0
2.213268402E0,-1.022931710E-1,-9.571290575E-3,9.833005905E0,9.833542629E0
2.215692152E0,-1.142572835E-1,9.571290575E-3,9.864111900E0,9.864778250E0
2.218115798E0,-1.310070455E-1,2.153540403E-2,9.864111900E0,9.865005332E0
2.220539079E0,-8.554340899E-2,2.392822644E-3,9.847362518E0,9.847734357E0
2.222962309E0,-9.511470050E-2,7.178467698E-3,9.849755287E0,9.850217132E0
2.225385746E0,-1.166501045E-1,2.392822644E-3,9.847362518E0,9.848053693E0
2.227809496E0,-1.094716340E-1,-9.571290575E-3,9.856933594E0,9.857546121E0
2.230232934E0,-1.357926875E-1,1.914258115E-2,9.871291161E0,9.872243680E0
2.232656267E0,-1.262213886E-1,-0.000000000E0,9.861719131E0,9.862526860E0
2.235079131E0,-1.046859920E-1,2.392822644E-3,9.828220367E0,9.828778178E0
2.237502517E0,-9.750752151E-2,7.178467698E-3,9.844969749E0,9.845455226E0
2.239925225E0,-9.750752151E-2,2.392822690E-2,9.844969749E0,9.845481687E0
2.242348663E0,-1.166501045E-1,2.632104978E-2,9.856933594E0,9.857658947E0
2.244772048E0,-1.118644550E-1,3.349951655E-2,9.835398674E0,9.836091854E0
2.247195954E0,-1.118644550E-1,2.632104978E-2,9.868897438E0,9.869566510E0
2.249619756E0,-1.166501045E-1,1.914258115E-2,9.842576981E0,9.843286814E0
2.252043663E0,-9.272187948E-2,1.435693540E-2,9.854540825E0,9.854987485E0
2.254467621E0,-1.166501045E-1,1.435693540E-2,9.849755287E0,9.850456466E0
2.256891840E0,-1.022931710E-1,9.571290575E-3,9.835398674E0,9.835935267E0
2.259315486E0,-1.310070455E-1,-2.392822644E-3,9.818648338E0,9.819522583E0
2.261739340E0,-1.262213886E-1,4.785645287E-3,9.844969749E0,9.845780015E0
2.264162934E0,-1.214357466E-1,9.571290575E-3,9.842576981E0,9.843330730E0
2.266586527E0,-1.046859920E-1,2.392822644E-3,9.854540825E0,9.855097146E0
2.269010225E0,-1.310070455E-1,7.178467698E-3,9.852148056E0,9.853021653E0
2.271434184E0,-1.070788130E-1,-2.392822644E-3,9.844969749E0,9.845552344E0
2.273858090E0,-1.190429255E-1,-2.392822644E-3,9.864111900E0,9.864830486E0
2.276282100E0,-1.262213886E-1,-4.785645287E-3,9.854540825E0,9.855350304E0
2.278706579E0,-1.238285750E-1,1.196411345E-2,9.840184212E0,9.840970581E0
2.281130538E0,-1.022931710E-1,-1.196411345E-2,9.856933594E0,9.857471628E0
2.283554131E0,-8.075776696E-2,-7.178467698E-3,9.866504669E0,9.866837778E0
2.285977465E0,-9.032905847E-2,2.392822644E-3,9.842576981E0,9.842991755E0
2.288400590E0,-1.022931710E-1,7.178467698E-3,9.847362518E0,9.847896425E0
2.290824965E0,-1.166501045E-1,1.674975827E-2,9.844969749E0,9.845675049E0
2.293249184E0,-1.238285750E-1,4.785645287E-3,9.861719131E0,9.862497688E0
2.295672569E0,-9.990034252E-2,-4.785645287E-3,9.844969749E0,9.845477761E0
2.298096788E0,-8.793623000E-2,4.785645287E-3,9.847362518E0,9.847756305E0
2.300521059E0,-1.046859920E-1,7.178467698E-3,9.856933594E0,9.857492103E0
2.302944392E0,-1.262213886E-1,2.392822644E-3,9.852148056E0,9.852956860E0
2.305367777E0,-1.070788130E-1,2.632104978E-2,9.833005905E0,9.833624144E0
2.307791423E0,-9.032905847E-2,7.178467698E-3,9.837791443E0,9.838208747E0
2.310215381E0,-9.990034252E-2,2.392822644E-3,9.852148056E0,9.852654826E0
2.312638038E0,-9.990034252E-2,-7.178467698E-3,9.868897438E0,9.869405669E0
2.315061631E0,-1.238285750E-1,-7.178467698E-3,9.847362518E0,9.848143663E0
2.317485225E0,-8.554340899E-2,7.178467698E-3,9.837791443E0,9.838165971E0
2.319908975E0,-1.214357466E-1,-1.435693540E-2,9.856933594E0,9.857692054E0
2.322332204E0,-1.094716340E-1,-0.000000000E0,9.842576981E0,9.843185747E0
2.324755277E0,-1.262213886E-1,-4.785645287E-3,9.859326363E0,9.860135449E0
2.327179079E0,-1.094716340E-1,1.914258115E-2,9.856933594E0,9.857560061E0
2.329602465E0,-1.094716340E-1,2.153540403E-2,9.871291161E0,9.871921646E0
2.332025694E0,-1.094716340E-1,2.153540403E-2,9.849755287E0,9.850387151E0
2.334449027E0,-1.310070455E-1,1.435693540E-2,9.844969749E0,9.845851834E0
2.336872517E0,-1.238285750E-1,-0.000000000E0,9.849755287E0,9.850533627E0
2.339295798E0,-9.511470050E-2,1.196411345E-2,9.852148056E0,9.852614438E0
2.341720069E0,-1.166501045E-1,2.392822690E-2,9.847362518E0,9.848082472E0
2.344143559E0,-1.070788130E-1,-1.196411345E-2,9.847362518E0,9.847951948E0
2.346567309E0,-9.272187948E-2,9.571290575E-3,9.871291161E0,9.871731263E0
2.348991111E0,-1.142572835E-1,1.435693540E-2,9.849755287E0,9.850428420E0
2.351415173E0,-1.094716340E-1,1.196411345E-2,9.854540825E0,9.855156115E0
2.353838767E0,-1.142572835E-1,1.435693540E-2,9.844969749E0,9.845643210E0
2.356262465E0,-1.166501045E-1,7.178467698E-3,9.823433876E0,9.824129065E0
2.358685798E0,-1.238285750E-1,1.196411345E-2,9.861719131E0,9.862503784E0
2.361109392E0,-1.118644550E-1,1.914258115E-2,9.840184212E0,9.840838654E0
2.363532725E0,-1.190429255E-1,-0.000000000E0,9.852148056E0,9.852867224E0
2.365955798E0,-1.262213886E-1,-4.785645287E-3,9.842576981E0,9.843387443E0
2.368379131E0,-1.166501045E-1,4.785645287E-3,9.852148056E0,9.852839767E0
2.370802413E0,-1.214357466E-1,1.196411345E-2,9.864111900E0,9.864866617E0
2.373225902E0,-1.214357466E-1,3.349951655E-2,9.861719131E0,9.862523667E0
2.375649913E0,-1.046859920E-1,-2.392822644E-3,9.844969749E0,9.845526611E0
2.378073767E0,-9.511470050E-2,1.674975827E-2,9.837791443E0,9.838265489E0
2.380497100E0,-1.238285750E-1,1.914258115E-2,9.842576981E0,9.843374501E0
2.382921111E0,-9.750752151E-2,-7.178467698E-3,9.840184212E0,9.840669925E0
2.385344288E0,-1.070788130E-1,-2.392822644E-3,9.859326363E0,9.859908109E0
2.387768454E0,-1.262213886E-1,2.392822644E-3,9.852148056E0,9.852956860E0
2.390192256E0,-1.094716340E-1,1.914258115E-2,9.840184212E0,9.840811745E0
2.392615694E0,-8.793623000E-2,1.196411345E-2,9.847362518E0,9.847762410E0
2.395038350E0,-1.070788130E-1,-0.000000000E0,9.866504669E0,9.867085702E0
2.397461944E0,-8.793623000E-2,-7.178467698E-3,9.828220367E0,9.828616378E0
2.399885954E0,-1.046859920E-1,2.392822644E-3,9.840184212E0,9.840741344E0
2.402309548E0,-1.046859920E-1,-7.178467698E-3,9.852148056E0,9.852706836E0
2.404732777E0,-1.094716340E-1,4.785645287E-3,9.849755287E0,9.850364773E0
2.407155902E0,-1.142572835E-1,1.914258115E-2,9.859326363E0,9.860006972E0
2.409579913E0,-9.750752151E-2,1.674975827E-2,9.873683929E0,9.874179592E0
2.412003142E0,-9.990034252E-2,4.785645287E-3,9.856933594E0,9.857440989E0
2.414426006E0,-9.032905847E-2,-4.785645287E-3,9.847362518E0,9.847777963E0
2.416849392E0,-1.070788130E-1,-1.196411345E-2,9.856933594E0,9.857522452E0
2.419272413E0,-1.046859920E-1,-0.000000000E0,9.830613136E0,9.831170520E0
2.421695434E0,-9.750752151E-2,1.435693540E-2,9.849755287E0,9.850248375E0
2.424119392E0,-1.166501045E-1,-0.000000000E0,9.859326363E0,9.860016408E0
2.426543038E0,-1.357926875E-1,-7.178467698E-3,9.861719131E0,9.862656610E0
2.428965746E0,-1.333998591E-1,-3.110669367E-2,9.842576981E0,9.843530097E0
2.431389184E0,-1.022931710E-1,1.914258115E-2,9.844969749E0,9.845519778E0
2.433812256E0,-1.214357466E-1,-1.435693540E-2,9.849755287E0,9.850514300E0
2.436235173E0,-1.070788130E-1,4.785645287E-3,9.878469467E0,9.879050956E0
2.438657934E0,-9.750752151E-2,-0.000000000E0,9.828220367E0,9.828704050E0
2.441081267E0,-1.333998591E-1,-9.571290575E-3,9.849755287E0,9.850663244E0
2.443504496E0,-1.094716340E-1,-9.571290575E-3,9.854540825E0,9.855153500E0
2.445927829E0,-1.238285750E-1,2.632104978E-2,9.859326363E0,9.860139078E0
2.448351736E0,-1.357926875E-1,9.571290575E-3,9.835398674E0,9.836340699E0
2.450774965E0,-1.046859920E-1,-2.392822644E-3,9.825826645E0,9.826384591E0
2.453198611E0,-1.238285750E-1,9.571290575E-3,9.854540825E0,9.855323434E0
2.455621684E0,-1.022931710E-1,1.674975827E-2,9.859326363E0,9.859871235E0
2.458044913E0,-1.214357466E-1,-0.000000000E0,9.842576981E0,9.843326077E0
2.460468715E0,-9.032905847E-2,2.392822644E-3,9.854540825E0,9.854955095E0
2.462892361E0,-1.046859920E-1,2.392822690E-2,9.861719131E0,9.862303785E0
2.465315694E0,-9.272187948E-2,2.871387079E-2,9.835398674E0,9.835877638E0
2.467739756E0,-9.750752151E-2,-2.392822644E-3,9.859326363E0,9.859808810E0
2.470163663E0,-1.166501045E-1,-1.435693540E-2,9.854540825E0,9.855241663E0
2.472587517E0,-9.990034252E-2,4.785645287E-3,9.842576981E0,9.843085116E0
2.475011267E0,-1.094716340E-1,2.392822644E-3,9.856933594E0,9.857541764E0
2.477434496E0,-9.272187948E-2,9.571290575E-3,9.844969749E0,9.845411029E0
2.479858663E0,-9.032905847E-2,1.435693540E-2,9.866504669E0,9.866928592E0
2.482282829E0,-8.793623000E-2,-2.392822644E-3,9.833005905E0,9.833399394E0
2.484706944E0,-9.750752151E-2,2.392822644E-3,9.849755287E0,9.850238203E0
2.487130850E0,-1.429711580E-1,1.196411345E-2,9.840184212E0,9.841230066E0
2.489554444E0,-1.166501045E-1,1.196411345E-2,9.844969749E0,9.845668071E0
2.491978194E0,-1.070788130E-1,2.871387079E-2,9.844969749E0,9.845593925E0
2.494401684E0,-1.022931710E-1,1.435693540E-2,9.849755287E0,9.850296911E0
2.496825069E0,-1.238285750E-1,1.914258115E-2,9.852148056E0,9.852944802E0
2.499248038E0,-9.990034252E-2,-2.392822644E-3,9.866504669E0,9.867010702E0
2.501671215E0,-8.554340899E-2,-2.153540403E-2,9.842576981E0,9.842972268E0
2.504095329E0,-9.032905847E-2,9.571290575E-3,9.849755287E0,9.850174119E0
2.506518715E0,-1.118644550E-1,1.674975827E-2,9.849755287E0,9.850404734E0
2.508942152E0,-1.046859920E-1,1.435693540E-2,9.854540825E0,9.855107313E0
2.511366006E0,-1.046859920E-1,2.392822644E-3,9.835398674E0,9.835956078E0
2.513790277E0,-1.310070455E-1,4.785645287E-3,9.854540825E0,9.855412757E0
2.516214288E0,-1.118644550E-1,-2.392822644E-3,9.844969749E0,9.845605555E0
2.518637361E0,-1.118644550E-1,-4.785645287E-3,9.856933594E0,9.857569499E0
2.521061059E0,-1.070788130E-1,-2.392822644E-3,9.866504669E0,9.867085993E0
2.523484652E0,-1.357926875E-1,1.196411345E-2,9.840184212E0,9.841128396E0
2.525908350E0,-1.286142170E-1,2.392822644E-3,9.847362518E0,9.848202674E0
2.528331579E0,-1.190429255E-1,1.435693540E-2,9.852148056E0,9.852877684E0
2.530754184E0,-1.142572835E-1,3.828516230E-2,9.852148056E0,9.852884948E0
2.533177361E0,-1.070788130E-1,1.435693540E-2,9.861719131E0,9.862310897E0
2.535601006E0,-1.142572835E-1,9.571290575E-3,9.852148056E0,9.852815215E0
2.538024861E0,-9.990034252E-2,4.785645287E-3,9.859326363E0,9.859833635E0
2.540448090E0,-1.070788130E-1,-2.392822644E-3,9.844969749E0,9.845552344E0
2.542871736E0,-1.094716340E-1,4.785645287E-3,9.873683929E0,9.874291938E0
2.545294965E0,-1.286142170E-1,-2.392822644E-3,9.864111900E0,9.864950630E0
2.547718559E0,-1.094716340E-1,7.178467698E-3,9.856933594E0,9.857544088E0
2.550142256E0,-1.142572835E-1,1.914258115E-2,9.840184212E0,9.840866145E0
2.552565486E0,-1.022931710E-1,4.785645287E-3,9.844969749E0,9.845502332E0
2.554989756E0,-1.190429255E-1,-9.571290575E-3,9.844969749E0,9.845694094E0
2.557412881E0,-1.094716340E-1,2.392822644E-3,9.864111900E0,9.864719628E0
2.559836371E0,-9.990034252E-2,2.632104978E-2,9.852148056E0,9.852689693E0
2.562259652E0,-1.357926875E-1,-0.000000000E0,9.861719131E0,9.862653998E0
2.564683142E0,-1.310070455E-1,7.178467698E-3,9.859326363E0,9.860199324E0
2.567106684E0,-1.262213886E-1,-1.435693540E-2,9.835398674E0,9.836219042E0
2.569530746E0,-1.022931710E-1,-1.674975827E-2,9.866504669E0,9.867049145E0
2.571954184E0,-1.190429255E-1,7.178467698E-3,9.864111900E0,9.864832808E0
2.574376788E0,-1.238285750E-1,1.914258115E-2,9.856933594E0,9.857729953E0
2.576800277E0,-1.310070455E-1,1.435693540E-2,9.852148056E0,9.853029498E0
2.579223298E0,-8.315058798E-2,2.153540403E-2,9.844969749E0,9.845344441E0
2.581646111E0,-8.554340899E-2,2.871387079E-2,9.844969749E0,9.845383260E0
2.584069288E0,-9.511470050E-2,4.785645287E-3,9.847362518E0,9.847823022E0
2.586492986E0,-1.094716340E-1,7.178467698E-3,9.852148056E0,9.852758846E0
2.588916111E0,-8.554340899E-2,-2.153540403E-2,9.849755287E0,9.850150286E0
2.591339756E0,-1.094716340E-1,1.196411345E-2,9.847362518E0,9.847978257E0
2.593763038E0,-1.070788130E-1,9.571290575E-3,9.849755287E0,9.850341958E0
2.596186163E0,-8.554340899E-2,2.392822644E-3,9.859326363E0,9.859697750E0
2.598609548E0,-1.070788130E-1,-1.196411345E-2,9.847362518E0,9.847951948E0
2.601033350E0,-1.286142170E-1,-0.000000000E0,9.830613136E0,9.831454432E0
2.603456684E0,-1.118644550E-1,4.785645287E-3,9.849755287E0,9.850391656E0
2.605880277E0,-1.262213886E-1,-7.178467698E-3,9.849755287E0,9.850566612E0
2.608302986E0,-9.990034252E-2,-1.674975827E-2,9.856933594E0,9.857454058E0
2.610726579E0,-1.070788130E-1,-0.000000000E0,9.825826645E0,9.826410083E0
2.613150121E0,-1.166501045E-1,4.785645287E-3,9.833005905E0,9.833698962E0
2.615573715E0,-1.142572835E-1,-0.000000000E0,9.849755287E0,9.850417958E0
2.617997517E0,-1.022931710E-1,-1.674975827E-2,9.830613136E0,9.831159600E0
2.620420746E0,-1.166501045E-1,-7.178467698E-3,9.856933594E0,9.857626421E0
2.622843819E0,-1.286142170E-1,-4.785645287E-3,9.849755287E0,9.850596111E0
2.625267256E0,-9.750752151E-2,-2.392822644E-3,9.847362518E0,9.847845552E0
2.627690329E0,-9.272187948E-2,-1.196411345E-2,9.866504669E0,9.866947597E0
2.630113298E0,-1.166501045E-1,-0.000000000E0,9.840184212E0,9.840875600E0
2.632536631E0,-1.190429255E-1,-2.392822644E-3,9.840184212E0,9.840904545E0
2.634959652E0,-1.142572835E-1,-2.632104978E-2,9.835398674E0,9.836097529E0
2.637382986E0,-1.118644550E-1,-9.571290575E-3,9.854540825E0,9.855180371E0
2.639806527E0,-1.046859920E-1,-1.196411345E-2,9.849755287E0,9.850318853E0
2.642229652E0,-1.094716340E-1,-7.178467698E-3,9.840184212E0,9.840795745E0
2.644652881E0,-1.142572835E-1,1.435693540E-2,9.852148056E0,9.852821026E0
2.647076059E0,-1.046859920E-1,-2.392822644E-3,9.864111900E0,9.864667681E0
2.649499756E0,-1.118644550E-1,1.674975827E-2,9.866504669E0,9.867153014E0
2.651923715E0,-1.070788130E-1,2.392822644E-3,9.852148056E0,9.852730226E0
2.654347413E0,-1.190429255E-1,1.914258115E-2,9.866504669E0,9.867241359E0
2.656770173E0,-1.046859920E-1,-2.392822644E-3,9.852148056E0,9.852704512E0
2.659194027E0,-1.166501045E-1,1.196411345E-2,9.830613136E0,9.831312477E0
2.661617777E0,-1.333998591E-1,-1.196411345E-2,9.847362518E0,9.848273312E0
2.664040954E0,-1.238285750E-1,-1.914258115E-2,9.854540825E0,9.855337377E0
2.666463975E0,-1.142572835E-1,4.785645287E-3,9.847362518E0,9.848026513E0
2.668887256E0,-1.333998591E-1,-0.000000000E0,9.859326363E0,9.860228793E0
2.671310277E0,-1.381855011E-1,2.153540403E-2,9.856933594E0,9.857925688E0
2.673733663E0,-1.214357466E-1,2.392822644E-3,9.842576981E0,9.843326368E0
2.676156423E0,-1.262213886E-1,2.153540403E-2,9.866504669E0,9.867335507E0
2.678580225E0,-1.070788130E-1,-0.000000000E0,9.849755287E0,9.850337308E0
2.681003819E0,-1.046859920E-1,1.196411345E-2,9.861719131E0,9.862282014E0
2.683427881E0,-9.272187948E-2,1.435693540E-2,9.859326363E0,9.859772806E0
2.685851527E0,-1.094716340E-1,7.178467698E-3,9.849755287E0,9.850366226E0
2.688274392E0,-6.640082598E-2,1.196411345E-2,9.833005905E0,9.833237378E0
2.690697256E0,-1.166501045E-1,-4.785645287E-3,9.842576981E0,9.843269364E0
2.693121423E0,-8.793623000E-2,-1.196411345E-2,9.842576981E0,9.842977067E0
2.695544809E0,-1.190429255E-1,-2.392822644E-3,9.821041107E0,9.821762844E0
2.697968454E0,-1.046859920E-1,-0.000000000E0,9.861719131E0,9.862274757E0
2.700391527E0,-8.315058798E-2,-7.178467698E-3,9.840184212E0,9.840538139E0
2.702814756E0,-1.094716340E-1,-2.153540403E-2,9.852148056E0,9.852779767E0
2.705237881E0,-1.022931710E-1,7.178467698E-3,9.854540825E0,9.855074342E0
2.707661423E0,-1.070788130E-1,1.196411345E-2,9.859326363E0,9.859915078E0
2.710083923E0,-1.142572835E-1,2.392822644E-3,9.852148056E0,9.852810856E0
2.712507204E0,-9.511470050E-2,1.914258115E-2,9.856933594E0,9.857411076E0
2.714930538E0,-9.272187948E-2,-4.785645287E-3,9.871291161E0,9.871727783E0
2.717353246E0,-9.511470050E-2,-1.196411345E-2,9.854540825E0,9.855007094E0
2.719776579E0,-1.118644550E-1,2.153540403E-2,9.854540825E0,9.855199252E0
2.722200381E0,-1.166501045E-1,-7.178467698E-3,9.854540825E0,9.855233820E0
2.724624027E0,-9.750752151E-2,1.914258115E-2,9.854540825E0,9.855041807E0
2.727047256E0,-1.142572835E-1,7.178467698E-3,9.830613136E0,9.831279718E0
2.729471059E0,-1.022931710E-1,-1.674975827E-2,9.866504669E0,9.867049145E0
2.731894809E0,-9.990034252E-2,1.674975827E-2,9.833005905E0,9.833527636E0
2.734318715E0,-1.286142170E-1,4.785645287E-3,9.854540825E0,9.855381240E0
2.736742986E0,-1.070788130E-1,1.435693540E-2,9.871291161E0,9.871882352E0
2.739166788E0,-1.094716340E-1,1.196411345E-2,9.852148056E0,9.852763495E0
2.741590694E0,-1.214357466E-1,-1.674975827E-2,9.859326363E0,9.860088413E0
2.744014756E0,-9.990034252E-2,-9.571290575E-3,9.878469467E0,9.878979234E0
2.746438819E0,-1.262213886E-1,-1.196411345E-2,9.837791443E0,9.838608410E0
2.748862986E0,-1.070788130E-1,-1.674975827E-2,9.876076698E0,9.876671371E0
2.751286631E0,-1.238285750E-1,-1.914258115E-2,9.861719131E0,9.862515104E0
2.753710642E0,-9.990034252E-2,-2.392822644E-3,9.868897438E0,9.869403348E0
2.756133454E0,-1.070788130E-1,1.196411345E-2,9.852148056E0,9.852737200E0
2.758557204E0,-1.166501045E-1,2.153540403E-2,9.849755287E0,9.850469544E0
2.760981111E0,-1.214357466E-1,-2.392822644E-3,9.856933594E0,9.857681890E0
2.763404340E0,-1.070788130E-1,4.785645287E-3,9.866504669E0,9.867086863E0
2.765828090E0,-1.238285750E-1,-2.392822644E-3,9.837791443E0,9.838571020E0
2.768251631E0,-1.166501045E-1,-1.196411345E-2,9.844969749E0,9.845668071E0
2.770675486E0,-1.070788130E-1,1.435693540E-2,9.844969749E0,9.845562521E0
2.773098975E0,-1.286142170E-1,1.196411345E-2,9.844969749E0,9.845817088E0
2.775523090E0,-1.262213886E-1,7.178467698E-3,9.847362518E0,9.848174041E0
2.777946423E0,-1.142572835E-1,-2.392822644E-3,9.840184212E0,9.840847818E0
2.780369340E0,-8.075776696E-2,2.392822644E-3,9.852148056E0,9.852479326E0
2.782792829E0,-1.118644550E-1,1.196411345E-2,9.840184212E0,9.840827309E0
2.785215746E0,-1.190429255E-1,1.435693540E-2,9.844969749E0,9.845699909E0
2.787639548E0,-1.190429255E-1,1.196411345E-2,9.868897438E0,9.869622637E0
2.790063454E0,-1.022931710E-1,-1.196411345E-2,9.864111900E0,9.864649543E0
2.792487256E0,-1.238285750E-1,1.196411345E-2,9.866504669E0,9.867288941E0
2.794910434E0,-9.750752151E-2,1.914258115E-2,9.861719131E0,9.862219749E0
2.797334131E0,-1.166501045E-1,-9.571290575E-3,9.861719131E0,9.862413654E0
2.799757621E0,-1.094716340E-1,7.178467698E-3,9.854540825E0,9.855151467E0
2.802181527E0,-1.310070455E-1,7.178467698E-3,9.852148056E0,9.853021653E0
2.804604965E0,-1.094716340E-1,2.153540403E-2,9.849755287E0,9.850387151E0
2.807028819E0,-1.166501045E-1,7.178467698E-3,9.844969749E0,9.845663418E0
2.809452204E0,-1.070788130E-1,2.392822644E-3,9.823433876E0,9.824017748E0
2.811875381E0,-9.511470050E-2,-2.392822644E-3,9.852148056E0,9.852607465E0
2.814298559E0,-1.094716340E-1,1.674975827E-2,9.859326363E0,9.859948322E0
2.816721684E0,-8.793623000E-2,1.674975827E-2,9.849755287E0,9.850162057E0
2.819145225E0,-9.750752151E-2,2.392822644E-3,9.847362518E0,9.847845552E0
2.821568871E0,-1.262213886E-1,-7.178467698E-3,9.842576981E0,9.843388898E0
2.823991996E0,-1.381855011E-1,-4.785645287E-3,9.871291161E0,9.872259484E0
2.826415173E0,-1.190429255E-1,1.196411345E-2,9.840184212E0,9.840911527E0
2.828838975E0,-1.022931710E-1,-2.392822644E-3,9.849755287E0,9.850286739E0
2.831262309E0,-1.094716340E-1,4.785645287E-3,9.830613136E0,9.831223809E0
2.833686527E0,-1.022931710E-1,1.196411345E-2,9.835398674E0,9.835937887E0
2.836110486E0,-1.118644550E-1,1.674975827E-2,9.828220367E0,9.828871237E0
2.838534809E0,-1.190429255E-1,4.785645287E-3,9.856933594E0,9.857653574E0
2.840959184E0,-1.333998591E-1,1.674975827E-2,9.854540825E0,9.855457927E0
2.843382621E0,-1.070788130E-1,2.392822644E-3,9.849755287E0,9.850337599E0
2.845805798E0,-8.075776696E-2,7.178467698E-3,9.852148056E0,9.852481650E0
2.848229548E0,-1.214357466E-1,7.178467698E-3,9.825826645E0,9.826579640E0
2.850653194E0,-9.990034252E-2,2.392822644E-3,9.849755287E0,9.850262180E0
2.853076631E0,-8.554340899E-2,-9.571290575E-3,9.844969749E0,9.845346040E0
2.855500798E0,-1.214357466E-1,-4.785645287E-3,9.854540825E0,9.855290174E0
2.857924027E0,-8.315058798E-2,-2.392822644E-3,9.854540825E0,9.854891913E0
2.860347934E0,-1.286142170E-1,-9.571290575E-3,9.842576981E0,9.843421907E0
2.862771371E0,-1.142572835E-1,2.392822644E-3,9.840184212E0,9.840847818E0
2.865194913E0,-1.118644550E-1,-9.571290575E-3,9.844969749E0,9.845609917E0
2.867618767E0,-8.075776696E-2,1.435693540E-2,9.859326363E0,9.859667553E0
2.870042256E0,-1.070788130E-1,9.571290575E-3,9.844969749E0,9.845556706E0
2.872465902E0,-1.022931710E-1,1.196411345E-2,9.852148056E0,9.852686352E0
2.874889600E0,-7.597211748E-2,-1.196411345E-2,9.864111900E0,9.864411715E0
2.877313038E0,-1.238285750E-1,1.674975827E-2,9.847362518E0,9.848155291E0
2.879736527E0,-1.238285750E-1,4.785645287E-3,9.847362518E0,9.848142210E0
2.882159913E0,-9.750752151E-2,1.435693540E-2,9.854540825E0,9.855033674E0
2.884583506E0,-1.214357466E-1,4.785645287E-3,9.842576981E0,9.843327240E0
2.887007100E0,-1.046859920E-1,7.178467698E-3,9.861719131E0,9.862277370E0
2.889430642E0,-6.879365444E-2,4.785645287E-3,9.847362518E0,9.847603974E0
2.891853611E0,-1.046859920E-1,-9.571290575E-3,9.871291161E0,9.871850887E0
2.894277048E0,-1.094716340E-1,-0.000000000E0,9.847362518E0,9.847970989E0
2.896700434E0,-1.046859920E-1,9.571290575E-3,9.849755287E0,9.850316238E0
2.899123663E0,-9.990034252E-2,1.674975827E-2,9.861719131E0,9.862239343E0
2.901546996E0,-8.793623000E-2,3.349951655E-2,9.854540825E0,9.854990100E0
2.903970277E0,-1.214357466E-1,9.571290575E-3,9.871291161E0,9.872042718E0
2.906393142E0,-1.142572835E-1,-4.785645287E-3,9.847362518E0,9.848026513E0
2.908816527E0,-1.262213886E-1,1.674975827E-2,9.859326363E0,9.860148514E0
2.911239600E0,-1.118644550E-1,1.435693540E-2,9.847362518E0,9.848008344E0
2.913662934E0,-1.022931710E-1,2.392822644E-3,9.856933594E0,9.857464658E0
2.916085954E0,-9.511470050E-2,-0.000000000E0,9.859326363E0,9.859785146E0
2.918508819E0,-9.750752151E-2,1.196411345E-2,9.883255005E0,9.883743236E0
2.920932621E0,-1.118644550E-1,1.196411345E-2,9.852148056E0,9.852790372E0
2.923356423E0,-9.511470050E-2,-1.674975827E-2,9.866504669E0,9.866977336E0
2.925779496E0,-9.750752151E-2,4.785645287E-3,9.844969749E0,9.845453773E0
2.928202881E0,-9.990034252E-2,2.871387079E-2,9.847362518E0,9.847911105E0
2.930626840E0,-1.094716340E-1,-7.178467698E-3,9.847362518E0,9.847973606E0
2.933050642E0,-1.190429255E-1,4.785645287E-3,9.852148056E0,9.852868386E0
2.935474600E0,-1.022931710E-1,7.178467698E-3,9.852148056E0,9.852681703E0
2.937898506E0,-8.793623000E-2,-4.785645287E-3,9.861719131E0,9.862112345E0
2.940322256E0,-8.793623000E-2,2.392822644E-3,9.859326363E0,9.859718801E0
2.942745434E0,-1.118644550E-1,4.785645287E-3,9.847362518E0,9.847999042E0
2.945168663E0,-8.793623000E-2,4.785645287E-3,9.878469467E0,9.878862014E0
2.947592569E0,-8.793623000E-2,-0.000000000E0,9.859326363E0,9.859718510E0
2.950015694E0,-8.315058798E-2,1.674975827E-2,9.847362518E0,9.847727816E0
2.952439392E0,-1.046859920E-1,-1.196411345E-2,9.861719131E0,9.862282014E0
2.954864027E0,-1.094716340E-1,-0.000000000E0,9.854540825E0,9.855148853E0
2.957288246E0,-8.554340899E-2,2.392822644E-3,9.833005905E0,9.833378287E0
2.959712152E0,-9.272187948E-2,-0.000000000E0,9.849755287E0,9.850191702E0
2.962136579E0,-9.511470050E-2,-9.571290575E-3,9.837791443E0,9.838255887E0
2.964560538E0,-1.357926875E-1,2.392822690E-2,9.844969749E0,9.845935282E0
2.966984704E0,-1.190429255E-1,9.571290575E-3,9.854540825E0,9.855264466E0
2.969409184E0,-1.286142170E-1,-2.392822644E-3,9.876076698E0,9.876914412E0
2.971832673E0,-1.166501045E-1,-1.196411345E-2,9.844969749E0,9.845668071E0
2.974256267E0,-1.142572835E-1,-2.392822644E-3,9.833005905E0,9.833669996E0
2.976679184E0,-9.990034252E-2,-2.392822644E-3,9.861719131E0,9.862225410E0
2.979102934E0,-1.046859920E-1,3.110669367E-2,9.864111900E0,9.864716436E0
2.981527152E0,-9.032905847E-2,-4.785645287E-3,9.859326363E0,9.859741303E0
2.983950538E0,-1.333998591E-1,1.435693540E-2,9.842576981E0,9.843491416E0
2.986374340E0,-1.070788130E-1,9.571290575E-3,9.856933594E0,9.857519838E0
2.988798038E0,-1.046859920E-1,1.914258115E-2,9.854540825E0,9.855115447E0
2.991221631E0,-1.022931710E-1,2.392822690E-2,9.856933594E0,9.857493410E0
2.993645277E0,-1.046859920E-1,2.632104978E-2,9.847362518E0,9.847954129E0
2.996069236E0,-1.118644550E-1,2.392822690E-2,9.837791443E0,9.838456520E0
2.998492934E0,-1.238285750E-1,1.674975827E-2,9.856933594E0,9.857725597E0
3.000916892E0,-1.238285750E-1,9.571290575E-3,9.854540825E0,9.855323434E0
3.003340954E0,-1.046859920E-1,1.674975827E-2,9.840184212E0,9.840755308E0
3.005764756E0,-1.310070455E-1,-9.571290575E-3,9.830613136E0,9.831490685E0
3.008188871E0,-1.070788130E-1,-2.392822644E-3,9.856933594E0,9.857515482E0
3.010612517E0,-1.046859920E-1,2.392822644E-3,9.840184212E0,9.840741344E0
3.013036527E0,-9.272187948E-2,1.674975827E-2,9.859326363E0,9.859776581E0
3.015460642E0,-9.032905847E-2,2.871387079E-2,9.866504669E0,9.866959928E0
3.017883923E0,-1.022931710E-1,1.914258115E-2,9.861719131E0,9.862268226E0
3.020307256E0,-1.142572835E-1,-0.000000000E0,9.866504669E0,9.867166215E0
3.022730642E0,-9.990034252E-2,-4.785645287E-3,9.854540825E0,9.855048343E0
3.025154184E0,-1.166501045E-1,-1.196411345E-2,9.842576981E0,9.843275471E0
3.027576736E0,-1.094716340E-1,7.178467698E-3,9.842576981E0,9.843188365E0
3.030000017E0,-1.262213886E-1,-1.914258115E-2,9.842576981E0,9.843404893E0
3.032423246E0,-1.046859920E-1,2.392822644E-3,9.854540825E0,9.855097146E0
3.034846319E0,-9.750752151E-2,-1.196411345E-2,9.866504669E0,9.866993729E0
3.037269340E0,-1.142572835E-1,7.178467698E-3,9.849755287E0,9.850420573E0
3.039693246E0,-1.262213886E-1,-0.000000000E0,9.840184212E0,9.840993708E0
3.042117621E0,-9.990034252E-2,1.914258115E-2,9.844969749E0,9.845495208E0
3.044541059E0,-8.315058798E-2,9.571290575E-3,9.852148056E0,9.852503588E0
3.046964809E0,-1.142572835E-1,-0.000000000E0,9.871291161E0,9.871952386E0
3.049387934E0,-1.118644550E-1,-1.674975827E-2,9.864111900E0,9.864760402E0
3.051811631E0,-1.190429255E-1,2.392822644E-3,9.861719131E0,9.862437892E0
3.054236163E0,-1.022931710E-1,9.571290575E-3,9.864111900E0,9.864646932E0
3.056659600E0,-9.750752151E-2,4.785645287E-3,9.847362518E0,9.847846424E0
3.059082829E0,-8.554340899E-2,-7.178467698E-3,9.849755287E0,9.850129361E0
3.061506684E0,-1.333998591E-1,-9.571290575E-3,9.852148056E0,9.853055792E0
3.063930381E0,-9.990034252E-2,4.785645287E-3,9.840184212E0,9.840692471E0
3.066353975E0,-1.190429255E-1,-1.435693540E-2,9.864111900E0,9.864840644E0
3.068777673E0,-1.094716340E-1,-1.674975827E-2,9.840184212E0,9.840807381E0
3.071201631E0,-1.094716340E-1,4.785645287E-3,9.847362518E0,9.847972152E0
3.073625277E0,-1.142572835E-1,7.178467698E-3,9.868897438E0,9.869561434E0
3.076049600E0,-1.190429255E-1,1.435693540E-2,9.856933594E0,9.857662868E0
3.078473663E0,-1.190429255E-1,-4.785645287E-3,9.849755287E0,9.850475792E0
3.080897413E0,-1.190429255E-1,-0.000000000E0,9.856933594E0,9.857652413E0
3.083321788E0,-9.750752151E-2,4.785645287E-3,9.868897438E0,9.869380288E0
3.085745954E0,-7.357929647E-2,1.674975827E-2,9.861719131E0,9.862007843E0
3.088169548E0,-1.022931710E-1,2.871387079E-2,9.837791443E0,9.838365151E0
3.090593038E0,-9.511470050E-2,-7.178467698E-3,9.866504669E0,9.866965730E0
3.093016267E0,-9.990034252E-2,2.153540403E-2,9.849755287E0,9.850285431E0
3.095439652E0,-1.142572835E-1,1.914258115E-2,9.840184212E0,9.840866145E0
3.097862777E0,-1.142572835E-1,4.785645287E-3,9.837791443E0,9.838456083E0
3.100285954E0,-1.214357466E-1,9.571290575E-3,9.837791443E0,9.838545559E0
3.102708819E0,-1.381855011E-1,1.435693540E-2,9.842576981E0,9.843557435E0
3.105132100E0,-1.142572835E-1,1.435693540E-2,9.835398674E0,9.836072790E0
3.107555902E0,-1.238285750E-1,-2.392822644E-3,9.840184212E0,9.840963599E0
3.109979913E0,-8.554340899E-2,-1.435693540E-2,9.840184212E0,9.840566504E0
3.112403298E0,-8.554340899E-2,1.674975827E-2,9.842576981E0,9.842962961E0
3.114827152E0,-1.118644550E-1,2.871387079E-2,9.844969749E0,9.845647135E0
3.117250902E0,-1.046859920E-1,-4.785645287E-3,9.861719131E0,9.862275918E0
3.119674548E0,-1.214357466E-1,1.435693540E-2,9.830613136E0,9.831373627E0
3.122098142E0,-9.511470050E-2,9.571290575E-3,9.849755287E0,9.850219167E0
3.124521475E0,-9.990034252E-2,9.571290575E-3,9.842576981E0,9.843088606E0
3.126943819E0,-9.750752151E-2,2.392822644E-3,9.861719131E0,9.862201462E0
3.129366944E0,-1.142572835E-1,-9.571290575E-3,9.847362518E0,9.848030001E0
3.131790434E0,-8.793623000E-2,4.785645287E-3,9.847362518E0,9.847756305E0
3.134214392E0,-9.511470050E-2,7.178467698E-3,9.847362518E0,9.847824476E0
3.136637881E0,-1.166501045E-1,-7.178467698E-3,9.859326363E0,9.860019021E0
3.139061527E0,-1.166501045E-1,1.196411345E-2,9.840184212E0,9.840882872E0
3.141485277E0,-9.990034252E-2,9.571290575E-3,9.840184212E0,9.840695962E0
3.143908663E0,-1.094716340E-1,1.196411345E-2,9.868897438E0,9.869511833E0
3.146332152E0,-9.990034252E-2,9.571290575E-3,9.856933594E0,9.857444474E0
3.148755538E0,-1.238285750E-1,1.196411345E-2,9.859326363E0,9.860111205E0
3.151179288E0,-1.046859920E-1,-2.392822644E-3,9.864111900E0,9.864667681E0
3.153603090E0,-1.214357466E-1,9.571290575E-3,9.866504669E0,9.867256591E0
3.156026527E0,-1.094716340E-1,-4.785645287E-3,9.852148056E0,9.852757394E0
3.158449756E0,-1.118644550E-1,-1.674975827E-2,9.866504669E0,9.867153014E0
3.160872829E0,-1.214357466E-1,9.571290575E-3,9.859326363E0,9.860078832E0
3.163295538E0,-8.793623000E-2,3.349951655E-2,9.833005905E0,9.833456164E0
3.165718402E0,-9.272187948E-2,2.392822644E-3,9.844969749E0,9.845406667E0
3.168141423E0,-9.511470050E-2,-7.178467698E-3,9.861719131E0,9.862180416E0
3.170564340E0,-1.333998591E-1,7.178467698E-3,9.861719131E0,9.862623955E0
3.172987413E0,-9.990034252E-2,1.196411345E-2,9.854540825E0,9.855054444E0
3.175410121E0,-1.022931710E-1,-4.785645287E-3,9.840184212E0,9.840717053E0
3.177833402E0,-1.070788130E-1,2.392822644E-3,9.840184212E0,9.840767090E0
3.180257309E0,-1.166501045E-1,-1.196411345E-2,9.842576981E0,9.843275471E0
3.182681267E0,-1.286142170E-1,-9.571290575E-3,9.844969749E0,9.845814471E0
3.185104756E0,-1.310070455E-1,2.392822644E-3,9.823433876E0,9.824307695E0
3.187527725E0,-1.022931710E-1,4.785645287E-3,9.852148056E0,9.852680250E0
3.189950225E0,-1.118644550E-1,1.914258115E-2,9.861719131E0,9.862372145E0
3.192372777E0,-1.070788130E-1,2.392822644E-3,9.847362518E0,9.847944972E0
3.194795902E0,-1.214357466E-1,-9.571290575E-3,9.861719131E0,9.862471418E0
3.197219027E0,-8.315058798E-2,-7.178467698E-3,9.854540825E0,9.854894237E0
3.199642100E0,-1.046859920E-1,-3.110669367E-2,9.859326363E0,9.859931192E0
3.202065746E0,-1.118644550E-1,1.196411345E-2,9.840184212E0,9.840827309E0
3.204489288E0,-1.238285750E-1,-2.392822644E-3,9.833005905E0,9.833785862E0
3.206912309E0,-9.990034252E-2,2.392822644E-3,9.866504669E0,9.867010702E0
3.209335173E0,-9.511470050E-2,-0.000000000E0,9.866504669E0,9.866963119E0
3.211758454E0,-1.094716340E-1,-0.000000000E0,9.852148056E0,9.852756231E0
3.214182048E0,-1.022931710E-1,-0.000000000E0,9.859326363E0,9.859857008E0
3.216605121E0,-8.793623000E-2,7.178467698E-3,9.859326363E0,9.859721124E0
3.219028090E0,-9.990034252E-2,-1.674975827E-2,9.854540825E0,9.855061415E0
3.221451319E0,-1.142572835E-1,-0.000000000E0,9.849755287E0,9.850417958E0
3.223875277E0,-1.166501045E-1,1.674975827E-2,9.868897438E0,9.869601028E0
3.226299184E0,-1.142572835E-1,9.571290575E-3,9.852148056E0,9.852815215E0
3.228722934E0,-1.046859920E-1,1.674975827E-2,9.837791443E0,9.838362678E0
3.231146996E0,-1.142572835E-1,-9.571290575E-3,9.854540825E0,9.855207822E0
3.233570538E0,-9.750752151E-2,4.785645287E-3,9.844969749E0,9.845453773E0
3.235993871E0,-1.070788130E-1,4.785645287E-3,9.844969749E0,9.845553217E0
3.238417361E0,-1.286142170E-1,4.785645287E-3,9.840184212E0,9.841025853E0
3.240841111E0,-1.046859920E-1,2.632104978E-2,9.844969749E0,9.845561504E0
3.243264340E0,-1.118644550E-1,2.392822644E-3,9.854540825E0,9.855176013E0
3.245688142E0,-1.166501045E-1,7.178467698E-3,9.840184212E0,9.840878218E0
3.248111996E0,-1.142572835E-1,-0.000000000E0,9.828220367E0,9.828884490E0
3.250536423E0,-9.990034252E-2,1.435693540E-2,9.847362518E0,9.847879709E0
3.252960694E0,-9.511470050E-2,-2.392822644E-3,9.840184212E0,9.840644179E0
3.255384548E0,-9.750752151E-2,1.196411345E-2,9.859326363E0,9.859815778E0
3.257807725E0,-1.214357466E-1,7.178467698E-3,9.861719131E0,9.862469386E0
3.260230694E0,-9.990034252E-2,-1.196411345E-2,9.871291161E0,9.871803908E0
3.262654288E0,-9.032905847E-2,-2.392822644E-3,9.868897438E0,9.869311106E0
3.265077725E0,-1.333998591E-1,-1.674975827E-2,9.856933594E0,9.857850473E0
3.267500694E0,-1.166501045E-1,1.435693540E-2,9.823433876E0,9.824136933E0
3.269923663E0,-1.142572835E-1,-9.571290575E-3,9.849755287E0,9.850422608E0
3.272347100E0,-1.022931710E-1,-7.178467698E-3,9.866504669E0,9.867037540E0
3.274770538E0,-1.094716340E-1,4.785645287E-3,9.852148056E0,9.852757394E0
3.277194756E0,-9.990034252E-2,2.392822644E-3,9.868897438E0,9.869403348E0
3.279618559E0,-1.381855011E-1,-4.785645287E-3,9.866504669E0,9.867473462E0
3.282042934E0,-9.032905847E-2,2.392822690E-2,9.844969749E0,9.845413210E0
3.284467152E0,-9.750752151E-2,1.914258115E-2,9.861719131E0,9.862219749E0
3.286891059E0,-1.022931710E-1,-2.392822644E-3,9.856933594E0,9.857464658E0
3.289314861E0,-1.094716340E-1,9.571290575E-3,9.854540825E0,9.855153500E0
3.291738350E0,-1.190429255E-1,-0.000000000E0,9.844969749E0,9.845689442E0
3.294161892E0,-1.429711580E-1,1.196411345E-2,9.840184212E0,9.841230066E0
3.296585642E0,-1.046859920E-1,2.392822644E-3,9.861719131E0,9.862275047E0
3.299009288E0,-1.166501045E-1,1.914258115E-2,9.844969749E0,9.845679410E0
3.301432777E0,-1.022931710E-1,1.196411345E-2,9.842576981E0,9.843115800E0
3.303856579E0,-1.070788130E-1,1.674975827E-2,9.849755287E0,9.850351549E0
3.306280434E0,-9.750752151E-2,7.178467698E-3,9.861719131E0,9.862203784E0
3.308704131E0,-1.094716340E-1,7.178467698E-3,9.842576981E0,9.843188365E0
3.311127881E0,-1.190429255E-1,1.435693540E-2,9.864111900E0,9.864840644E0
3.313551215E0,-1.214357466E-1,1.435693540E-2,9.849755287E0,9.850514300E0
3.315975173E0,-9.750752151E-2,2.153540403E-2,9.859326363E0,9.859832038E0
3.318399340E0,-1.022931710E-1,-0.000000000E0,9.856933594E0,9.857464368E0
3.320823923E0,-9.511470050E-2,2.632104978E-2,9.844969749E0,9.845464386E0
3.323248350E0,-1.094716340E-1,-0.000000000E0,9.868897438E0,9.869504581E0
3.325672829E0,-1.142572835E-1,-2.392822644E-3,9.840184212E0,9.840847818E0
3.328097256E0,-1.214357466E-1,-2.392822644E-3,9.842576981E0,9.843326368E0
3.330521371E0,-8.554340899E-2,1.196411345E-2,9.833005905E0,9.833385274E0
3.332944704E0,-1.238285750E-1,-2.392822644E-3,9.840184212E0,9.840963599E0
3.335368350E0,-1.094716340E-1,1.435693540E-2,9.866504669E0,9.867122405E0
3.337792569E0,-1.286142170E-1,9.571290575E-3,9.859326363E0,9.860169854E0
3.340217204E0,-1.262213886E-1,-1.196411345E-2,9.854540825E0,9.855356404E0
3.342641371E0,-1.070788130E-1,7.178467698E-3,9.847362518E0,9.847947297E0
3.345065590E0,-1.046859920E-1,4.785645287E-3,9.854540825E0,9.855098017E0
3.347489652E0,-1.405783296E-1,-2.392822644E-3,9.847362518E0,9.848366187E0
3.349913506E0,-1.310070455E-1,-2.392822644E-3,9.861719131E0,9.862589559E0
3.352337465E0,-8.793623000E-2,-2.392822644E-3,9.852148056E0,9.852540780E0
3.354761423E0,-7.357929647E-2,-2.392822644E-3,9.856933594E0,9.857208505E0
3.357185434E0,-1.142572835E-1,2.392822644E-3,9.856933594E0,9.857596072E0
3.359608611E0,-9.990034252E-2,7.178467698E-3,9.833005905E0,9.833515991E0
3.362032256E0,-1.118644550E-1,-7.178467698E-3,9.847362518E0,9.848000495E0
3.364455850E0,-1.142572835E-1,7.178467698E-3,9.847362518E0,9.848027966E0
3.366879756E0,-1.046859920E-1,7.178467698E-3,9.854540825E0,9.855099470E0
3.369303246E0,-1.118644550E-1,-7.178467698E-3,9.852148056E0,9.852785723E0
3.371726527E0,-1.190429255E-1,7.178467698E-3,9.844969749E0,9.845692059E0
3.374150069E0,-1.118644550E-1,1.196411345E-2,9.835398674E0,9.836042084E0
3.376573871E0,-1.022931710E-1,1.435693540E-2,9.873683929E0,9.874224241E0
3.378997256E0,-1.022931710E-1,2.871387079E-2,9.868897438E0,9.869469338E0
3.381421371E0,-1.214357466E-1,-4.785645287E-3,9.856933594E0,9.857682761E0
3.383845434E0,-9.750752151E-2,2.392822644E-3,9.866504669E0,9.866986765E0
3.386269496E0,-1.214357466E-1,1.196411345E-2,9.878469467E0,9.879223087E0
3.388693246E0,-1.094716340E-1,1.196411345E-2,9.859326363E0,9.859941354E0
3.391117204E0,-1.070788130E-1,3.828516230E-2,9.864111900E0,9.864767367E0
3.393540954E0,-8.315058798E-2,4.785645287E-3,9.861719131E0,9.862070835E0
3.395964131E0,-1.214357466E-1,1.196411345E-2,9.866504669E0,9.867259202E0
3.398387413E0,-1.070788130E-1,7.178467698E-3,9.849755287E0,9.850339924E0
3.400810642E0,-1.046859920E-1,1.674975827E-2,9.854540825E0,9.855111089E0
3.403234652E0,-1.070788130E-1,1.196411345E-2,9.849755287E0,9.850344574E0
3.405658923E0,-1.190429255E-1,-1.196411345E-2,9.840184212E0,9.840911527E0
3.408082465E0,-8.554340899E-2,-4.785645287E-3,9.854540825E0,9.854913264E0
3.410506163E0,-8.793623000E-2,9.571290575E-3,9.861719131E0,9.862115829E0
3.412929965E0,-1.166501045E-1,-9.571290575E-3,9.840184212E0,9.840880254E0
3.415353246E0,-1.166501045E-1,7.178467698E-3,9.861719131E0,9.862411622E0
3.417777204E0,-9.750752151E-2,4.785645287E-3,9.847362518E0,9.847846424E0
3.420200798E0,-8.554340899E-2,2.392822644E-3,9.840184212E0,9.840556322E0
3.422623975E0,-1.286142170E-1,9.571290575E-3,9.852148056E0,9.852992162E0
3.425047048E0,-1.142572835E-1,2.392822644E-3,9.868897438E0,9.869559114E0
3.427470850E0,-1.238285750E-1,1.674975827E-2,9.844969749E0,9.845762715E0
3.429895017E0,-1.070788130E-1,-4.785645287E-3,9.852148056E0,9.852731098E0
3.432319027E0,-9.511470050E-2,-0.000000000E0,9.847362518E0,9.847821859E0
3.434742725E0,-1.022931710E-1,4.785645287E-3,9.852148056E0,9.852680250E0
3.437166163E0,-9.511470050E-2,-0.000000000E0,9.837791443E0,9.838251231E0
3.439589600E0,-9.272187948E-2,-4.785645287E-3,9.856933594E0,9.857370852E0
3.442013246E0,-1.166501045E-1,2.392822690E-2,9.835398674E0,9.836119503E0
3.444437309E0,-1.070788130E-1,2.392822644E-3,9.837791443E0,9.838374463E0
3.446860850E0,-1.046859920E-1,-0.000000000E0,9.871291161E0,9.871846247E0
3.449284548E0,-9.990034252E-2,-4.785645287E-3,9.861719131E0,9.862226281E0
3.451707569E0,-8.554340899E-2,-2.392822644E-3,9.861719131E0,9.862090429E0
3.454130590E0,-1.094716340E-1,9.571290575E-3,9.844969749E0,9.845583021E0
3.456553923E0,-9.032905847E-2,2.153540403E-2,9.852148056E0,9.852585672E0
3.458977673E0,-1.070788130E-1,-1.196411345E-2,9.840184212E0,9.840774072E0
3.461401267E0,-9.272187948E-2,-1.196411345E-2,9.861719131E0,9.862162274E0
3.463824913E0,-1.333998591E-1,2.392822644E-3,9.847362518E0,9.848266336E0
3.466248715E0,-1.190429255E-1,4.785645287E-3,9.873683929E0,9.874402689E0
3.468672569E0,-1.094716340E-1,1.196411345E-2,9.852148056E0,9.852763495E0
3.471096006E0,-1.190429255E-1,-1.196411345E-2,9.852148056E0,9.852874488E0
3.473519756E0,-1.238285750E-1,-0.000000000E0,9.866504669E0,9.867281688E0
3.475942725E0,-1.118644550E-1,2.392822644E-3,9.861719131E0,9.862353857E0
3.478366684E0,-9.990034252E-2,3.349951655E-2,9.861719131E0,9.862282014E0
3.480790173E0,-9.990034252E-2,9.571290575E-3,9.844969749E0,9.845481251E0
3.483214131E0,-1.118644550E-1,9.571290575E-3,9.849755287E0,9.850395143E0
3.485637881E0,-9.990034252E-2,2.392822644E-3,9.847362518E0,9.847869535E0
3.488061944E0,-1.094716340E-1,-9.571290575E-3,9.859326363E0,9.859938741E0
3.490485746E0,-6.879365444E-2,3.349951655E-2,9.849755287E0,9.850052487E0
3.492909184E0,-1.070788130E-1,2.392822690E-2,9.842576981E0,9.843188510E0
3.495332256E0,-1.070788130E-1,2.153540403E-2,9.842576981E0,9.843182984E0
3.497755954E0,-1.022931710E-1,1.914258115E-2,9.856933594E0,9.857482955E0
3.500178871E0,-9.511470050E-2,2.392822644E-3,9.868897438E0,9.869356067E0
3.502601527E0,-1.118644550E-1,7.178467698E-3,9.844969749E0,9.845607881E0
3.505025798E0,-1.142572835E-1,2.632104978E-2,9.844969749E0,9.845667925E0
3.507449131E0,-1.070788130E-1,9.571290575E-3,9.835398674E0,9.835986202E0
3.509872673E0,-1.262213886E-1,7.178467698E-3,9.842576981E0,9.843388898E0
3.512296684E0,-8.793623000E-2,7.178467698E-3,9.854540825E0,9.854935778E0
3.514720173E0,-1.046859920E-1,9.571290575E-3,9.840184212E0,9.840745708E0
3.517143663E0,-1.094716340E-1,-9.571290575E-3,9.859326363E0,9.859938741E0
3.519567204E0,-1.046859920E-1,-2.392822690E-2,9.837791443E0,9.838377518E0
3.521990277E0,-9.032905847E-2,-9.571290575E-3,9.844969749E0,9.845388784E0
3.524413142E0,-9.750752151E-2,1.196411345E-2,9.844969749E0,9.845459879E0
3.526836527E0,-1.238285750E-1,7.178467698E-3,9.837791443E0,9.838573348E0
3.529259444E0,-1.357926875E-1,-4.785645287E-3,9.859326363E0,9.860262617E0
3.531682725E0,-1.262213886E-1,4.785645287E-3,9.842576981E0,9.843387443E0
3.534106215E0,-9.750752151E-2,1.196411345E-2,9.859326363E0,9.859815778E0
3.536529600E0,-9.511470050E-2,4.785645287E-3,9.876076698E0,9.876535863E0
3.538953142E0,-1.142572835E-1,-2.392822644E-3,9.854540825E0,9.855203464E0
3.541376631E0,-1.166501045E-1,4.546362907E-2,9.854540825E0,9.855336070E0
3.543800069E0,-9.032905847E-2,4.785645287E-3,9.866504669E0,9.866919308E0
3.546222934E0,-9.511470050E-2,2.632104978E-2,9.864111900E0,9.864605577E0
3.548645954E0,-1.118644550E-1,7.178467698E-3,9.868897438E0,9.869534023E0
3.551069340E0,-1.022931710E-1,4.785645287E-3,9.856933594E0,9.857465530E0
3.553493038E0,-1.166501045E-1,4.785645287E-3,9.861719131E0,9.862410171E0
3.555916475E0,-8.315058798E-2,4.785645287E-3,9.833005905E0,9.833358635E0
3.558339184E0,-8.793623000E-2,-7.178467698E-3,9.864111900E0,9.864506470E0
3.560762361E0,-1.190429255E-1,1.196411345E-2,9.837791443E0,9.838518935E0
3.563186163E0,-1.190429255E-1,-1.435693540E-2,9.842576981E0,9.843307318E0
3.565609861E0,-1.094716340E-1,-7.178467698E-3,9.859326363E0,9.859936708E0
3.568032934E0,-1.166501045E-1,9.571290575E-3,9.861719131E0,9.862413654E0
3.570455954E0,-9.990034252E-2,-1.196411345E-2,9.849755287E0,9.850269155E0
3.572879913E0,-1.118644550E-1,1.674975827E-2,9.861719131E0,9.862367791E0
3.575302934E0,-1.094716340E-1,1.914258115E-2,9.852148056E0,9.852774827E0
3.577725902E0,-8.554340899E-2,2.153540403E-2,9.837791443E0,9.838186922E0
3.580149652E0,-8.315058798E-2,4.785645287E-3,9.849755287E0,9.850107418E0
3.582572465E0,-9.032905847E-2,-7.178467698E-3,9.835398674E0,9.835816079E0
3.584995954E0,-1.094716340E-1,-2.632104978E-2,9.833005905E0,9.833650490E0
3.587419444E0,-1.118644550E-1,1.914258115E-2,9.849755287E0,9.850409094E0
3.589842673E0,-1.142572835E-1,4.785645287E-3,9.849755287E0,9.850419120E0
3.592266527E0,-1.166501045E-1,4.307080805E-2,9.849755287E0,9.850540166E0
3.594689652E0,-9.990034252E-2,3.110669367E-2,9.864111900E0,9.864666811E0
3.597112621E0,-1.070788130E-1,2.153540403E-2,9.844969749E0,9.845575606E0
3.599535954E0,-9.990034252E-2,-1.914258115E-2,9.866504669E0,9.867028981E0
3.601959704E0,-9.511470050E-2,2.392822644E-3,9.849755287E0,9.850214807E0
3.604382934E0,-1.022931710E-1,1.435693540E-2,9.868897438E0,9.869438011E0
3.606806423E0,-1.070788130E-1,-1.435693540E-2,9.864111900E0,9.864703522E0
3.609229184E0,-1.166501045E-1,-2.153540403E-2,9.852148056E0,9.852862139E0
3.611653402E0,-1.022931710E-1,7.178467698E-3,9.861719131E0,9.862252261E0
3.614077361E0,-9.990034252E-2,-2.392822644E-3,9.864111900E0,9.864618056E0
3.616501111E0,-9.990034252E-2,9.571290575E-3,9.854540825E0,9.855051829E0
3.618924288E0,-1.046859920E-1,1.196411345E-2,9.852148056E0,9.852711485E0
3.621347673E0,-1.142572835E-1,-0.000000000E0,9.864111900E0,9.864773607E0
3.623771267E0,-1.190429255E-1,9.571290575E-3,9.847362518E0,9.848086687E0
3.626194027E0,-1.453639716E-1,-1.196411345E-2,9.844969749E0,9.846050131E0
3.628616996E0,-8.793623000E-2,2.632104978E-2,9.849755287E0,9.850182983E0
3.631039652E0,-1.046859920E-1,9.571290575E-3,9.859326363E0,9.859886769E0
3.633462725E0,-1.190429255E-1,1.914258115E-2,9.852148056E0,9.852885820E0
3.635886267E0,-1.310070455E-1,4.067798331E-2,9.849755287E0,9.850710470E0
3.638309236E0,-1.357926875E-1,1.435693540E-2,9.852148056E0,9.853094290E0
3.640733090E0,-1.214357466E-1,1.914258115E-2,9.856933594E0,9.857700186E0
3.643156267E0,-1.238285750E-1,1.674975827E-2,9.840184212E0,9.840977563E0
3.645579965E0,-1.333998591E-1,7.178467698E-3,9.859326363E0,9.860231406E0
3.648003975E0,-9.272187948E-2,-1.435693540E-2,9.854540825E0,9.854987485E0
3.650427152E0,-1.238285750E-1,2.632104978E-2,9.849755287E0,9.850568792E0
3.652850121E0,-1.286142170E-1,1.196411345E-2,9.859326363E0,9.860172467E0
3.655273871E0,-1.190429255E-1,4.785645287E-3,9.847362518E0,9.848083199E0
3.657697465E0,-9.750752151E-2,-4.785645287E-3,9.859326363E0,9.859809681E0
3.660121267E0,-1.214357466E-1,1.674975827E-2,9.840184212E0,9.840947745E0
3.662545277E0,-8.793623000E-2,-4.785645287E-3,9.861719131E0,9.862112345E0
3.664968715E0,-9.750752151E-2,7.178467698E-3,9.837791443E0,9.838277274E0
3.667392309E0,-1.118644550E-1,1.435693540E-2,9.868897438E0,9.869541855E0
3.669816111E0,-1.046859920E-1,-4.785645287E-3,9.854540825E0,9.855098017E0
3.672240173E0,-1.046859920E-1,4.785645287E-3,9.854540825E0,9.855098017E0
3.674664131E0,-1.070788130E-1,-4.785645287E-3,9.830613136E0,9.831197456E0
3.677088142E0,-9.511470050E-2,2.632104978E-2,9.864111900E0,9.864605577E0
3.679512309E0,-1.046859920E-1,1.914258115E-2,9.852148056E0,9.852722817E0
3.681935902E0,-1.046859920E-1,1.435693540E-2,9.852148056E0,9.852714682E0
3.684359444E0,-1.166501045E-1,7.178467698E-3,9.868897438E0,9.869589425E0
3.686782829E0,-1.118644550E-1,1.914258115E-2,9.849755287E0,9.850409094E0
3.689206111E0,-1.046859920E-1,1.196411345E-2,9.844969749E0,9.845533590E0
3.691629965E0,-9.990034252E-2,-1.196411345E-2,9.866504669E0,9.867017665E0
3.694053611E0,-1.166501045E-1,4.785645287E-3,9.837791443E0,9.838484163E0
3.696476944E0,-1.214357466E-1,-9.571290575E-3,9.859326363E0,9.860078832E0
3.698900798E0,-1.190429255E-1,7.178467698E-3,9.864111900E0,9.864832808E0
3.701324496E0,-1.142572835E-1,1.914258115E-2,9.856933594E0,9.857614368E0
3.703748350E0,-1.166501045E-1,-1.435693540E-2,9.852148056E0,9.852849064E0
3.706172100E0,-1.166501045E-1,2.392822644E-3,9.835398674E0,9.836090689E0
3.708594861E0,-1.094716340E-1,-0.000000000E0,9.849755287E0,9.850363610E0
3.711018402E0,-8.315058798E-2,4.785645287E-3,9.849755287E0,9.850107418E0
3.713441840E0,-1.046859920E-1,-7.178467698E-3,9.842576981E0,9.843136304E0
3.715866111E0,-1.333998591E-1,1.435693540E-2,9.842576981E0,9.843491416E0
3.718289704E0,-1.046859920E-1,4.785645287E-3,9.861719131E0,9.862275918E0
3.720713298E0,-7.597211748E-2,-0.000000000E0,9.837791443E0,9.838084785E0
3.723136579E0,-9.511470050E-2,1.435693540E-2,9.842576981E0,9.843047015E0
3.725559600E0,-9.990034252E-2,1.196411345E-2,9.849755287E0,9.850269155E0
3.727983038E0,-1.142572835E-1,1.674975827E-2,9.837791443E0,9.838469177E0
3.730406319E0,-1.094716340E-1,1.914258115E-2,9.849755287E0,9.850382211E0
3.732829913E0,-1.118644550E-1,7.178467698E-3,9.861719131E0,9.862356180E0
3.735253350E0,-1.094716340E-1,-1.435693540E-2,9.842576981E0,9.843196218E0
3.737677100E0,-1.094716340E-1,-1.435693540E-2,9.833005905E0,9.833625745E0
3.740101006E0,-1.357926875E-1,-2.392822644E-3,9.854540825E0,9.855476663E0
3.742525069E0,-1.333998591E-1,7.178467698E-3,9.856933594E0,9.857838857E0
3.744948506E0,-8.075776696E-2,2.392822690E-2,9.861719131E0,9.862078818E0
3.747372361E0,-1.118644550E-1,1.914258115E-2,9.842576981E0,9.843231264E0
3.749796944E0,-9.990034252E-2,7.178467698E-3,9.856933594E0,9.857442441E0
3.752220798E0,-1.022931710E-1,7.178467698E-3,9.840184212E0,9.840718508E0
3.754643975E0,-1.142572835E-1,2.871387079E-2,9.868897438E0,9.869600593E0
3.757067361E0,-1.070788130E-1,1.435693540E-2,9.864111900E0,9.864703522E0
3.759490694E0,-8.793623000E-2,2.392822644E-3,9.833005905E0,9.833399394E0
3.761914340E0,-9.272187948E-2,2.392822644E-3,9.847362518E0,9.847799330E0
3.764337777E0,-9.272187948E-2,-4.785645287E-3,9.840184212E0,9.840622215E0
3.766761944E0,-9.750752151E-2,4.785645287E-3,9.847362518E0,9.847846424E0
3.769185434E0,-1.142572835E-1,-4.785645287E-3,9.844969749E0,9.845633905E0
3.771609288E0,-1.214357466E-1,-7.178467698E-3,9.835398674E0,9.836150937E0
3.774033506E0,-1.357926875E-1,-4.785645287E-3,9.854540825E0,9.855477534E0
3.776456736E0,-1.094716340E-1,-1.196411345E-2,9.844969749E0,9.845585638E0
3.778880434E0,-1.262213886E-1,-2.392822644E-3,9.856933594E0,9.857742005E0
3.781303559E0,-8.793623000E-2,7.178467698E-3,9.847362518E0,9.847757759E0
3.783726684E0,-9.511470050E-2,1.435693540E-2,9.859326363E0,9.859795599E0
3.786150225E0,-1.118644550E-1,-2.392822644E-3,9.864111900E0,9.864746472E0
3.788573298E0,-9.990034252E-2,-2.392822644E-3,9.854540825E0,9.855047472E0
3.790996215E0,-1.046859920E-1,1.914258115E-2,9.847362518E0,9.847937559E0
3.793420017E0,-9.511470050E-2,1.435693540E-2,9.847362518E0,9.847832325E0
3.795843819E0,-1.310070455E-1,-2.392822644E-3,9.842576981E0,9.843449100E0
3.798267256E0,-1.070788130E-1,-1.196411345E-2,9.861719131E0,9.862307704E0
3.800691267E0,-9.990034252E-2,7.178467698E-3,9.847362518E0,9.847871860E0
3.803115486E0,-1.190429255E-1,7.178467698E-3,9.854540825E0,9.855262433E0
3.805539079E0,-1.357926875E-1,4.785645287E-3,9.852148056E0,9.853084993E0
3.807962569E0,-1.310070455E-1,-2.392822644E-3,9.864111900E0,9.864982116E0
3.810386319E0,-1.070788130E-1,2.392822690E-2,9.866504669E0,9.867114716E0
3.812810590E0,-1.262213886E-1,1.196411345E-2,9.828220367E0,9.829038130E0
3.815233871E0,-1.022931710E-1,1.674975827E-2,9.842576981E0,9.843122780E0
3.817657881E0,-1.190429255E-1,-4.785645287E-3,9.840184212E0,9.840905418E0
3.820081579E0,-1.190429255E-1,-0.000000000E0,9.866504669E0,9.867222791E0
3.822505434E0,-9.511470050E-2,1.196411345E-2,9.871291161E0,9.871756638E0
3.824929340E0,-8.793623000E-2,1.196411345E-2,9.871291161E0,9.871690083E0
3.827353559E0,-1.333998591E-1,1.914258115E-2,9.837791443E0,9.838714471E0
3.829777569E0,-1.142572835E-1,1.674975827E-2,9.833005905E0,9.833683969E0
3.832201631E0,-1.094716340E-1,-1.435693540E-2,9.856933594E0,9.857551929E0
3.834625538E0,-1.022931710E-1,7.178467698E-3,9.847362518E0,9.847896425E0
3.837049652E0,-1.070788130E-1,-1.435693540E-2,9.859326363E0,9.859918271E0
3.839473923E0,-1.286142170E-1,-0.000000000E0,9.837791443E0,9.838632125E0
3.841898038E0,-1.118644550E-1,4.785645287E-3,9.844969749E0,9.845606428E0
3.844321631E0,-1.238285750E-1,-1.435693540E-2,9.864111900E0,9.864899554E0
3.846745850E0,-1.094716340E-1,1.914258115E-2,9.849755287E0,9.850382211E0
3.849170277E0,-9.032905847E-2,7.178467698E-3,9.825826645E0,9.826244457E0
3.851594288E0,-9.750752151E-2,2.392822644E-3,9.837791443E0,9.838274946E0
3.854017934E0,-9.511470050E-2,1.435693540E-2,9.840184212E0,9.840654361E0
3.856441319E0,-1.046859920E-1,4.785645287E-3,9.840184212E0,9.840742217E0
3.858864965E0,-1.166501045E-1,-2.392822644E-3,9.837791443E0,9.838483290E0
3.861288611E0,-1.214357466E-1,1.435693540E-2,9.864111900E0,9.864869809E0
3.863712517E0,-1.094716340E-1,1.435693540E-2,9.837791443E0,9.838410981E0
3.866136892E0,-1.166501045E-1,1.435693540E-2,9.864111900E0,9.864812059E0
3.868561163E0,-9.990034252E-2,1.435693540E-2,9.856933594E0,9.857450282E0
3.870984809E0,-1.166501045E-1,7.178467698E-3,9.852148056E0,9.852841219E0
3.873407986E0,-9.990034252E-2,9.571290575E-3,9.844969749E0,9.845481251E0
3.875831892E0,-9.272187948E-2,7.178467698E-3,9.864111900E0,9.864550292E0
3.878255642E0,-8.793623000E-2,1.435693540E-2,9.861719131E0,9.862121634E0
3.880679913E0,-1.166501045E-1,-4.785645287E-3,9.854540825E0,9.855232368E0
3.883104288E0,-1.046859920E-1,1.196411345E-2,9.847362518E0,9.847926221E0
3.885528038E0,-1.118644550E-1,1.435693540E-2,9.849755287E0,9.850400956E0
3.887951684E0,-1.118644550E-1,7.178467698E-3,9.840184212E0,9.840822654E0
3.890375225E0,-1.046859920E-1,-9.571290575E-3,9.840184212E0,9.840745708E0
3.892799131E0,-1.118644550E-1,-4.785645287E-3,9.859326363E0,9.859962114E0
3.895222777E0,-1.070788130E-1,9.571290575E-3,9.866504669E0,9.867090345E0
3.897645902E0,-1.238285750E-1,2.392822690E-2,9.854540825E0,9.855347835E0
3.900070277E0,-9.272187948E-2,1.435693540E-2,9.847362518E0,9.847809504E0
3.902493559E0,-9.272187948E-2,-7.178467698E-3,9.856933594E0,9.857372304E0
3.904916996E0,-8.075776696E-2,-7.178467698E-3,9.854540825E0,9.854874338E0
3.907340017E0,-9.511470050E-2,-0.000000000E0,9.859326363E0,9.859785146E0
3.909764027E0,-1.022931710E-1,2.392822644E-3,9.866504669E0,9.867035219E0
3.912187100E0,-9.750752151E-2,2.392822644E-3,9.847362518E0,9.847845552E0
3.914610850E0,-1.022931710E-1,7.178467698E-3,9.852148056E0,9.852681703E0
3.917034861E0,-1.190429255E-1,1.435693540E-2,9.852148056E0,9.852877684E0
3.919458246E0,-1.214357466E-1,-1.435693540E-2,9.854540825E0,9.855299469E0
3.921881944E0,-9.511470050E-2,-4.785645287E-3,9.847362518E0,9.847823022E0
3.924305850E0,-9.750752151E-2,9.571290575E-3,9.856933594E0,9.857420514E0
3.926730069E0,-9.272187948E-2,7.178467698E-3,9.859326363E0,9.859764967E0
3.929154027E0,-1.286142170E-1,2.392822644E-3,9.849755287E0,9.850595239E0
3.931577986E0,-9.990034252E-2,-2.392822644E-3,9.866504669E0,9.867010702E0
3.934001684E0,-9.750752151E-2,2.392822690E-2,9.866504669E0,9.867015489E0
3.936425538E0,-1.070788130E-1,-4.785645287E-3,9.854540825E0,9.855123725E0
3.938849027E0,-1.142572835E-1,7.178467698E-3,9.849755287E0,9.850420573E0
3.941273142E0,-8.075776696E-2,1.196411345E-2,9.859326363E0,9.859664359E0
3.943696892E0,-1.214357466E-1,-1.914258115E-2,9.856933594E0,9.857700186E0
3.946120590E0,-1.118644550E-1,-2.392822644E-3,9.830613136E0,9.831249871E0
3.948544392E0,-1.190429255E-1,-7.178467698E-3,9.866504669E0,9.867225402E0
3.950968090E0,-1.310070455E-1,1.435693540E-2,9.854540825E0,9.855422053E0
3.953391840E0,-1.094716340E-1,9.571290575E-3,9.837791443E0,9.838405161E0
3.955815590E0,-1.166501045E-1,1.914258115E-2,9.844969749E0,9.845679410E0
3.958240121E0,-1.238285750E-1,1.914258115E-2,9.835398674E0,9.836196777E0
3.960663663E0,-1.357926875E-1,-7.178467698E-3,9.873683929E0,9.874620272E0
3.963086944E0,-1.022931710E-1,-0.000000000E0,9.866504669E0,9.867034928E0
3.965510954E0,-1.046859920E-1,1.435693540E-2,9.847362518E0,9.847929419E0
3.967934965E0,-1.190429255E-1,-2.392822644E-3,9.840184212E0,9.840904545E0
3.970358871E0,-9.511470050E-2,-7.178467698E-3,9.868897438E0,9.869358387E0
