"Time (s)","Gyroscope x (rad/s)","Gyroscope y (rad/s)","Gyroscope z (rad/s)","Absolute (rad/s)"
3.476933500E-2,3.054236295E-4,-1.221694518E-3,4.581354442E-4,1.340040736E-3
3.721443900E-2,1.527118147E-3,-1.221694518E-3,-7.635590737E-4,2.099440352E-3
3.965871000E-2,1.527118147E-3,-1.221694518E-3,-7.635590737E-4,2.099440352E-3
4.210219900E-2,-9.162708884E-4,0.000000000E0,-1.985253533E-3,2.186500385E-3
4.454657400E-2,1.527118147E-3,-1.221694518E-3,1.679830020E-3,2.578072192E-3
4.699167900E-2,1.527118147E-3,-1.221694518E-3,4.581354442E-4,2.008610320E-3
4.943589700E-2,3.054236295E-4,1.221694518E-3,4.581354442E-4,1.340040736E-3
5.187943900E-2,1.527118147E-3,-1.221694518E-3,-7.635590737E-4,2.099440352E-3
5.432371000E-2,3.054236295E-4,-1.221694518E-3,4.581354442E-4,1.340040736E-3
5.676886600E-2,3.054236295E-4,0.000000000E0,-7.635590737E-4,8.223782903E-4
5.921313700E-2,-9.162708884E-4,1.221694518E-3,-3.206948051E-3,3.551986154E-3
6.165662700E-2,-9.162708884E-4,0.000000000E0,-7.635590737E-4,1.192717402E-3
6.410100200E-2,3.054236295E-4,0.000000000E0,1.679830020E-3,1.707370051E-3
6.654610600E-2,-9.162708884E-4,1.221694518E-3,4.581354442E-4,1.594358153E-3
6.899037700E-2,3.054236295E-4,-1.221694518E-3,-7.635590737E-4,1.472699408E-3
7.143386600E-2,3.054236295E-4,-1.221694518E-3,-7.635590737E-4,1.472699408E-3
7.387824100E-2,1.527118147E-3,0.000000000E0,4.581354442E-4,1.594358153E-3
7.632334500E-2,1.527118147E-3,0.000000000E0,4.581354442E-4,1.594358153E-3
7.876756400E-2,3.054236295E-4,0.000000000E0,-7.635590737E-4,8.223782903E-4
8.121110600E-2,3.054236295E-4,0.000000000E0,-7.635590737E-4,8.223782903E-4
8.365537700E-2,1.527118147E-3,-1.221694518E-3,-7.635590737E-4,2.099440352E-3
8.610053300E-2,3.054236295E-4,-1.221694518E-3,4.581354442E-4,1.340040736E-3
8.854480400E-2,3.054236295E-4,-1.221694518E-3,-7.635590737E-4,1.472699408E-3
9.098829300E-2,1.527118147E-3,-2.443389036E-3,-7.635590737E-4,2.980815706E-3
9.343266800E-2,1.527118147E-3,-1.221694518E-3,-7.635590737E-4,2.099440352E-3
9.587777200E-2,-9.162708884E-4,0.000000000E0,1.679830020E-3,1.913473605E-3
9.832199100E-2,3.054236295E-4,0.000000000E0,4.581354442E-4,5.506102784E-4
1.007655330E-1,1.527118147E-3,-2.443389036E-3,-1.985253533E-3,3.499067220E-3
1.032098040E-1,3.054236295E-4,-1.221694518E-3,-3.206948051E-3,3.445335527E-3
1.056549600E-1,3.054236295E-4,-1.221694518E-3,-1.985253533E-3,2.350968456E-3
1.080992310E-1,3.054236295E-4,0.000000000E0,-1.985253533E-3,2.008610262E-3
1.105427200E-1,1.527118147E-3,-1.221694518E-3,-1.985253533E-3,2.786729072E-3
1.129870950E-1,3.054236295E-4,-1.221694518E-3,-7.635590737E-4,1.472699408E-3
1.154321990E-1,-9.162708884E-4,0.000000000E0,1.679830020E-3,1.913473605E-3
1.178764700E-1,-9.162708884E-4,0.000000000E0,1.679830020E-3,1.913473605E-3
1.203199600E-1,3.054236295E-4,0.000000000E0,-1.985253533E-3,2.008610262E-3
1.227643350E-1,3.054236295E-4,0.000000000E0,-7.635590737E-4,8.223782903E-4
1.252093870E-1,3.054236295E-4,0.000000000E0,4.581354442E-4,5.506102784E-4
1.276536580E-1,-2.137965523E-3,1.221694518E-3,-1.985253533E-3,3.163015280E-3
1.300971470E-1,3.054236295E-4,0.000000000E0,4.581354442E-4,5.506102784E-4
1.325415220E-1,1.527118147E-3,-2.443389036E-3,1.679830020E-3,3.335276407E-3
1.349866270E-1,3.054236295E-4,-1.221694518E-3,-7.635590737E-4,1.472699408E-3
1.374308970E-1,1.527118147E-3,-1.221694518E-3,4.581354442E-4,2.008610320E-3
1.398743870E-1,3.054236295E-4,-1.221694518E-3,4.581354442E-4,1.340040736E-3
1.423187620E-1,3.054236295E-4,0.000000000E0,4.581354442E-4,5.506102784E-4
1.447638660E-1,3.054236295E-4,-1.221694518E-3,1.679830020E-3,2.099440398E-3
1.472080850E-1,3.054236295E-4,-2.443389036E-3,4.581354442E-4,2.504659989E-3
1.496516270E-1,3.054236295E-4,-1.221694518E-3,4.581354442E-4,1.340040736E-3
1.520958970E-1,-9.162708884E-4,0.000000000E0,1.679830020E-3,1.913473605E-3
1.545410540E-1,3.054236295E-4,2.443389036E-3,4.581354442E-4,2.504659989E-3
1.569853240E-1,-9.162708884E-4,1.221694518E-3,-7.635590737E-4,1.707369994E-3
1.594288140E-1,-9.162708884E-4,0.000000000E0,-1.985253533E-3,2.186500385E-3
1.618731890E-1,3.054236295E-4,0.000000000E0,4.581354442E-4,5.506102784E-4
1.643182930E-1,1.527118147E-3,-2.443389036E-3,4.581354442E-4,2.917555124E-3
1.667625120E-1,1.527118147E-3,-2.443389036E-3,4.581354442E-4,2.917555124E-3
1.692060540E-1,1.527118147E-3,-2.443389036E-3,-1.985253533E-3,3.499067220E-3
1.716503240E-1,3.054236295E-4,-1.221694518E-3,-7.635590737E-4,1.472699408E-3
1.740954810E-1,-2.137965523E-3,0.000000000E0,-7.635590737E-4,2.270224446E-3
1.765397520E-1,1.527118147E-3,-1.221694518E-3,4.581354442E-4,2.008610320E-3
1.789832410E-1,3.054236295E-4,0.000000000E0,4.581354442E-4,5.506102784E-4
1.814276160E-1,3.054236295E-4,0.000000000E0,-7.635590737E-4,8.223782903E-4
1.838727200E-1,3.054236295E-4,0.000000000E0,-7.635590737E-4,8.223782903E-4
1.863169910E-1,3.054236295E-4,-1.221694518E-3,4.581354442E-4,1.340040736E-3
1.887604810E-1,-9.162708884E-4,-1.221694518E-3,-7.635590737E-4,1.707369994E-3
1.912047520E-1,3.054236295E-4,-1.221694518E-3,4.581354442E-4,1.340040736E-3
1.936499600E-1,3.054236295E-4,0.000000000E0,4.581354442E-4,5.506102784E-4
1.960941790E-1,3.054236295E-4,-1.221694518E-3,-7.635590737E-4,1.472699408E-3
1.985377200E-1,-9.162708884E-4,-1.221694518E-3,4.581354442E-4,1.594358153E-3
2.009819910E-1,-9.162708884E-4,-1.221694518E-3,4.581354442E-4,1.594358153E-3
2.034271470E-1,3.054236295E-4,-1.221694518E-3,-7.635590737E-4,1.472699408E-3
2.058714180E-1,-9.162708884E-4,0.000000000E0,-7.635590737E-4,1.192717402E-3
2.083149080E-1,3.054236295E-4,0.000000000E0,4.581354442E-4,5.506102784E-4
2.107592830E-1,3.054236295E-4,2.443389036E-3,1.679830020E-3,2.980815739E-3
2.132043870E-1,1.527118147E-3,-2.443389036E-3,-7.635590737E-4,2.980815706E-3
2.156486060E-1,-9.162708884E-4,-1.221694518E-3,-1.985253533E-3,2.504659943E-3
2.180921470E-1,-9.162708884E-4,0.000000000E0,-1.985253533E-3,2.186500385E-3
2.205364180E-1,3.054236295E-4,0.000000000E0,-1.985253533E-3,2.008610262E-3
2.229815740E-1,3.054236295E-4,0.000000000E0,4.581354442E-4,5.506102784E-4
2.254258450E-1,3.054236295E-4,0.000000000E0,4.581354442E-4,5.506102784E-4
2.278693350E-1,3.054236295E-4,-1.221694518E-3,4.581354442E-4,1.340040736E-3
2.303137100E-1,3.054236295E-4,0.000000000E0,4.581354442E-4,5.506102784E-4
2.327588140E-1,3.054236295E-4,-2.443389036E-3,-1.985253533E-3,3.163015202E-3
2.352030850E-1,3.054236295E-4,-1.221694518E-3,-1.985253533E-3,2.350968456E-3
2.376465740E-1,3.054236295E-4,0.000000000E0,-7.635590737E-4,8.223782903E-4
2.400909490E-1,3.054236295E-4,1.221694518E-3,4.581354442E-4,1.340040736E-3
2.425360020E-1,-9.162708884E-4,2.443389036E-3,4.581354442E-4,2.649450963E-3
2.449802720E-1,-9.162708884E-4,0.000000000E0,-1.985253533E-3,2.186500385E-3
2.474237620E-1,-9.162708884E-4,1.221694518E-3,-7.635590737E-4,1.707369994E-3
2.498681370E-1,1.527118147E-3,-1.221694518E-3,1.679830020E-3,2.578072192E-3
2.523132410E-1,-9.162708884E-4,0.000000000E0,4.581354442E-4,1.024421996E-3
2.547575120E-1,3.054236295E-4,0.000000000E0,-7.635590737E-4,8.223782903E-4
2.572010020E-1,1.527118147E-3,0.000000000E0,-7.635590737E-4,1.707369994E-3
2.596453770E-1,3.054236295E-4,0.000000000E0,1.679830020E-3,1.707370051E-3
2.620904290E-1,1.527118147E-3,0.000000000E0,-1.985253533E-3,2.504659943E-3
2.645346990E-1,3.054236295E-4,-1.221694518E-3,-1.985253533E-3,2.350968456E-3
2.669782410E-1,3.054236295E-4,-2.443389036E-3,-7.635590737E-4,2.578072154E-3
2.694225120E-1,3.054236295E-4,0.000000000E0,4.581354442E-4,5.506102784E-4
2.718676680E-1,1.527118147E-3,0.000000000E0,1.679830020E-3,2.270224379E-3
2.743119390E-1,-9.162708884E-4,0.000000000E0,-7.635590737E-4,1.192717402E-3
2.767554290E-1,-9.162708884E-4,1.221694518E-3,-1.985253533E-3,2.504659943E-3
2.791998040E-1,3.054236295E-4,-1.221694518E-3,4.581354442E-4,1.340040736E-3
2.816449080E-1,3.054236295E-4,-1.221694518E-3,-7.635590737E-4,1.472699408E-3
2.840891270E-1,3.054236295E-4,-2.443389036E-3,-7.635590737E-4,2.578072154E-3
2.865326680E-1,-9.162708884E-4,-1.221694518E-3,-7.635590737E-4,1.707369994E-3
2.889769390E-1,3.054236295E-4,0.000000000E0,4.581354442E-4,5.506102784E-4
2.914220950E-1,3.054236295E-4,0.000000000E0,4.581354442E-4,5.506102784E-4
2.938663660E-1,3.054236295E-4,-1.221694518E-3,-1.985253533E-3,2.350968456E-3
2.963098560E-1,3.054236295E-4,-1.221694518E-3,4.581354442E-4,1.340040736E-3
2.987542310E-1,3.054236295E-4,0.000000000E0,-7.635590737E-4,8.223782903E-4
3.011993350E-1,1.527118147E-3,-1.221694518E-3,-7.635590737E-4,2.099440352E-3
3.036436060E-1,3.054236295E-4,1.221694518E-3,4.581354442E-4,1.340040736E-3
3.060870950E-1,1.527118147E-3,0.000000000E0,-7.635590737E-4,1.707369994E-3
3.085314700E-1,1.527118147E-3,-1.221694518E-3,4.581354442E-4,2.008610320E-3
3.109765740E-1,3.054236295E-4,-1.221694518E-3,1.679830020E-3,2.099440398E-3
3.134207930E-1,3.054236295E-4,-2.443389036E-3,-1.985253533E-3,3.163015202E-3
3.158643350E-1,3.054236295E-4,-2.443389036E-3,-7.635590737E-4,2.578072154E-3
3.183086060E-1,3.054236295E-4,-1.221694518E-3,-7.635590737E-4,1.472699408E-3
3.207537620E-1,-9.162708884E-4,0.000000000E0,-7.635590737E-4,1.192717402E-3
3.231980330E-1,3.054236295E-4,0.000000000E0,-7.635590737E-4,8.223782903E-4
3.256415220E-1,1.527118147E-3,-1.221694518E-3,4.581354442E-4,2.008610320E-3
3.280858970E-1,3.054236295E-4,0.000000000E0,1.679830020E-3,1.707370051E-3
3.305310020E-1,3.054236295E-4,0.000000000E0,-7.635590737E-4,8.223782903E-4
3.329752200E-1,3.054236295E-4,0.000000000E0,4.581354442E-4,5.506102784E-4
3.354187620E-1,3.054236295E-4,0.000000000E0,1.679830020E-3,1.707370051E-3
3.378630330E-1,3.054236295E-4,0.000000000E0,4.581354442E-4,5.506102784E-4
3.403081890E-1,3.054236295E-4,0.000000000E0,4.581354442E-4,5.506102784E-4
3.427524600E-1,3.054236295E-4,-2.443389036E-3,-7.635590737E-4,2.578072154E-3
3.451959490E-1,3.054236295E-4,-1.221694518E-3,-7.635590737E-4,1.472699408E-3
3.476403240E-1,-9.162708884E-4,-1.221694518E-3,1.679830020E-3,2.270224379E-3
3.500854290E-1,-9.162708884E-4,-1.221694518E-3,-7.635590737E-4,1.707369994E-3
3.525296990E-1,-2.137965523E-3,-1.221694518E-3,4.581354442E-4,2.504660088E-3
3.549731890E-1,-9.162708884E-4,-1.221694518E-3,1.679830020E-3,2.270224379E-3
3.574175640E-1,1.527118147E-3,0.000000000E0,4.581354442E-4,1.594358153E-3
3.598626680E-1,1.527118147E-3,0.000000000E0,-7.635590737E-4,1.707369994E-3
3.623068870E-1,1.527118147E-3,-1.221694518E-3,-1.985253533E-3,2.786729072E-3
3.647504290E-1,3.054236295E-4,0.000000000E0,1.679830020E-3,1.707370051E-3
3.671946990E-1,3.054236295E-4,0.000000000E0,1.679830020E-3,1.707370051E-3
3.696398560E-1,3.054236295E-4,0.000000000E0,1.679830020E-3,1.707370051E-3
3.720841270E-1,1.527118147E-3,-1.221694518E-3,-7.635590737E-4,2.099440352E-3
3.745276160E-1,3.054236295E-4,0.000000000E0,-7.635590737E-4,8.223782903E-4
3.769719910E-1,-9.162708884E-4,-1.221694518E-3,4.581354442E-4,1.594358153E-3
3.794170950E-1,-9.162708884E-4,0.000000000E0,4.581354442E-4,1.024421996E-3
3.818613140E-1,1.527118147E-3,0.000000000E0,4.581354442E-4,1.594358153E-3
3.843048560E-1,-9.162708884E-4,0.000000000E0,-7.635590737E-4,1.192717402E-3
3.867491270E-1,3.054236295E-4,0.000000000E0,4.581354442E-4,5.506102784E-4
3.891942830E-1,-9.162708884E-4,0.000000000E0,-1.985253533E-3,2.186500385E-3
3.916385540E-1,3.054236295E-4,-2.443389036E-3,-1.985253533E-3,3.163015202E-3
3.940820430E-1,1.527118147E-3,0.000000000E0,1.679830020E-3,2.270224379E-3
3.965264180E-1,-9.162708884E-4,1.221694518E-3,4.581354442E-4,1.594358153E-3
3.989715220E-1,-9.162708884E-4,0.000000000E0,-7.635590737E-4,1.192717402E-3
4.014157410E-1,3.054236295E-4,0.000000000E0,4.581354442E-4,5.506102784E-4
4.038592830E-1,3.054236295E-4,-1.221694518E-3,4.581354442E-4,1.340040736E-3
4.063036580E-1,3.054236295E-4,-2.443389036E-3,4.581354442E-4,2.504659989E-3
4.087487100E-1,3.054236295E-4,-2.443389036E-3,-1.985253533E-3,3.163015202E-3
4.111929810E-1,3.054236295E-4,-1.221694518E-3,-1.985253533E-3,2.350968456E-3
4.136365220E-1,3.054236295E-4,0.000000000E0,4.581354442E-4,5.506102784E-4
4.160807930E-1,-9.162708884E-4,-1.221694518E-3,4.581354442E-4,1.594358153E-3
4.185259490E-1,3.054236295E-4,-2.443389036E-3,-7.635590737E-4,2.578072154E-3
4.209702200E-1,1.527118147E-3,-1.221694518E-3,-7.635590737E-4,2.099440352E-3
4.234137100E-1,3.054236295E-4,-1.221694518E-3,-7.635590737E-4,1.472699408E-3
4.258580850E-1,1.527118147E-3,-1.221694518E-3,4.581354442E-4,2.008610320E-3
4.283031890E-1,3.054236295E-4,0.000000000E0,4.581354442E-4,5.506102784E-4
4.307474080E-1,-9.162708884E-4,0.000000000E0,-1.985253533E-3,2.186500385E-3
4.331909490E-1,-9.162708884E-4,0.000000000E0,1.679830020E-3,1.913473605E-3
4.356352200E-1,3.054236295E-4,0.000000000E0,4.581354442E-4,5.506102784E-4
4.380803770E-1,3.054236295E-4,-1.221694518E-3,4.581354442E-4,1.340040736E-3
4.405246470E-1,-2.137965523E-3,-1.221694518E-3,-3.206948051E-3,4.043259808E-3
4.429681370E-1,-9.162708884E-4,0.000000000E0,-1.985253533E-3,2.186500385E-3
4.454125120E-1,3.054236295E-4,0.000000000E0,1.679830020E-3,1.707370051E-3
4.478576160E-1,3.054236295E-4,-1.221694518E-3,-7.635590737E-4,1.472699408E-3
4.503018870E-1,3.054236295E-4,0.000000000E0,4.581354442E-4,5.506102784E-4
4.527453770E-1,3.054236295E-4,0.000000000E0,4.581354442E-4,5.506102784E-4
4.551897520E-1,-9.162708884E-4,1.221694518E-3,4.581354442E-4,1.594358153E-3
4.576348560E-1,3.054236295E-4,0.000000000E0,-1.985253533E-3,2.008610262E-3
4.600790740E-1,1.527118147E-3,-1.221694518E-3,-7.635590737E-4,2.099440352E-3
4.625225640E-1,1.527118147E-3,-1.221694518E-3,1.679830020E-3,2.578072192E-3
4.649669390E-1,3.054236295E-4,0.000000000E0,1.679830020E-3,1.707370051E-3
4.674120430E-1,-2.137965523E-3,0.000000000E0,-7.635590737E-4,2.270224446E-3
4.698563140E-1,-9.162708884E-4,-1.221694518E-3,-7.635590737E-4,1.707369994E-3
4.722998040E-1,3.054236295E-4,-1.221694518E-3,-7.635590737E-4,1.472699408E-3
4.747441790E-1,3.054236295E-4,-2.443389036E-3,4.581354442E-4,2.504659989E-3
4.771892830E-1,1.527118147E-3,-2.443389036E-3,4.581354442E-4,2.917555124E-3
4.796335020E-1,1.527118147E-3,-1.221694518E-3,-7.635590737E-4,2.099440352E-3
4.820770430E-1,1.527118147E-3,1.221694518E-3,-1.985253533E-3,2.786729072E-3
4.845213140E-1,3.054236295E-4,-1.221694518E-3,-7.635590737E-4,1.472699408E-3
4.869664700E-1,-9.162708884E-4,-1.221694518E-3,-7.635590737E-4,1.707369994E-3
4.894107410E-1,3.054236295E-4,-1.221694518E-3,-7.635590737E-4,1.472699408E-3
4.918542310E-1,3.054236295E-4,-1.221694518E-3,-1.985253533E-3,2.350968456E-3
4.942986060E-1,3.054236295E-4,0.000000000E0,-7.635590737E-4,8.223782903E-4
4.967437100E-1,3.054236295E-4,-1.221694518E-3,4.581354442E-4,1.340040736E-3
4.991879810E-1,3.054236295E-4,0.000000000E0,4.581354442E-4,5.506102784E-4
5.016314700E-1,3.054236295E-4,0.000000000E0,1.679830020E-3,1.707370051E-3
5.040758450E-1,3.054236295E-4,0.000000000E0,4.581354442E-4,5.506102784E-4
5.065208970E-1,-9.162708884E-4,0.000000000E0,-1.985253533E-3,2.186500385E-3
5.089651680E-1,-9.162708884E-4,1.221694518E-3,-7.635590737E-4,1.707369994E-3
5.114087100E-1,3.054236295E-4,0.000000000E0,4.581354442E-4,5.506102784E-4
5.138529810E-1,3.054236295E-4,0.000000000E0,4.581354442E-4,5.506102784E-4
5.162981370E-1,3.054236295E-4,0.000000000E0,-1.985253533E-3,2.008610262E-3
5.187424080E-1,3.054236295E-4,-1.221694518E-3,-7.635590737E-4,1.472699408E-3
5.211858970E-1,1.527118147E-3,0.000000000E0,4.581354442E-4,1.594358153E-3
5.236302720E-1,3.054236295E-4,-1.221694518E-3,-7.635590737E-4,1.472699408E-3
5.260753770E-1,3.054236295E-4,0.000000000E0,4.581354442E-4,5.506102784E-4
5.285195950E-1,3.054236295E-4,-2.443389036E-3,4.581354442E-4,2.504659989E-3
5.309631370E-1,-9.162708884E-4,0.000000000E0,-1.985253533E-3,2.186500385E-3
5.334074080E-1,3.054236295E-4,0.000000000E0,-7.635590737E-4,8.223782903E-4
5.358525640E-1,1.527118147E-3,1.221694518E-3,4.581354442E-4,2.008610320E-3
5.382968350E-1,1.527118147E-3,1.221694518E-3,-7.635590737E-4,2.099440352E-3
5.407403240E-1,3.054236295E-4,0.000000000E0,1.679830020E-3,1.707370051E-3
5.431846990E-1,3.054236295E-4,0.000000000E0,-7.635590737E-4,8.223782903E-4
5.456298040E-1,-9.162708884E-4,1.221694518E-3,-1.985253533E-3,2.504659943E-3
5.480740740E-1,3.054236295E-4,0.000000000E0,-7.635590737E-4,8.223782903E-4
5.505175640E-1,3.054236295E-4,-1.221694518E-3,1.679830020E-3,2.099440398E-3
5.529619390E-1,3.054236295E-4,0.000000000E0,1.679830020E-3,1.707370051E-3
5.554069910E-1,1.527118147E-3,-2.443389036E-3,-7.635590737E-4,2.980815706E-3
5.578512620E-1,1.527118147E-3,0.000000000E0,4.581354442E-4,1.594358153E-3
5.602948040E-1,3.054236295E-4,0.000000000E0,4.581354442E-4,5.506102784E-4
5.627390740E-1,1.527118147E-3,0.000000000E0,-7.635590737E-4,1.707369994E-3
5.651842310E-1,3.054236295E-4,-1.221694518E-3,-1.985253533E-3,2.350968456E-3
5.676285020E-1,-9.162708884E-4,0.000000000E0,-7.635590737E-4,1.192717402E-3
5.700719910E-1,3.054236295E-4,-1.221694518E-3,4.581354442E-4,1.340040736E-3
5.725163660E-1,3.054236295E-4,-1.221694518E-3,4.581354442E-4,1.340040736E-3
5.749614700E-1,3.054236295E-4,-1.221694518E-3,-7.635590737E-4,1.472699408E-3
5.774056890E-1,3.054236295E-4,0.000000000E0,4.581354442E-4,5.506102784E-4
5.798492310E-1,3.054236295E-4,0.000000000E0,4.581354442E-4,5.506102784E-4
5.822935020E-1,-9.162708884E-4,-1.221694518E-3,-1.985253533E-3,2.504659943E-3
5.847386580E-1,3.054236295E-4,-2.443389036E-3,-1.985253533E-3,3.163015202E-3
5.871829290E-1,3.054236295E-4,-2.443389036E-3,-1.985253533E-3,3.163015202E-3
5.896264180E-1,3.054236295E-4,0.000000000E0,-7.635590737E-4,8.223782903E-4
5.920707930E-1,3.054236295E-4,-1.221694518E-3,-1.985253533E-3,2.350968456E-3
5.945158970E-1,3.054236295E-4,0.000000000E0,-1.985253533E-3,2.008610262E-3
5.969601680E-1,1.527118147E-3,-1.221694518E-3,1.679830020E-3,2.578072192E-3
5.994036580E-1,1.527118147E-3,-1.221694518E-3,-1.985253533E-3,2.786729072E-3
6.018480330E-1,1.527118147E-3,-1.221694518E-3,4.581354442E-4,2.008610320E-3
6.042931370E-1,1.527118147E-3,-2.443389036E-3,4.581354442E-4,2.917555124E-3
6.067373560E-1,1.527118147E-3,-2.443389036E-3,-7.635590737E-4,2.980815706E-3
6.091808970E-1,3.054236295E-4,-1.221694518E-3,-7.635590737E-4,1.472699408E-3
6.116251680E-1,1.527118147E-3,-1.221694518E-3,-7.635590737E-4,2.099440352E-3
6.140703240E-1,3.054236295E-4,1.221694518E-3,4.581354442E-4,1.340040736E-3
6.165145950E-1,-9.162708884E-4,1.221694518E-3,-7.635590737E-4,1.707369994E-3
6.189580850E-1,-9.162708884E-4,0.000000000E0,-7.635590737E-4,1.192717402E-3
6.214024600E-1,3.054236295E-4,0.000000000E0,-7.635590737E-4,8.223782903E-4
6.238475640E-1,3.054236295E-4,0.000000000E0,4.581354442E-4,5.506102784E-4
6.262917830E-1,3.054236295E-4,-1.221694518E-3,1.679830020E-3,2.099440398E-3
6.287353240E-1,3.054236295E-4,-1.221694518E-3,4.581354442E-4,1.340040736E-3
6.311796990E-1,3.054236295E-4,1.221694518E-3,-7.635590737E-4,1.472699408E-3
6.336247520E-1,3.054236295E-4,0.000000000E0,4.581354442E-4,5.506102784E-4
6.360690220E-1,3.054236295E-4,-1.221694518E-3,-7.635590737E-4,1.472699408E-3
6.385125640E-1,3.054236295E-4,-1.221694518E-3,1.679830020E-3,2.099440398E-3
6.409568350E-1,-9.162708884E-4,0.000000000E0,4.581354442E-4,1.024421996E-3
6.434019910E-1,3.054236295E-4,0.000000000E0,4.581354442E-4,5.506102784E-4
6.458462620E-1,3.054236295E-4,-2.443389036E-3,1.679830020E-3,2.980815739E-3
6.482897520E-1,3.054236295E-4,0.000000000E0,-1.985253533E-3,2.008610262E-3
6.507341270E-1,-9.162708884E-4,0.000000000E0,-7.635590737E-4,1.192717402E-3
6.531792310E-1,3.054236295E-4,-1.221694518E-3,1.679830020E-3,2.099440398E-3
6.556234490E-1,-9.162708884E-4,0.000000000E0,-7.635590737E-4,1.192717402E-3
6.580669910E-1,3.054236295E-4,-1.221694518E-3,4.581354442E-4,1.340040736E-3
6.605112620E-1,3.054236295E-4,-1.221694518E-3,4.581354442E-4,1.340040736E-3
6.629564180E-1,1.527118147E-3,0.000000000E0,4.581354442E-4,1.594358153E-3
6.654006890E-1,-9.162708884E-4,1.221694518E-3,4.581354442E-4,1.594358153E-3
6.678441790E-1,3.054236295E-4,0.000000000E0,-7.635590737E-4,8.223782903E-4
6.702885540E-1,3.054236295E-4,0.000000000E0,-7.635590737E-4,8.223782903E-4
6.727336580E-1,-9.162708884E-4,1.221694518E-3,-1.985253533E-3,2.504659943E-3
6.751778770E-1,-9.162708884E-4,-1.221694518E-3,-7.635590737E-4,1.707369994E-3
6.776214180E-1,3.054236295E-4,-2.443389036E-3,-7.635590737E-4,2.578072154E-3
6.800657930E-1,3.054236295E-4,-2.443389036E-3,-7.635590737E-4,2.578072154E-3
6.825108450E-1,3.054236295E-4,-1.221694518E-3,4.581354442E-4,1.340040736E-3
6.849551160E-1,-9.162708884E-4,1.221694518E-3,4.581354442E-4,1.594358153E-3
6.873986580E-1,-9.162708884E-4,0.000000000E0,4.581354442E-4,1.024421996E-3
6.898429290E-1,-2.137965523E-3,1.221694518E-3,-7.635590737E-4,2.578072251E-3
6.922880850E-1,3.054236295E-4,-2.443389036E-3,4.581354442E-4,2.504659989E-3
6.947323560E-1,-2.137965523E-3,1.221694518E-3,-7.635590737E-4,2.578072251E-3
6.971758450E-1,3.054236295E-4,1.221694518E-3,4.581354442E-4,1.340040736E-3
6.996202200E-1,-9.162708884E-4,-1.221694518E-3,4.581354442E-4,1.594358153E-3
7.020653240E-1,-9.162708884E-4,0.000000000E0,4.581354442E-4,1.024421996E-3
7.045095430E-1,-9.162708884E-4,-1.221694518E-3,1.679830020E-3,2.270224379E-3
7.069530850E-1,3.054236295E-4,0.000000000E0,4.581354442E-4,5.506102784E-4
7.093974600E-1,3.054236295E-4,-1.221694518E-3,-1.985253533E-3,2.350968456E-3
7.118425120E-1,1.527118147E-3,0.000000000E0,-7.635590737E-4,1.707369994E-3
7.142867830E-1,3.054236295E-4,0.000000000E0,4.581354442E-4,5.506102784E-4
7.167302720E-1,1.527118147E-3,-1.221694518E-3,4.581354442E-4,2.008610320E-3
7.191746470E-1,3.054236295E-4,1.221694518E-3,1.679830020E-3,2.099440398E-3
7.216197520E-1,3.054236295E-4,-1.221694518E-3,1.679830020E-3,2.099440398E-3
7.240640220E-1,3.054236295E-4,0.000000000E0,1.679830020E-3,1.707370051E-3
7.265075120E-1,1.527118147E-3,0.000000000E0,-7.635590737E-4,1.707369994E-3
7.289518870E-1,3.054236295E-4,1.221694518E-3,-7.635590737E-4,1.472699408E-3
7.313969910E-1,3.054236295E-4,0.000000000E0,1.679830020E-3,1.707370051E-3
7.338412100E-1,3.054236295E-4,-1.221694518E-3,4.581354442E-4,1.340040736E-3
7.362847520E-1,-9.162708884E-4,-1.221694518E-3,-7.635590737E-4,1.707369994E-3
7.387290220E-1,3.054236295E-4,-1.221694518E-3,-1.985253533E-3,2.350968456E-3
7.411741790E-1,-9.162708884E-4,-1.221694518E-3,4.581354442E-4,1.594358153E-3
7.436184490E-1,-9.162708884E-4,0.000000000E0,-7.635590737E-4,1.192717402E-3
7.460619390E-1,-9.162708884E-4,-1.221694518E-3,4.581354442E-4,1.594358153E-3
7.485063140E-1,1.527118147E-3,-1.221694518E-3,-7.635590737E-4,2.099440352E-3
7.509514180E-1,3.054236295E-4,0.000000000E0,-7.635590737E-4,8.223782903E-4
7.533956370E-1,-9.162708884E-4,-1.221694518E-3,4.581354442E-4,1.594358153E-3
7.558391790E-1,3.054236295E-4,0.000000000E0,4.581354442E-4,5.506102784E-4
7.582835540E-1,1.527118147E-3,-2.443389036E-3,4.581354442E-4,2.917555124E-3
7.607286580E-1,3.054236295E-4,-1.221694518E-3,-1.985253533E-3,2.350968456E-3
7.631728770E-1,3.054236295E-4,-1.221694518E-3,-7.635590737E-4,1.472699408E-3
7.656163660E-1,3.054236295E-4,0.000000000E0,4.581354442E-4,5.506102784E-4
7.680607410E-1,3.054236295E-4,0.000000000E0,-7.635590737E-4,8.223782903E-4
7.705058450E-1,-9.162708884E-4,0.000000000E0,-7.635590737E-4,1.192717402E-3
7.729501160E-1,3.054236295E-4,1.221694518E-3,-7.635590737E-4,1.472699408E-3
7.753936060E-1,-9.162708884E-4,0.000000000E0,4.581354442E-4,1.024421996E-3
7.778379810E-1,3.054236295E-4,-1.221694518E-3,4.581354442E-4,1.340040736E-3
7.802830850E-1,1.527118147E-3,0.000000000E0,4.581354442E-4,1.594358153E-3
7.827273040E-1,3.054236295E-4,-1.221694518E-3,4.581354442E-4,1.340040736E-3
7.851708450E-1,1.527118147E-3,-2.443389036E-3,1.679830020E-3,3.335276407E-3
7.876151160E-1,3.054236295E-4,-1.221694518E-3,4.581354442E-4,1.340040736E-3
7.900602720E-1,1.527118147E-3,0.000000000E0,4.581354442E-4,1.594358153E-3
7.925045430E-1,3.054236295E-4,0.000000000E0,2.901524538E-3,2.917555182E-3
7.949480330E-1,1.527118147E-3,-1.221694518E-3,4.123218823E-3,4.563503128E-3
7.973924080E-1,3.054236295E-4,-1.221694518E-3,4.581354442E-4,1.340040736E-3
7.998375120E-1,3.054236295E-4,0.000000000E0,2.901524538E-3,2.917555182E-3
8.022817830E-1,3.054236295E-4,-1.221694518E-3,-7.635590737E-4,1.472699408E-3
8.047252720E-1,3.054236295E-4,-1.221694518E-3,-1.985253533E-3,2.350968456E-3
8.071696470E-1,-9.162708884E-4,0.000000000E0,-7.635590737E-4,1.192717402E-3
8.096147520E-1,3.054236295E-4,-1.221694518E-3,4.581354442E-4,1.340040736E-3
8.120589700E-1,-9.162708884E-4,1.221694518E-3,1.679830020E-3,2.270224379E-3
8.145024600E-1,3.054236295E-4,-1.221694518E-3,-7.635590737E-4,1.472699408E-3
8.169468350E-1,3.054236295E-4,0.000000000E0,-1.985253533E-3,2.008610262E-3
8.193919390E-1,3.054236295E-4,0.000000000E0,-7.635590737E-4,8.223782903E-4
8.218362100E-1,-9.162708884E-4,0.000000000E0,2.901524538E-3,3.042761408E-3
8.242796990E-1,-9.162708884E-4,0.000000000E0,4.581354442E-4,1.024421996E-3
8.267240740E-1,3.054236295E-4,-1.221694518E-3,-7.635590737E-4,1.472699408E-3
8.291691790E-1,1.527118147E-3,-1.221694518E-3,-7.635590737E-4,2.099440352E-3
8.316133970E-1,1.527118147E-3,-1.221694518E-3,4.581354442E-4,2.008610320E-3
8.340569390E-1,-9.162708884E-4,-1.221694518E-3,-7.635590737E-4,1.707369994E-3
8.365012100E-1,-9.162708884E-4,0.000000000E0,-7.635590737E-4,1.192717402E-3
8.389463660E-1,3.054236295E-4,0.000000000E0,-7.635590737E-4,8.223782903E-4
8.413906370E-1,3.054236295E-4,0.000000000E0,2.901524538E-3,2.917555182E-3
8.438341790E-1,3.054236295E-4,-1.221694518E-3,-7.635590737E-4,1.472699408E-3
8.462784490E-1,1.527118147E-3,-1.221694518E-3,4.581354442E-4,2.008610320E-3
8.487236060E-1,3.054236295E-4,0.000000000E0,4.581354442E-4,5.506102784E-4
8.511678770E-1,1.527118147E-3,0.000000000E0,4.581354442E-4,1.594358153E-3
8.536113660E-1,-9.162708884E-4,0.000000000E0,-7.635590737E-4,1.192717402E-3
8.560557410E-1,-2.137965523E-3,0.000000000E0,4.581354442E-4,2.186500551E-3
8.585008450E-1,-9.162708884E-4,0.000000000E0,4.581354442E-4,1.024421996E-3
8.609450640E-1,3.054236295E-4,0.000000000E0,-7.635590737E-4,8.223782903E-4
8.633886060E-1,3.054236295E-4,0.000000000E0,-7.635590737E-4,8.223782903E-4
8.658328770E-1,3.054236295E-4,-2.443389036E-3,4.581354442E-4,2.504659989E-3
8.682780330E-1,1.527118147E-3,-2.443389036E-3,-7.635590737E-4,2.980815706E-3
8.707223040E-1,3.054236295E-4,0.000000000E0,4.581354442E-4,5.506102784E-4
8.731657930E-1,-9.162708884E-4,-1.221694518E-3,-7.635590737E-4,1.707369994E-3
8.756101680E-1,1.527118147E-3,-2.443389036E-3,4.581354442E-4,2.917555124E-3
8.780552720E-1,3.054236295E-4,0.000000000E0,1.679830020E-3,1.707370051E-3
8.804995430E-1,-9.162708884E-4,0.000000000E0,4.581354442E-4,1.024421996E-3
8.829430330E-1,-9.162708884E-4,0.000000000E0,-7.635590737E-4,1.192717402E-3
8.853874080E-1,3.054236295E-4,-1.221694518E-3,-7.635590737E-4,1.472699408E-3
8.878325120E-1,3.054236295E-4,0.000000000E0,-7.635590737E-4,8.223782903E-4
8.902767310E-1,-9.162708884E-4,-1.221694518E-3,-4.428642802E-3,4.684545539E-3
8.927202720E-1,3.054236295E-4,-1.221694518E-3,4.581354442E-4,1.340040736E-3
8.951645430E-1,-9.162708884E-4,-1.221694518E-3,-7.635590737E-4,1.707369994E-3
8.976096990E-1,3.054236295E-4,0.000000000E0,-1.985253533E-3,2.008610262E-3
9.000539700E-1,-9.162708884E-4,1.221694518E-3,-7.635590737E-4,1.707369994E-3
9.024974600E-1,1.527118147E-3,0.000000000E0,-7.635590737E-4,1.707369994E-3
9.049418350E-1,3.054236295E-4,0.000000000E0,1.679830020E-3,1.707370051E-3
9.073869390E-1,3.054236295E-4,-1.221694518E-3,4.581354442E-4,1.340040736E-3
9.098311580E-1,1.527118147E-3,-2.443389036E-3,-7.635590737E-4,2.980815706E-3
9.122746990E-1,3.054236295E-4,0.000000000E0,2.901524538E-3,2.917555182E-3
9.147190740E-1,3.054236295E-4,-2.443389036E-3,4.581354442E-4,2.504659989E-3
9.171641270E-1,3.054236295E-4,-2.443389036E-3,4.581354442E-4,2.504659989E-3
9.196083970E-1,1.527118147E-3,-2.443389036E-3,4.581354442E-4,2.917555124E-3
9.220519390E-1,-9.162708884E-4,-1.221694518E-3,-7.635590737E-4,1.707369994E-3
9.244962100E-1,-2.137965523E-3,1.221694518E-3,-7.635590737E-4,2.578072251E-3
9.269413660E-1,3.054236295E-4,-1.221694518E-3,-1.985253533E-3,2.350968456E-3
9.293856370E-1,3.054236295E-4,0.000000000E0,-7.635590737E-4,8.223782903E-4
9.318291270E-1,-9.162708884E-4,-1.221694518E-3,-7.635590737E-4,1.707369994E-3
9.342735020E-1,3.054236295E-4,-2.443389036E-3,-7.635590737E-4,2.578072154E-3
9.367186060E-1,3.054236295E-4,0.000000000E0,1.679830020E-3,1.707370051E-3
9.391628240E-1,3.054236295E-4,-1.221694518E-3,-7.635590737E-4,1.472699408E-3
9.416063660E-1,3.054236295E-4,0.000000000E0,4.581354442E-4,5.506102784E-4
9.440506370E-1,-9.162708884E-4,1.221694518E-3,4.581354442E-4,1.594358153E-3
9.464957930E-1,-9.162708884E-4,1.221694518E-3,4.581354442E-4,1.594358153E-3
9.489400640E-1,-9.162708884E-4,1.221694518E-3,-7.635590737E-4,1.707369994E-3
9.513835540E-1,-9.162708884E-4,0.000000000E0,4.581354442E-4,1.024421996E-3
9.538279290E-1,-9.162708884E-4,-1.221694518E-3,1.679830020E-3,2.270224379E-3
9.562730330E-1,3.054236295E-4,-1.221694518E-3,-7.635590737E-4,1.472699408E-3
9.587173040E-1,3.054236295E-4,0.000000000E0,4.581354442E-4,5.506102784E-4
9.611607930E-1,-9.162708884E-4,0.000000000E0,-3.206948051E-3,3.335276322E-3
9.636051680E-1,3.054236295E-4,0.000000000E0,-7.635590737E-4,8.223782903E-4
9.660502720E-1,3.054236295E-4,0.000000000E0,4.581354442E-4,5.506102784E-4
9.684944910E-1,-9.162708884E-4,0.000000000E0,-7.635590737E-4,1.192717402E-3
9.709380330E-1,3.054236295E-4,0.000000000E0,4.581354442E-4,5.506102784E-4
9.733823040E-1,3.054236295E-4,0.000000000E0,-7.635590737E-4,8.223782903E-4
9.758274600E-1,3.054236295E-4,0.000000000E0,-7.635590737E-4,8.223782903E-4
9.782717310E-1,1.527118147E-3,0.000000000E0,4.581354442E-4,1.594358153E-3
9.807152200E-1,3.054236295E-4,0.000000000E0,-1.985253533E-3,2.008610262E-3
9.831595950E-1,3.054236295E-4,-1.221694518E-3,-7.635590737E-4,1.472699408E-3
9.856046990E-1,-9.162708884E-4,0.000000000E0,-7.635590737E-4,1.192717402E-3
9.880489180E-1,-9.162708884E-4,-1.221694518E-3,-1.985253533E-3,2.504659943E-3
9.904924600E-1,-9.162708884E-4,0.000000000E0,-1.985253533E-3,2.186500385E-3
9.929368350E-1,3.054236295E-4,1.221694518E-3,-7.635590737E-4,1.472699408E-3
9.953818870E-1,-9.162708884E-4,1.221694518E-3,-7.635590737E-4,1.707369994E-3
9.978261580E-1,-9.162708884E-4,-1.221694518E-3,-1.985253533E-3,2.504659943E-3
1.000269699E0,3.054236295E-4,-2.443389036E-3,4.581354442E-4,2.504659989E-3
1.002713970E0,3.054236295E-4,0.000000000E0,4.581354442E-4,5.506102784E-4
1.005159127E0,-9.162708884E-4,-1.221694518E-3,-1.985253533E-3,2.504659943E-3
1.007603397E0,3.054236295E-4,0.000000000E0,-7.635590737E-4,8.223782903E-4
1.010046887E0,1.527118147E-3,-1.221694518E-3,-7.635590737E-4,2.099440352E-3
1.012491262E0,3.054236295E-4,-1.221694518E-3,-7.635590737E-4,1.472699408E-3
1.014936366E0,-9.162708884E-4,0.000000000E0,4.581354442E-4,1.024421996E-3
1.017380585E0,-9.162708884E-4,-1.221694518E-3,-7.635590737E-4,1.707369994E-3
1.019824127E0,3.054236295E-4,-2.443389036E-3,-7.635590737E-4,2.578072154E-3
1.022268397E0,1.527118147E-3,-3.665083554E-3,-7.635590737E-4,4.043259793E-3
1.024713554E0,1.527118147E-3,0.000000000E0,4.581354442E-4,1.594358153E-3
1.027157824E0,-9.162708884E-4,0.000000000E0,4.581354442E-4,1.024421996E-3
1.029601314E0,-9.162708884E-4,0.000000000E0,4.581354442E-4,1.024421996E-3
1.032045689E0,-9.162708884E-4,-1.221694518E-3,-7.635590737E-4,1.707369994E-3
1.034490793E0,3.054236295E-4,0.000000000E0,4.581354442E-4,5.506102784E-4
1.036935064E0,3.054236295E-4,0.000000000E0,4.581354442E-4,5.506102784E-4
1.039378554E0,3.054236295E-4,-1.221694518E-3,4.581354442E-4,1.340040736E-3
1.041822929E0,-9.162708884E-4,0.000000000E0,4.581354442E-4,1.024421996E-3
1.044268033E0,3.054236295E-4,-2.443389036E-3,-7.635590737E-4,2.578072154E-3
1.046712252E0,-9.162708884E-4,0.000000000E0,-7.635590737E-4,1.192717402E-3
1.049155793E0,-9.162708884E-4,1.221694518E-3,-1.985253533E-3,2.504659943E-3
1.051600064E0,3.054236295E-4,-1.221694518E-3,-1.985253533E-3,2.350968456E-3
1.054045220E0,3.054236295E-4,-1.221694518E-3,4.581354442E-4,1.340040736E-3
1.056489491E0,3.054236295E-4,-1.221694518E-3,-7.635590737E-4,1.472699408E-3
1.058932981E0,-9.162708884E-4,-2.443389036E-3,-1.985253533E-3,3.278861679E-3
1.061377356E0,-9.162708884E-4,0.000000000E0,-7.635590737E-4,1.192717402E-3
1.063822460E0,3.054236295E-4,-1.221694518E-3,1.679830020E-3,2.099440398E-3
1.066266731E0,-9.162708884E-4,0.000000000E0,-7.635590737E-4,1.192717402E-3
1.068710220E0,3.054236295E-4,0.000000000E0,-7.635590737E-4,8.223782903E-4
1.071154595E0,1.527118147E-3,-2.443389036E-3,1.679830020E-3,3.335276407E-3
1.073599699E0,3.054236295E-4,0.000000000E0,4.581354442E-4,5.506102784E-4
1.076043918E0,3.054236295E-4,0.000000000E0,-7.635590737E-4,8.223782903E-4
1.078487460E0,3.054236295E-4,-1.221694518E-3,-7.635590737E-4,1.472699408E-3
1.080931731E0,3.054236295E-4,-1.221694518E-3,4.581354442E-4,1.340040736E-3
1.083376887E0,3.054236295E-4,-1.221694518E-3,4.581354442E-4,1.340040736E-3
1.085821158E0,3.054236295E-4,-1.221694518E-3,4.581354442E-4,1.340040736E-3
1.088264647E0,3.054236295E-4,-2.443389036E-3,4.581354442E-4,2.504659989E-3
1.090709022E0,-2.137965523E-3,0.000000000E0,-1.985253533E-3,2.917555170E-3
1.093154127E0,-9.162708884E-4,0.000000000E0,-7.635590737E-4,1.192717402E-3
1.095598345E0,3.054236295E-4,-1.221694518E-3,4.581354442E-4,1.340040736E-3
1.098041887E0,3.054236295E-4,0.000000000E0,-1.985253533E-3,2.008610262E-3
1.100486262E0,3.054236295E-4,1.221694518E-3,-7.635590737E-4,1.472699408E-3
1.102931314E0,3.054236295E-4,-1.221694518E-3,1.679830020E-3,2.099440398E-3
1.105375585E0,3.054236295E-4,0.000000000E0,4.581354442E-4,5.506102784E-4
1.107819127E0,3.054236295E-4,-1.221694518E-3,-7.635590737E-4,1.472699408E-3
1.110263397E0,-9.162708884E-4,1.221694518E-3,4.581354442E-4,1.594358153E-3
1.112708554E0,3.054236295E-4,0.000000000E0,1.679830020E-3,1.707370051E-3
1.115152824E0,-9.162708884E-4,1.221694518E-3,-7.635590737E-4,1.707369994E-3
1.117596314E0,3.054236295E-4,0.000000000E0,-7.635590737E-4,8.223782903E-4
1.120040689E0,1.527118147E-3,0.000000000E0,4.581354442E-4,1.594358153E-3
1.122485793E0,3.054236295E-4,-1.221694518E-3,4.581354442E-4,1.340040736E-3
1.124930012E0,-9.162708884E-4,-1.221694518E-3,-7.635590737E-4,1.707369994E-3
1.127373554E0,-9.162708884E-4,-1.221694518E-3,-4.428642802E-3,4.684545539E-3
1.129817824E0,-9.162708884E-4,-1.221694518E-3,4.581354442E-4,1.594358153E-3
1.132262981E0,3.054236295E-4,1.221694518E-3,1.679830020E-3,2.099440398E-3
1.134707252E0,-9.162708884E-4,0.000000000E0,-7.635590737E-4,1.192717402E-3
1.137150741E0,-9.162708884E-4,0.000000000E0,-7.635590737E-4,1.192717402E-3
1.139595116E0,3.054236295E-4,0.000000000E0,-7.635590737E-4,8.223782903E-4
1.142040220E0,3.054236295E-4,1.221694518E-3,4.581354442E-4,1.340040736E-3
1.144484491E0,-9.162708884E-4,1.221694518E-3,4.581354442E-4,1.594358153E-3
1.146927981E0,-9.162708884E-4,0.000000000E0,4.581354442E-4,1.024421996E-3
1.149372356E0,-9.162708884E-4,0.000000000E0,4.581354442E-4,1.024421996E-3
1.151817460E0,3.054236295E-4,0.000000000E0,2.901524538E-3,2.917555182E-3
1.154261679E0,3.054236295E-4,0.000000000E0,-7.635590737E-4,8.223782903E-4
1.156705220E0,-9.162708884E-4,0.000000000E0,4.581354442E-4,1.024421996E-3
1.159149491E0,-9.162708884E-4,-1.221694518E-3,-7.635590737E-4,1.707369994E-3
1.161594647E0,3.054236295E-4,0.000000000E0,-7.635590737E-4,8.223782903E-4
1.164038918E0,1.527118147E-3,-1.221694518E-3,-7.635590737E-4,2.099440352E-3
1.166482408E0,3.054236295E-4,-1.221694518E-3,-7.635590737E-4,1.472699408E-3
1.168926783E0,3.054236295E-4,-1.221694518E-3,-7.635590737E-4,1.472699408E-3
1.171371887E0,3.054236295E-4,0.000000000E0,-1.985253533E-3,2.008610262E-3
1.173816158E0,3.054236295E-4,0.000000000E0,-1.985253533E-3,2.008610262E-3
1.176259647E0,-9.162708884E-4,0.000000000E0,4.581354442E-4,1.024421996E-3
1.178704022E0,3.054236295E-4,0.000000000E0,-7.635590737E-4,8.223782903E-4
1.181149127E0,1.527118147E-3,-2.443389036E-3,4.581354442E-4,2.917555124E-3
1.183593345E0,1.527118147E-3,0.000000000E0,4.581354442E-4,1.594358153E-3
1.186036887E0,-9.162708884E-4,-1.221694518E-3,-7.635590737E-4,1.707369994E-3
1.188481158E0,-9.162708884E-4,-1.221694518E-3,4.581354442E-4,1.594358153E-3
1.190926314E0,-9.162708884E-4,0.000000000E0,-7.635590737E-4,1.192717402E-3
1.193370585E0,3.054236295E-4,0.000000000E0,4.581354442E-4,5.506102784E-4
1.195814074E0,-9.162708884E-4,1.221694518E-3,-7.635590737E-4,1.707369994E-3
1.198258449E0,3.054236295E-4,-1.221694518E-3,4.581354442E-4,1.340040736E-3
1.200703554E0,-9.162708884E-4,-1.221694518E-3,4.581354442E-4,1.594358153E-3
1.203147824E0,3.054236295E-4,0.000000000E0,-7.635590737E-4,8.223782903E-4
1.205591314E0,3.054236295E-4,0.000000000E0,4.581354442E-4,5.506102784E-4
1.208035689E0,-9.162708884E-4,0.000000000E0,-1.985253533E-3,2.186500385E-3
1.210480741E0,3.054236295E-4,-2.443389036E-3,4.581354442E-4,2.504659989E-3
1.212925012E0,3.054236295E-4,-3.665083554E-3,4.581354442E-4,3.706212235E-3
1.215368554E0,3.054236295E-4,-2.443389036E-3,4.581354442E-4,2.504659989E-3
1.217812824E0,3.054236295E-4,0.000000000E0,4.581354442E-4,5.506102784E-4
1.220257981E0,-9.162708884E-4,1.221694518E-3,-7.635590737E-4,1.707369994E-3
1.222702252E0,3.054236295E-4,-1.221694518E-3,-1.985253533E-3,2.350968456E-3
1.225145741E0,-9.162708884E-4,1.221694518E-3,1.679830020E-3,2.270224379E-3
1.227590116E0,-9.162708884E-4,-1.221694518E-3,-1.985253533E-3,2.504659943E-3
1.230035220E0,-9.162708884E-4,0.000000000E0,-1.985253533E-3,2.186500385E-3
1.232479439E0,-9.162708884E-4,2.443389036E-3,4.581354442E-4,2.649450963E-3
1.234922981E0,3.054236295E-4,0.000000000E0,-7.635590737E-4,8.223782903E-4
1.237367356E0,-9.162708884E-4,0.000000000E0,-7.635590737E-4,1.192717402E-3
1.239812408E0,3.054236295E-4,0.000000000E0,4.581354442E-4,5.506102784E-4
1.242256679E0,3.054236295E-4,0.000000000E0,-7.635590737E-4,8.223782903E-4
1.244700168E0,3.054236295E-4,-1.221694518E-3,4.581354442E-4,1.340040736E-3
1.247144543E0,3.054236295E-4,0.000000000E0,4.581354442E-4,5.506102784E-4
1.249589647E0,3.054236295E-4,0.000000000E0,-7.635590737E-4,8.223782903E-4
1.252033918E0,-9.162708884E-4,1.221694518E-3,-1.985253533E-3,2.504659943E-3
1.254477408E0,-9.162708884E-4,0.000000000E0,-1.985253533E-3,2.186500385E-3
1.256921783E0,-9.162708884E-4,-1.221694518E-3,-7.635590737E-4,1.707369994E-3
1.259366887E0,-9.162708884E-4,1.221694518E-3,-7.635590737E-4,1.707369994E-3
1.261811106E0,-2.137965523E-3,1.221694518E-3,-1.985253533E-3,3.163015280E-3
1.264254647E0,3.054236295E-4,1.221694518E-3,4.581354442E-4,1.340040736E-3
1.266698918E0,3.054236295E-4,0.000000000E0,1.679830020E-3,1.707370051E-3
1.269144074E0,-9.162708884E-4,-1.221694518E-3,-7.635590737E-4,1.707369994E-3
1.271588345E0,-9.162708884E-4,-1.221694518E-3,-1.985253533E-3,2.504659943E-3
1.274031835E0,3.054236295E-4,0.000000000E0,4.581354442E-4,5.506102784E-4
1.276476210E0,1.527118147E-3,0.000000000E0,-7.635590737E-4,1.707369994E-3
1.278921314E0,3.054236295E-4,-1.221694518E-3,-7.635590737E-4,1.472699408E-3
1.281365585E0,-9.162708884E-4,-1.221694518E-3,-1.985253533E-3,2.504659943E-3
1.283809074E0,3.054236295E-4,-1.221694518E-3,4.581354442E-4,1.340040736E-3
1.286253449E0,-9.162708884E-4,-1.221694518E-3,1.679830020E-3,2.270224379E-3
1.288698554E0,3.054236295E-4,0.000000000E0,4.581354442E-4,5.506102784E-4
1.291142772E0,3.054236295E-4,1.221694518E-3,4.581354442E-4,1.340040736E-3
1.293586314E0,-9.162708884E-4,0.000000000E0,-7.635590737E-4,1.192717402E-3
1.296030585E0,1.527118147E-3,-1.221694518E-3,4.581354442E-4,2.008610320E-3
1.298475741E0,3.054236295E-4,-1.221694518E-3,1.679830020E-3,2.099440398E-3
1.300920012E0,-9.162708884E-4,0.000000000E0,-7.635590737E-4,1.192717402E-3
1.303363502E0,-2.137965523E-3,1.221694518E-3,-1.985253533E-3,3.163015280E-3
1.305807877E0,-9.162708884E-4,0.000000000E0,4.581354442E-4,1.024421996E-3
1.308252981E0,3.054236295E-4,0.000000000E0,1.679830020E-3,1.707370051E-3
1.310697252E0,-9.162708884E-4,0.000000000E0,4.581354442E-4,1.024421996E-3
1.313140741E0,-9.162708884E-4,0.000000000E0,-7.635590737E-4,1.192717402E-3
1.315585116E0,3.054236295E-4,0.000000000E0,-7.635590737E-4,8.223782903E-4
1.318030220E0,3.054236295E-4,0.000000000E0,-7.635590737E-4,8.223782903E-4
1.320474439E0,3.054236295E-4,1.221694518E-3,-1.985253533E-3,2.350968456E-3
1.322917981E0,3.054236295E-4,-1.221694518E-3,-7.635590737E-4,1.472699408E-3
1.325362252E0,-9.162708884E-4,0.000000000E0,4.581354442E-4,1.024421996E-3
1.327807408E0,-2.137965523E-3,-1.221694518E-3,1.679830020E-3,2.980815823E-3
1.330251679E0,3.054236295E-4,-1.221694518E-3,-1.985253533E-3,2.350968456E-3
1.332695168E0,1.527118147E-3,0.000000000E0,4.581354442E-4,1.594358153E-3
1.335139543E0,1.527118147E-3,0.000000000E0,4.581354442E-4,1.594358153E-3
1.337584647E0,-9.162708884E-4,2.443389036E-3,4.581354442E-4,2.649450963E-3
1.340028918E0,3.054236295E-4,0.000000000E0,4.581354442E-4,5.506102784E-4
1.342472408E0,3.054236295E-4,0.000000000E0,-1.985253533E-3,2.008610262E-3
1.344916783E0,1.527118147E-3,0.000000000E0,-7.635590737E-4,1.707369994E-3
1.347361887E0,3.054236295E-4,0.000000000E0,4.581354442E-4,5.506102784E-4
1.349806106E0,3.054236295E-4,-1.221694518E-3,4.581354442E-4,1.340040736E-3
1.352249647E0,3.054236295E-4,-1.221694518E-3,-7.635590737E-4,1.472699408E-3
1.354693918E0,3.054236295E-4,0.000000000E0,-1.985253533E-3,2.008610262E-3
1.357139074E0,3.054236295E-4,-1.221694518E-3,-7.635590737E-4,1.472699408E-3
1.359583345E0,1.527118147E-3,-1.221694518E-3,4.581354442E-4,2.008610320E-3
1.362026835E0,3.054236295E-4,-1.221694518E-3,4.581354442E-4,1.340040736E-3
1.364471210E0,-9.162708884E-4,0.000000000E0,4.581354442E-4,1.024421996E-3
1.366916314E0,-9.162708884E-4,0.000000000E0,-7.635590737E-4,1.192717402E-3
1.369360533E0,3.054236295E-4,-1.221694518E-3,4.581354442E-4,1.340040736E-3
1.371804074E0,3.054236295E-4,-1.221694518E-3,4.581354442E-4,1.340040736E-3
1.374248449E0,3.054236295E-4,-1.221694518E-3,1.679830020E-3,2.099440398E-3
1.376693502E0,1.527118147E-3,-1.221694518E-3,1.679830020E-3,2.578072192E-3
1.379137772E0,1.527118147E-3,-1.221694518E-3,1.679830020E-3,2.578072192E-3
1.381581314E0,3.054236295E-4,0.000000000E0,-7.635590737E-4,8.223782903E-4
1.384025585E0,-9.162708884E-4,1.221694518E-3,-7.635590737E-4,1.707369994E-3
1.386470741E0,3.054236295E-4,-2.443389036E-3,-7.635590737E-4,2.578072154E-3
1.388915012E0,1.527118147E-3,-1.221694518E-3,-7.635590737E-4,2.099440352E-3
1.391358502E0,1.527118147E-3,0.000000000E0,4.581354442E-4,1.594358153E-3
1.393802877E0,3.054236295E-4,0.000000000E0,-7.635590737E-4,8.223782903E-4
1.396247981E0,-9.162708884E-4,0.000000000E0,4.581354442E-4,1.024421996E-3
1.398692199E0,3.054236295E-4,-1.221694518E-3,4.581354442E-4,1.340040736E-3
1.401135741E0,3.054236295E-4,-1.221694518E-3,4.581354442E-4,1.340040736E-3
1.403580012E0,-9.162708884E-4,0.000000000E0,4.581354442E-4,1.024421996E-3
1.406025168E0,3.054236295E-4,0.000000000E0,4.581354442E-4,5.506102784E-4
1.408469439E0,-9.162708884E-4,0.000000000E0,-7.635590737E-4,1.192717402E-3
1.410912981E0,1.527118147E-3,-1.221694518E-3,4.581354442E-4,2.008610320E-3
1.413357252E0,1.527118147E-3,-1.221694518E-3,-3.206948051E-3,3.756213936E-3
1.415802408E0,1.527118147E-3,-2.443389036E-3,1.679830020E-3,3.335276407E-3
1.418246679E0,-9.162708884E-4,0.000000000E0,1.679830020E-3,1.913473605E-3
1.420690168E0,3.054236295E-4,0.000000000E0,4.581354442E-4,5.506102784E-4
1.423134543E0,-9.162708884E-4,0.000000000E0,-1.985253533E-3,2.186500385E-3
1.425579647E0,3.054236295E-4,-1.221694518E-3,-7.635590737E-4,1.472699408E-3
1.428023866E0,3.054236295E-4,-1.221694518E-3,1.679830020E-3,2.099440398E-3
1.430467408E0,3.054236295E-4,-1.221694518E-3,4.581354442E-4,1.340040736E-3
1.432911679E0,3.054236295E-4,-1.221694518E-3,-7.635590737E-4,1.472699408E-3
1.435356835E0,-9.162708884E-4,1.221694518E-3,-7.635590737E-4,1.707369994E-3
1.437801106E0,-9.162708884E-4,0.000000000E0,1.679830020E-3,1.913473605E-3
1.440244595E0,-9.162708884E-4,1.221694518E-3,4.581354442E-4,1.594358153E-3
1.442688970E0,-9.162708884E-4,-1.221694518E-3,4.581354442E-4,1.594358153E-3
1.445134074E0,3.054236295E-4,0.000000000E0,4.581354442E-4,5.506102784E-4
1.447578345E0,3.054236295E-4,1.221694518E-3,4.581354442E-4,1.340040736E-3
1.450021835E0,-9.162708884E-4,0.000000000E0,4.581354442E-4,1.024421996E-3
1.452466210E0,3.054236295E-4,0.000000000E0,4.581354442E-4,5.506102784E-4
1.454911314E0,3.054236295E-4,0.000000000E0,1.679830020E-3,1.707370051E-3
1.457355533E0,1.527118147E-3,-1.221694518E-3,4.581354442E-4,2.008610320E-3
1.459799074E0,3.054236295E-4,-1.221694518E-3,1.679830020E-3,2.099440398E-3
1.462243345E0,-9.162708884E-4,1.221694518E-3,4.581354442E-4,1.594358153E-3
1.464688502E0,-9.162708884E-4,1.221694518E-3,-1.985253533E-3,2.504659943E-3
1.467132772E0,3.054236295E-4,1.221694518E-3,1.679830020E-3,2.099440398E-3
1.469576262E0,3.054236295E-4,0.000000000E0,4.581354442E-4,5.506102784E-4
1.472020637E0,1.527118147E-3,-1.221694518E-3,-1.985253533E-3,2.786729072E-3
1.474465741E0,2.748812549E-3,-1.221694518E-3,1.679830020E-3,3.445335516E-3
1.476910012E0,3.054236295E-4,0.000000000E0,1.679830020E-3,1.707370051E-3
1.479353502E0,3.054236295E-4,-1.221694518E-3,-7.635590737E-4,1.472699408E-3
1.481797877E0,-9.162708884E-4,-1.221694518E-3,-7.635590737E-4,1.707369994E-3
1.484242981E0,3.054236295E-4,-1.221694518E-3,4.581354442E-4,1.340040736E-3
1.486687199E0,3.054236295E-4,-1.221694518E-3,4.581354442E-4,1.340040736E-3
1.489130741E0,3.054236295E-4,0.000000000E0,-7.635590737E-4,8.223782903E-4
1.491575012E0,-9.162708884E-4,-1.221694518E-3,-7.635590737E-4,1.707369994E-3
1.494020168E0,-9.162708884E-4,-2.443389036E-3,-7.635590737E-4,2.718956561E-3
1.496464439E0,3.054236295E-4,0.000000000E0,-7.635590737E-4,8.223782903E-4
1.498907929E0,1.527118147E-3,0.000000000E0,-7.635590737E-4,1.707369994E-3
1.501352304E0,-9.162708884E-4,-1.221694518E-3,-7.635590737E-4,1.707369994E-3
1.503797408E0,-9.162708884E-4,0.000000000E0,1.679830020E-3,1.913473605E-3
1.506241679E0,-2.137965523E-3,1.221694518E-3,4.581354442E-4,2.504660088E-3
1.508685168E0,-9.162708884E-4,1.221694518E-3,4.581354442E-4,1.594358153E-3
1.511129543E0,3.054236295E-4,1.221694518E-3,1.679830020E-3,2.099440398E-3
1.513574647E0,3.054236295E-4,-1.221694518E-3,1.679830020E-3,2.099440398E-3
1.516018866E0,1.527118147E-3,1.221694518E-3,2.901524538E-3,3.499067301E-3
1.518462408E0,-9.162708884E-4,0.000000000E0,4.581354442E-4,1.024421996E-3
1.520906679E0,-9.162708884E-4,-1.221694518E-3,-7.635590737E-4,1.707369994E-3
1.523351835E0,3.054236295E-4,-2.443389036E-3,-7.635590737E-4,2.578072154E-3
1.525796106E0,3.054236295E-4,-2.443389036E-3,4.581354442E-4,2.504659989E-3
1.528239595E0,3.054236295E-4,-1.221694518E-3,4.581354442E-4,1.340040736E-3
1.530683970E0,3.054236295E-4,1.221694518E-3,-7.635590737E-4,1.472699408E-3
1.533129074E0,-9.162708884E-4,0.000000000E0,-1.985253533E-3,2.186500385E-3
1.535573345E0,3.054236295E-4,0.000000000E0,-1.985253533E-3,2.008610262E-3
1.538016835E0,-9.162708884E-4,0.000000000E0,4.581354442E-4,1.024421996E-3
1.540461210E0,3.054236295E-4,0.000000000E0,1.679830020E-3,1.707370051E-3
1.542906314E0,-9.162708884E-4,0.000000000E0,-7.635590737E-4,1.192717402E-3
1.545350533E0,-9.162708884E-4,0.000000000E0,4.581354442E-4,1.024421996E-3
1.547794074E0,3.054236295E-4,-2.443389036E-3,-7.635590737E-4,2.578072154E-3
1.550238345E0,3.054236295E-4,-1.221694518E-3,4.581354442E-4,1.340040736E-3
1.552683502E0,3.054236295E-4,-1.221694518E-3,-7.635590737E-4,1.472699408E-3
1.555127772E0,-9.162708884E-4,-2.443389036E-3,-7.635590737E-4,2.718956561E-3
1.557571262E0,3.054236295E-4,0.000000000E0,4.581354442E-4,5.506102784E-4
1.560015637E0,3.054236295E-4,1.221694518E-3,-7.635590737E-4,1.472699408E-3
1.562460741E0,3.054236295E-4,-1.221694518E-3,-7.635590737E-4,1.472699408E-3
1.564904960E0,3.054236295E-4,-1.221694518E-3,4.581354442E-4,1.340040736E-3
1.567348502E0,3.054236295E-4,1.221694518E-3,-7.635590737E-4,1.472699408E-3
1.569792877E0,3.054236295E-4,0.000000000E0,4.581354442E-4,5.506102784E-4
1.572237981E0,-9.162708884E-4,1.221694518E-3,4.581354442E-4,1.594358153E-3
1.574682199E0,3.054236295E-4,0.000000000E0,4.581354442E-4,5.506102784E-4
1.577125741E0,3.054236295E-4,-2.443389036E-3,-7.635590737E-4,2.578072154E-3
1.579570012E0,3.054236295E-4,0.000000000E0,-1.985253533E-3,2.008610262E-3
1.582015168E0,-9.162708884E-4,0.000000000E0,1.679830020E-3,1.913473605E-3
1.584459439E0,3.054236295E-4,0.000000000E0,-7.635590737E-4,8.223782903E-4
1.586902929E0,3.054236295E-4,-1.221694518E-3,-1.985253533E-3,2.350968456E-3
1.589347304E0,-9.162708884E-4,0.000000000E0,-7.635590737E-4,1.192717402E-3
1.591792408E0,3.054236295E-4,0.000000000E0,-7.635590737E-4,8.223782903E-4
1.594236627E0,1.527118147E-3,0.000000000E0,-7.635590737E-4,1.707369994E-3
1.596680168E0,3.054236295E-4,-2.443389036E-3,-7.635590737E-4,2.578072154E-3
1.599124543E0,3.054236295E-4,0.000000000E0,4.581354442E-4,5.506102784E-4
1.601569647E0,1.527118147E-3,0.000000000E0,4.581354442E-4,1.594358153E-3
1.604013866E0,3.054236295E-4,0.000000000E0,-7.635590737E-4,8.223782903E-4
1.606457408E0,-9.162708884E-4,0.000000000E0,4.581354442E-4,1.024421996E-3
1.608901679E0,3.054236295E-4,0.000000000E0,4.581354442E-4,5.506102784E-4
1.611346835E0,3.054236295E-4,0.000000000E0,4.581354442E-4,5.506102784E-4
1.613791106E0,-9.162708884E-4,-1.221694518E-3,1.679830020E-3,2.270224379E-3
1.616234595E0,3.054236295E-4,0.000000000E0,2.901524538E-3,2.917555182E-3
1.618678970E0,-9.162708884E-4,1.221694518E-3,4.581354442E-4,1.594358153E-3
1.621124074E0,3.054236295E-4,-1.221694518E-3,-7.635590737E-4,1.472699408E-3
1.623568293E0,3.054236295E-4,-1.221694518E-3,-7.635590737E-4,1.472699408E-3
1.626011835E0,3.054236295E-4,-1.221694518E-3,-7.635590737E-4,1.472699408E-3
1.628456210E0,3.054236295E-4,1.221694518E-3,4.581354442E-4,1.340040736E-3
1.630901262E0,-9.162708884E-4,-1.221694518E-3,4.581354442E-4,1.594358153E-3
1.633345533E0,3.054236295E-4,-1.221694518E-3,4.581354442E-4,1.340040736E-3
1.635789022E0,3.054236295E-4,-1.221694518E-3,4.581354442E-4,1.340040736E-3
1.638233397E0,3.054236295E-4,0.000000000E0,1.679830020E-3,1.707370051E-3
1.640678502E0,3.054236295E-4,0.000000000E0,4.581354442E-4,5.506102784E-4
1.643122772E0,3.054236295E-4,0.000000000E0,-7.635590737E-4,8.223782903E-4
1.645566262E0,3.054236295E-4,1.221694518E-3,4.581354442E-4,1.340040736E-3
1.648010637E0,3.054236295E-4,-1.221694518E-3,1.679830020E-3,2.099440398E-3
1.650455741E0,1.527118147E-3,-1.221694518E-3,4.581354442E-4,2.008610320E-3
1.652899960E0,3.054236295E-4,-1.221694518E-3,-7.635590737E-4,1.472699408E-3
1.655343502E0,3.054236295E-4,0.000000000E0,4.581354442E-4,5.506102784E-4
1.657787772E0,-9.162708884E-4,1.221694518E-3,4.581354442E-4,1.594358153E-3
1.660232929E0,3.054236295E-4,-1.221694518E-3,-7.635590737E-4,1.472699408E-3
1.662677199E0,-9.162708884E-4,-1.221694518E-3,4.581354442E-4,1.594358153E-3
1.665120689E0,1.527118147E-3,-2.443389036E-3,4.581354442E-4,2.917555124E-3
1.667565064E0,1.527118147E-3,-1.221694518E-3,4.581354442E-4,2.008610320E-3
1.670010168E0,-9.162708884E-4,-1.221694518E-3,4.581354442E-4,1.594358153E-3
1.672454439E0,3.054236295E-4,-1.221694518E-3,-7.635590737E-4,1.472699408E-3
1.674897929E0,3.054236295E-4,0.000000000E0,1.679830020E-3,1.707370051E-3
1.677342304E0,1.527118147E-3,1.221694518E-3,4.581354442E-4,2.008610320E-3
1.679787408E0,3.054236295E-4,0.000000000E0,4.581354442E-4,5.506102784E-4
1.682231627E0,-9.162708884E-4,-1.221694518E-3,-1.985253533E-3,2.504659943E-3
1.684675168E0,3.054236295E-4,2.443389036E-3,4.581354442E-4,2.504659989E-3
1.687119439E0,1.527118147E-3,-1.221694518E-3,1.679830020E-3,2.578072192E-3
1.689564595E0,3.054236295E-4,-1.221694518E-3,4.581354442E-4,1.340040736E-3
1.692008866E0,3.054236295E-4,1.221694518E-3,-7.635590737E-4,1.472699408E-3
1.694452356E0,-9.162708884E-4,1.221694518E-3,-7.635590737E-4,1.707369994E-3
1.696896731E0,3.054236295E-4,-1.221694518E-3,-7.635590737E-4,1.472699408E-3
1.699341835E0,-9.162708884E-4,-2.443389036E-3,4.581354442E-4,2.649450963E-3
1.701786106E0,1.527118147E-3,-1.221694518E-3,-7.635590737E-4,2.099440352E-3
1.704229595E0,3.054236295E-4,-1.221694518E-3,-7.635590737E-4,1.472699408E-3
1.706673970E0,1.527118147E-3,-1.221694518E-3,-7.635590737E-4,2.099440352E-3
1.709119074E0,3.054236295E-4,0.000000000E0,-7.635590737E-4,8.223782903E-4
1.711563293E0,-9.162708884E-4,0.000000000E0,-7.635590737E-4,1.192717402E-3
1.714006835E0,-9.162708884E-4,-1.221694518E-3,4.581354442E-4,1.594358153E-3
1.716451106E0,-9.162708884E-4,-1.221694518E-3,4.581354442E-4,1.594358153E-3
1.718896262E0,-2.137965523E-3,-1.221694518E-3,-3.206948051E-3,4.043259808E-3
1.721340533E0,3.054236295E-4,-1.221694518E-3,-7.635590737E-4,1.472699408E-3
1.723784022E0,-9.162708884E-4,0.000000000E0,-7.635590737E-4,1.192717402E-3
1.726228397E0,3.054236295E-4,0.000000000E0,1.679830020E-3,1.707370051E-3
1.728673502E0,1.527118147E-3,-1.221694518E-3,-7.635590737E-4,2.099440352E-3
1.731117772E0,-9.162708884E-4,-1.221694518E-3,-1.985253533E-3,2.504659943E-3
1.733561262E0,3.054236295E-4,-1.221694518E-3,-1.985253533E-3,2.350968456E-3
1.736005637E0,3.054236295E-4,1.221694518E-3,-7.635590737E-4,1.472699408E-3
1.738450741E0,3.054236295E-4,0.000000000E0,4.581354442E-4,5.506102784E-4
1.740894960E0,-9.162708884E-4,-1.221694518E-3,4.581354442E-4,1.594358153E-3
1.743338502E0,3.054236295E-4,0.000000000E0,1.679830020E-3,1.707370051E-3
1.745782772E0,-9.162708884E-4,0.000000000E0,4.581354442E-4,1.024421996E-3
1.748227929E0,-9.162708884E-4,0.000000000E0,-7.635590737E-4,1.192717402E-3
1.750672199E0,3.054236295E-4,-1.221694518E-3,4.581354442E-4,1.340040736E-3
1.753115689E0,3.054236295E-4,-1.221694518E-3,-7.635590737E-4,1.472699408E-3
1.755560064E0,-9.162708884E-4,0.000000000E0,-7.635590737E-4,1.192717402E-3
1.758005168E0,-9.162708884E-4,1.221694518E-3,4.581354442E-4,1.594358153E-3
1.760449439E0,3.054236295E-4,0.000000000E0,-7.635590737E-4,8.223782903E-4
1.762892929E0,3.054236295E-4,-1.221694518E-3,4.581354442E-4,1.340040736E-3
1.765337304E0,3.054236295E-4,0.000000000E0,-1.985253533E-3,2.008610262E-3
1.767782408E0,-9.162708884E-4,1.221694518E-3,4.581354442E-4,1.594358153E-3
1.770226627E0,-9.162708884E-4,2.443389036E-3,1.679830020E-3,3.103470834E-3
1.772670168E0,3.054236295E-4,0.000000000E0,4.581354442E-4,5.506102784E-4
1.775114439E0,3.054236295E-4,0.000000000E0,-1.985253533E-3,2.008610262E-3
1.777559595E0,3.054236295E-4,-2.443389036E-3,-7.635590737E-4,2.578072154E-3
1.780003866E0,1.527118147E-3,-2.443389036E-3,4.581354442E-4,2.917555124E-3
1.782447356E0,3.054236295E-4,-1.221694518E-3,2.901524538E-3,3.163015291E-3
1.784891731E0,-9.162708884E-4,2.443389036E-3,-7.635590737E-4,2.718956561E-3
1.787336835E0,-9.162708884E-4,0.000000000E0,-1.985253533E-3,2.186500385E-3
1.789781106E0,3.054236295E-4,-1.221694518E-3,1.679830020E-3,2.099440398E-3
1.792224595E0,1.527118147E-3,-1.221694518E-3,4.581354442E-4,2.008610320E-3
1.794668970E0,1.527118147E-3,1.221694518E-3,-7.635590737E-4,2.099440352E-3
1.797114074E0,-9.162708884E-4,1.221694518E-3,4.581354442E-4,1.594358153E-3
1.799558293E0,1.527118147E-3,-1.221694518E-3,4.581354442E-4,2.008610320E-3
1.802001835E0,1.527118147E-3,1.221694518E-3,-7.635590737E-4,2.099440352E-3
1.804446210E0,3.054236295E-4,0.000000000E0,-7.635590737E-4,8.223782903E-4
1.806891262E0,1.527118147E-3,-2.443389036E-3,-7.635590737E-4,2.980815706E-3
1.809335533E0,3.054236295E-4,-1.221694518E-3,4.581354442E-4,1.340040736E-3
1.811779022E0,-9.162708884E-4,1.221694518E-3,4.581354442E-4,1.594358153E-3
1.814223397E0,-9.162708884E-4,0.000000000E0,-7.635590737E-4,1.192717402E-3
1.816668502E0,-9.162708884E-4,0.000000000E0,4.581354442E-4,1.024421996E-3
1.819112772E0,3.054236295E-4,-1.221694518E-3,-7.635590737E-4,1.472699408E-3
1.821556262E0,3.054236295E-4,0.000000000E0,4.581354442E-4,5.506102784E-4
1.824000637E0,3.054236295E-4,-1.221694518E-3,-7.635590737E-4,1.472699408E-3
1.826445741E0,-9.162708884E-4,-1.221694518E-3,4.581354442E-4,1.594358153E-3
1.828889960E0,-9.162708884E-4,-1.221694518E-3,4.581354442E-4,1.594358153E-3
1.831333502E0,3.054236295E-4,0.000000000E0,4.581354442E-4,5.506102784E-4
1.833777877E0,1.527118147E-3,-1.221694518E-3,-7.635590737E-4,2.099440352E-3
1.836222929E0,2.748812549E-3,-2.443389036E-3,-7.635590737E-4,3.756213901E-3
1.838667199E0,3.054236295E-4,0.000000000E0,4.581354442E-4,5.506102784E-4
1.841110689E0,3.054236295E-4,-1.221694518E-3,1.679830020E-3,2.099440398E-3
1.843555064E0,3.054236295E-4,1.221694518E-3,4.581354442E-4,1.340040736E-3
1.846000168E0,-9.162708884E-4,0.000000000E0,-7.635590737E-4,1.192717402E-3
1.848444439E0,3.054236295E-4,-1.221694518E-3,4.581354442E-4,1.340040736E-3
1.850887929E0,1.527118147E-3,-1.221694518E-3,4.581354442E-4,2.008610320E-3
1.853332304E0,1.527118147E-3,0.000000000E0,-7.635590737E-4,1.707369994E-3
1.855777408E0,3.054236295E-4,0.000000000E0,4.581354442E-4,5.506102784E-4
1.858221627E0,-9.162708884E-4,0.000000000E0,4.581354442E-4,1.024421996E-3
1.860665168E0,-9.162708884E-4,0.000000000E0,4.581354442E-4,1.024421996E-3
1.863109439E0,-9.162708884E-4,1.221694518E-3,-1.985253533E-3,2.504659943E-3
1.865554595E0,3.054236295E-4,0.000000000E0,-1.985253533E-3,2.008610262E-3
1.867998866E0,-9.162708884E-4,0.000000000E0,4.581354442E-4,1.024421996E-3
1.870442356E0,1.527118147E-3,-1.221694518E-3,-7.635590737E-4,2.099440352E-3
1.872886731E0,-9.162708884E-4,-2.443389036E-3,-1.985253533E-3,3.278861679E-3
1.875331835E0,-9.162708884E-4,0.000000000E0,-1.985253533E-3,2.186500385E-3
1.877776106E0,-9.162708884E-4,-1.221694518E-3,-7.635590737E-4,1.707369994E-3
1.880219595E0,3.054236295E-4,0.000000000E0,-7.635590737E-4,8.223782903E-4
1.882663970E0,-2.137965523E-3,1.221694518E-3,-4.428642802E-3,5.067179801E-3
1.885109074E0,3.054236295E-4,0.000000000E0,-7.635590737E-4,8.223782903E-4
1.887553293E0,1.527118147E-3,-2.443389036E-3,4.581354442E-4,2.917555124E-3
1.889996835E0,-9.162708884E-4,1.221694518E-3,1.679830020E-3,2.270224379E-3
1.892441106E0,3.054236295E-4,0.000000000E0,1.679830020E-3,1.707370051E-3
1.894886262E0,3.054236295E-4,-2.443389036E-3,-7.635590737E-4,2.578072154E-3
1.897330533E0,-9.162708884E-4,1.221694518E-3,-1.985253533E-3,2.504659943E-3
1.899774022E0,-9.162708884E-4,1.221694518E-3,4.581354442E-4,1.594358153E-3
1.902218397E0,3.054236295E-4,0.000000000E0,1.679830020E-3,1.707370051E-3
1.904663502E0,-9.162708884E-4,-1.221694518E-3,-7.635590737E-4,1.707369994E-3
1.907107772E0,-9.162708884E-4,-1.221694518E-3,-7.635590737E-4,1.707369994E-3
1.909551262E0,3.054236295E-4,0.000000000E0,4.581354442E-4,5.506102784E-4
1.911995637E0,1.527118147E-3,-1.221694518E-3,-7.635590737E-4,2.099440352E-3
1.914440741E0,-9.162708884E-4,0.000000000E0,-7.635590737E-4,1.192717402E-3
1.916884960E0,-9.162708884E-4,-1.221694518E-3,4.581354442E-4,1.594358153E-3
1.919328502E0,3.054236295E-4,0.000000000E0,4.581354442E-4,5.506102784E-4
1.921772772E0,-9.162708884E-4,0.000000000E0,4.581354442E-4,1.024421996E-3
1.924217929E0,3.054236295E-4,0.000000000E0,-7.635590737E-4,8.223782903E-4
1.926662199E0,3.054236295E-4,-1.221694518E-3,4.581354442E-4,1.340040736E-3
1.929105689E0,3.054236295E-4,0.000000000E0,4.581354442E-4,5.506102784E-4
1.931550064E0,-9.162708884E-4,-1.221694518E-3,4.581354442E-4,1.594358153E-3
1.933995168E0,3.054236295E-4,0.000000000E0,4.581354442E-4,5.506102784E-4
1.936439439E0,-9.162708884E-4,1.221694518E-3,4.581354442E-4,1.594358153E-3
1.938882929E0,-2.137965523E-3,1.221694518E-3,-7.635590737E-4,2.578072251E-3
1.941327304E0,-9.162708884E-4,0.000000000E0,-7.635590737E-4,1.192717402E-3
1.943772408E0,1.527118147E-3,0.000000000E0,-7.635590737E-4,1.707369994E-3
1.946216627E0,3.054236295E-4,0.000000000E0,4.581354442E-4,5.506102784E-4
1.948660168E0,3.054236295E-4,-1.221694518E-3,-7.635590737E-4,1.472699408E-3
1.951104439E0,3.054236295E-4,-1.221694518E-3,4.581354442E-4,1.340040736E-3
1.953549595E0,3.054236295E-4,0.000000000E0,1.679830020E-3,1.707370051E-3
1.955993866E0,3.054236295E-4,-1.221694518E-3,-7.635590737E-4,1.472699408E-3
1.958437356E0,3.054236295E-4,0.000000000E0,-1.985253533E-3,2.008610262E-3
1.960881731E0,-9.162708884E-4,-1.221694518E-3,1.679830020E-3,2.270224379E-3
1.963326835E0,3.054236295E-4,0.000000000E0,4.581354442E-4,5.506102784E-4
1.965771106E0,3.054236295E-4,0.000000000E0,4.581354442E-4,5.506102784E-4
1.968214595E0,-9.162708884E-4,0.000000000E0,4.581354442E-4,1.024421996E-3
1.970658970E0,3.054236295E-4,-1.221694518E-3,4.581354442E-4,1.340040736E-3
1.973104074E0,3.054236295E-4,-1.221694518E-3,4.581354442E-4,1.340040736E-3
1.975548293E0,1.527118147E-3,-1.221694518E-3,4.581354442E-4,2.008610320E-3
1.977991835E0,3.054236295E-4,1.221694518E-3,-7.635590737E-4,1.472699408E-3
1.980436106E0,-9.162708884E-4,0.000000000E0,-7.635590737E-4,1.192717402E-3
1.982881262E0,3.054236295E-4,0.000000000E0,4.581354442E-4,5.506102784E-4
1.985325533E0,3.054236295E-4,-1.221694518E-3,4.581354442E-4,1.340040736E-3
1.987769022E0,-9.162708884E-4,0.000000000E0,1.679830020E-3,1.913473605E-3
1.990213397E0,-9.162708884E-4,1.221694518E-3,-7.635590737E-4,1.707369994E-3
1.992658502E0,1.527118147E-3,-2.443389036E-3,4.581354442E-4,2.917555124E-3
1.995102772E0,3.054236295E-4,0.000000000E0,4.581354442E-4,5.506102784E-4
1.997546262E0,-9.162708884E-4,1.221694518E-3,-1.985253533E-3,2.504659943E-3
1.999990637E0,-9.162708884E-4,0.000000000E0,4.581354442E-4,1.024421996E-3
2.002435741E0,3.054236295E-4,-1.221694518E-3,-7.635590737E-4,1.472699408E-3
2.004879960E0,1.527118147E-3,-1.221694518E-3,-7.635590737E-4,2.099440352E-3
2.007323502E0,3.054236295E-4,-1.221694518E-3,4.581354442E-4,1.340040736E-3
2.009767772E0,-9.162708884E-4,2.443389036E-3,4.581354442E-4,2.649450963E-3
2.012212929E0,-9.162708884E-4,0.000000000E0,-7.635590737E-4,1.192717402E-3
2.014657199E0,-9.162708884E-4,0.000000000E0,1.679830020E-3,1.913473605E-3
2.017100689E0,-9.162708884E-4,0.000000000E0,4.581354442E-4,1.024421996E-3
2.019545064E0,1.527118147E-3,0.000000000E0,4.581354442E-4,1.594358153E-3
2.021990168E0,3.054236295E-4,-1.221694518E-3,-1.985253533E-3,2.350968456E-3
2.024434439E0,3.054236295E-4,-1.221694518E-3,-7.635590737E-4,1.472699408E-3
2.026877929E0,3.054236295E-4,0.000000000E0,-7.635590737E-4,8.223782903E-4
2.029322304E0,3.054236295E-4,1.221694518E-3,1.679830020E-3,2.099440398E-3
2.031767408E0,3.054236295E-4,0.000000000E0,1.679830020E-3,1.707370051E-3
2.034211627E0,-9.162708884E-4,0.000000000E0,4.581354442E-4,1.024421996E-3
2.036655168E0,3.054236295E-4,-1.221694518E-3,-7.635590737E-4,1.472699408E-3
2.039099543E0,3.054236295E-4,-1.221694518E-3,4.581354442E-4,1.340040736E-3
2.041544595E0,3.054236295E-4,-1.221694518E-3,4.581354442E-4,1.340040736E-3
2.043988866E0,3.054236295E-4,-1.221694518E-3,1.679830020E-3,2.099440398E-3
2.046432356E0,3.054236295E-4,0.000000000E0,-7.635590737E-4,8.223782903E-4
2.048876731E0,3.054236295E-4,0.000000000E0,-7.635590737E-4,8.223782903E-4
2.051321835E0,3.054236295E-4,1.221694518E-3,4.581354442E-4,1.340040736E-3
2.053766106E0,3.054236295E-4,-1.221694518E-3,-1.985253533E-3,2.350968456E-3
2.056209595E0,3.054236295E-4,0.000000000E0,-7.635590737E-4,8.223782903E-4
2.058653970E0,3.054236295E-4,0.000000000E0,1.679830020E-3,1.707370051E-3
2.061099074E0,-9.162708884E-4,0.000000000E0,-1.985253533E-3,2.186500385E-3
2.063543293E0,-9.162708884E-4,1.221694518E-3,-7.635590737E-4,1.707369994E-3
2.065986835E0,3.054236295E-4,0.000000000E0,-1.985253533E-3,2.008610262E-3
2.068431210E0,3.054236295E-4,0.000000000E0,-7.635590737E-4,8.223782903E-4
2.070876314E0,-9.162708884E-4,1.221694518E-3,4.581354442E-4,1.594358153E-3
2.073320533E0,3.054236295E-4,0.000000000E0,4.581354442E-4,5.506102784E-4
2.075764074E0,3.054236295E-4,0.000000000E0,4.581354442E-4,5.506102784E-4
2.078208345E0,3.054236295E-4,0.000000000E0,1.679830020E-3,1.707370051E-3
2.080653502E0,3.054236295E-4,2.443389036E-3,-7.635590737E-4,2.578072154E-3
2.083097772E0,3.054236295E-4,-1.221694518E-3,-7.635590737E-4,1.472699408E-3
2.085541262E0,-9.162708884E-4,0.000000000E0,-7.635590737E-4,1.192717402E-3
2.087985637E0,-2.137965523E-3,1.221694518E-3,4.581354442E-4,2.504660088E-3
2.090430741E0,-9.162708884E-4,0.000000000E0,-1.985253533E-3,2.186500385E-3
2.092874960E0,3.054236295E-4,-1.221694518E-3,-1.985253533E-3,2.350968456E-3
2.095318502E0,3.054236295E-4,-1.221694518E-3,-1.985253533E-3,2.350968456E-3
2.097762877E0,3.054236295E-4,0.000000000E0,-7.635590737E-4,8.223782903E-4
2.100207981E0,1.527118147E-3,0.000000000E0,-7.635590737E-4,1.707369994E-3
2.102652199E0,3.054236295E-4,-1.221694518E-3,-7.635590737E-4,1.472699408E-3
2.105095741E0,-9.162708884E-4,-2.443389036E-3,4.581354442E-4,2.649450963E-3
2.107540012E0,-9.162708884E-4,1.221694518E-3,1.679830020E-3,2.270224379E-3
2.109985168E0,3.054236295E-4,0.000000000E0,4.581354442E-4,5.506102784E-4
2.112429439E0,1.527118147E-3,0.000000000E0,-7.635590737E-4,1.707369994E-3
2.114872929E0,-9.162708884E-4,0.000000000E0,-7.635590737E-4,1.192717402E-3
2.117317304E0,3.054236295E-4,0.000000000E0,-7.635590737E-4,8.223782903E-4
2.119762408E0,-9.162708884E-4,0.000000000E0,-1.985253533E-3,2.186500385E-3
2.122206627E0,3.054236295E-4,-1.221694518E-3,-7.635590737E-4,1.472699408E-3
2.124650168E0,1.527118147E-3,0.000000000E0,4.581354442E-4,1.594358153E-3
2.127094543E0,3.054236295E-4,-1.221694518E-3,4.581354442E-4,1.340040736E-3
2.129539647E0,3.054236295E-4,-1.221694518E-3,4.581354442E-4,1.340040736E-3
2.131983866E0,3.054236295E-4,0.000000000E0,-1.985253533E-3,2.008610262E-3
2.134427408E0,3.054236295E-4,-2.443389036E-3,-7.635590737E-4,2.578072154E-3
2.136871679E0,-9.162708884E-4,0.000000000E0,4.581354442E-4,1.024421996E-3
2.139316835E0,3.054236295E-4,-1.221694518E-3,-1.985253533E-3,2.350968456E-3
2.141761106E0,3.054236295E-4,-1.221694518E-3,-7.635590737E-4,1.472699408E-3
2.144204595E0,-9.162708884E-4,-1.221694518E-3,1.679830020E-3,2.270224379E-3
2.146648970E0,-9.162708884E-4,-2.443389036E-3,2.901524538E-3,3.902377092E-3
2.149094074E0,-9.162708884E-4,-1.221694518E-3,-7.635590737E-4,1.707369994E-3
2.151538293E0,3.054236295E-4,0.000000000E0,-1.985253533E-3,2.008610262E-3
2.153981835E0,3.054236295E-4,0.000000000E0,4.581354442E-4,5.506102784E-4
2.156426210E0,2.748812549E-3,-1.221694518E-3,4.581354442E-4,3.042761247E-3
2.158871314E0,3.054236295E-4,-1.221694518E-3,-7.635590737E-4,1.472699408E-3
2.161315533E0,3.054236295E-4,-1.221694518E-3,-7.635590737E-4,1.472699408E-3
2.163759074E0,3.054236295E-4,0.000000000E0,4.581354442E-4,5.506102784E-4
2.166203345E0,3.054236295E-4,-1.221694518E-3,4.581354442E-4,1.340040736E-3
2.168648502E0,3.054236295E-4,0.000000000E0,4.581354442E-4,5.506102784E-4
2.171092772E0,1.527118147E-3,-1.221694518E-3,-1.985253533E-3,2.786729072E-3
2.173536262E0,3.054236295E-4,-1.221694518E-3,-7.635590737E-4,1.472699408E-3
2.175980637E0,3.054236295E-4,-1.221694518E-3,-7.635590737E-4,1.472699408E-3
2.178425741E0,3.054236295E-4,0.000000000E0,4.581354442E-4,5.506102784E-4
2.180870012E0,3.054236295E-4,0.000000000E0,4.581354442E-4,5.506102784E-4
2.183313502E0,3.054236295E-4,1.221694518E-3,-7.635590737E-4,1.472699408E-3
2.185757877E0,3.054236295E-4,0.000000000E0,4.581354442E-4,5.506102784E-4
2.188202981E0,-9.162708884E-4,0.000000000E0,-7.635590737E-4,1.192717402E-3
2.190647199E0,3.054236295E-4,0.000000000E0,-1.985253533E-3,2.008610262E-3
2.193090741E0,-9.162708884E-4,0.000000000E0,-7.635590737E-4,1.192717402E-3
2.195535012E0,1.527118147E-3,0.000000000E0,1.679830020E-3,2.270224379E-3
2.197980168E0,3.054236295E-4,-1.221694518E-3,-1.985253533E-3,2.350968456E-3
2.200424439E0,3.054236295E-4,0.000000000E0,4.581354442E-4,5.506102784E-4
2.202867929E0,1.527118147E-3,0.000000000E0,4.581354442E-4,1.594358153E-3
2.205312304E0,3.054236295E-4,0.000000000E0,4.581354442E-4,5.506102784E-4
2.207757408E0,3.054236295E-4,0.000000000E0,-7.635590737E-4,8.223782903E-4
2.210201679E0,-9.162708884E-4,0.000000000E0,-7.635590737E-4,1.192717402E-3
2.212645168E0,-9.162708884E-4,1.221694518E-3,1.679830020E-3,2.270224379E-3
2.215089543E0,1.527118147E-3,-1.221694518E-3,4.581354442E-4,2.008610320E-3
2.217534595E0,3.054236295E-4,-1.221694518E-3,-7.635590737E-4,1.472699408E-3
2.219978866E0,1.527118147E-3,-2.443389036E-3,-7.635590737E-4,2.980815706E-3
2.222422408E0,-9.162708884E-4,0.000000000E0,4.581354442E-4,1.024421996E-3
2.224866679E0,-2.137965523E-3,0.000000000E0,-7.635590737E-4,2.270224446E-3
2.227311835E0,-9.162708884E-4,0.000000000E0,-1.985253533E-3,2.186500385E-3
2.229756106E0,3.054236295E-4,0.000000000E0,4.581354442E-4,5.506102784E-4
2.232199595E0,-9.162708884E-4,0.000000000E0,-7.635590737E-4,1.192717402E-3
2.234643970E0,-9.162708884E-4,0.000000000E0,-7.635590737E-4,1.192717402E-3
2.237089074E0,3.054236295E-4,0.000000000E0,-1.985253533E-3,2.008610262E-3
2.239533345E0,3.054236295E-4,-1.221694518E-3,-7.635590737E-4,1.472699408E-3
2.241976835E0,3.054236295E-4,-2.443389036E-3,4.581354442E-4,2.504659989E-3
2.244421210E0,1.527118147E-3,0.000000000E0,1.679830020E-3,2.270224379E-3
2.246866314E0,-9.162708884E-4,0.000000000E0,-7.635590737E-4,1.192717402E-3
2.249310533E0,1.527118147E-3,-1.221694518E-3,1.679830020E-3,2.578072192E-3
2.251754074E0,3.054236295E-4,0.000000000E0,4.581354442E-4,5.506102784E-4
2.254198345E0,3.054236295E-4,0.000000000E0,-1.985253533E-3,2.008610262E-3
2.256643502E0,3.054236295E-4,0.000000000E0,-7.635590737E-4,8.223782903E-4
2.259087772E0,3.054236295E-4,-1.221694518E-3,-7.635590737E-4,1.472699408E-3
2.261531262E0,3.054236295E-4,0.000000000E0,4.581354442E-4,5.506102784E-4
2.263975637E0,3.054236295E-4,1.221694518E-3,-7.635590737E-4,1.472699408E-3
2.266420741E0,-9.162708884E-4,0.000000000E0,-1.985253533E-3,2.186500385E-3
2.268865012E0,1.527118147E-3,-1.221694518E-3,4.581354442E-4,2.008610320E-3
2.271308502E0,1.527118147E-3,-1.221694518E-3,4.581354442E-4,2.008610320E-3
2.273752877E0,3.054236295E-4,-1.221694518E-3,4.581354442E-4,1.340040736E-3
2.276197981E0,-9.162708884E-4,0.000000000E0,-1.985253533E-3,2.186500385E-3
2.278642199E0,-9.162708884E-4,-1.221694518E-3,-7.635590737E-4,1.707369994E-3
2.281085741E0,3.054236295E-4,-1.221694518E-3,4.581354442E-4,1.340040736E-3
2.283530012E0,3.054236295E-4,-1.221694518E-3,4.581354442E-4,1.340040736E-3
2.285975168E0,3.054236295E-4,-1.221694518E-3,4.581354442E-4,1.340040736E-3
2.288419439E0,3.054236295E-4,-1.221694518E-3,-7.635590737E-4,1.472699408E-3
2.290862981E0,1.527118147E-3,-2.443389036E-3,1.679830020E-3,3.335276407E-3
2.293307252E0,3.054236295E-4,0.000000000E0,1.679830020E-3,1.707370051E-3
2.295752408E0,3.054236295E-4,1.221694518E-3,4.581354442E-4,1.340040736E-3
2.298196679E0,3.054236295E-4,0.000000000E0,4.581354442E-4,5.506102784E-4
2.300640168E0,-9.162708884E-4,0.000000000E0,4.581354442E-4,1.024421996E-3
2.303084543E0,1.527118147E-3,0.000000000E0,-7.635590737E-4,1.707369994E-3
2.305529647E0,1.527118147E-3,-1.221694518E-3,-7.635590737E-4,2.099440352E-3
2.307973866E0,3.054236295E-4,-1.221694518E-3,-7.635590737E-4,1.472699408E-3
2.310417408E0,3.054236295E-4,-1.221694518E-3,-1.985253533E-3,2.350968456E-3
2.312861679E0,3.054236295E-4,-1.221694518E-3,-7.635590737E-4,1.472699408E-3
2.315306835E0,-9.162708884E-4,0.000000000E0,-7.635590737E-4,1.192717402E-3
2.317751106E0,3.054236295E-4,-1.221694518E-3,-7.635590737E-4,1.472699408E-3
2.320194647E0,-9.162708884E-4,0.000000000E0,4.581354442E-4,1.024421996E-3
2.322638918E0,3.054236295E-4,0.000000000E0,-1.985253533E-3,2.008610262E-3
2.325084074E0,3.054236295E-4,-1.221694518E-3,-7.635590737E-4,1.472699408E-3
2.327528345E0,3.054236295E-4,-1.221694518E-3,-7.635590737E-4,1.472699408E-3
2.329971835E0,-9.162708884E-4,-1.221694518E-3,4.581354442E-4,1.594358153E-3
2.332416210E0,3.054236295E-4,-1.221694518E-3,4.581354442E-4,1.340040736E-3
2.334861314E0,3.054236295E-4,0.000000000E0,-1.985253533E-3,2.008610262E-3
2.337305533E0,3.054236295E-4,0.000000000E0,-7.635590737E-4,8.223782903E-4
2.339749074E0,3.054236295E-4,-1.221694518E-3,-7.635590737E-4,1.472699408E-3
2.342193449E0,-9.162708884E-4,0.000000000E0,-1.985253533E-3,2.186500385E-3
2.344638502E0,-9.162708884E-4,0.000000000E0,-7.635590737E-4,1.192717402E-3
2.347082772E0,3.054236295E-4,-1.221694518E-3,4.581354442E-4,1.340040736E-3
2.349526314E0,3.054236295E-4,1.221694518E-3,-7.635590737E-4,1.472699408E-3
2.351970585E0,2.748812549E-3,0.000000000E0,-7.635590737E-4,2.852892022E-3
2.354415741E0,3.054236295E-4,-1.221694518E-3,4.581354442E-4,1.340040736E-3
2.356860012E0,3.054236295E-4,1.221694518E-3,4.581354442E-4,1.340040736E-3
2.359303502E0,3.054236295E-4,-1.221694518E-3,4.581354442E-4,1.340040736E-3
2.361747877E0,3.054236295E-4,-2.443389036E-3,4.581354442E-4,2.504659989E-3
2.364192981E0,-9.162708884E-4,0.000000000E0,-7.635590737E-4,1.192717402E-3
2.366637252E0,-2.137965523E-3,0.000000000E0,-7.635590737E-4,2.270224446E-3
2.369080741E0,3.054236295E-4,1.221694518E-3,4.581354442E-4,1.340040736E-3
2.371525116E0,-9.162708884E-4,1.221694518E-3,-7.635590737E-4,1.707369994E-3
2.373970220E0,3.054236295E-4,0.000000000E0,-7.635590737E-4,8.223782903E-4
2.376414439E0,3.054236295E-4,0.000000000E0,-7.635590737E-4,8.223782903E-4
2.378857981E0,1.527118147E-3,0.000000000E0,-7.635590737E-4,1.707369994E-3
2.381302252E0,3.054236295E-4,0.000000000E0,-3.206948051E-3,3.221459203E-3
2.383747408E0,1.527118147E-3,-1.221694518E-3,4.581354442E-4,2.008610320E-3
2.386191679E0,-9.162708884E-4,0.000000000E0,1.679830020E-3,1.913473605E-3
2.388635168E0,-9.162708884E-4,0.000000000E0,4.581354442E-4,1.024421996E-3
2.391079543E0,3.054236295E-4,-1.221694518E-3,-7.635590737E-4,1.472699408E-3
2.393524647E0,-9.162708884E-4,-2.443389036E-3,-7.635590737E-4,2.718956561E-3
2.395968866E0,-9.162708884E-4,0.000000000E0,4.581354442E-4,1.024421996E-3
2.398412408E0,-9.162708884E-4,0.000000000E0,-7.635590737E-4,1.192717402E-3
2.400856783E0,3.054236295E-4,0.000000000E0,4.581354442E-4,5.506102784E-4
2.403301887E0,3.054236295E-4,-1.221694518E-3,-7.635590737E-4,1.472699408E-3
2.405746106E0,3.054236295E-4,0.000000000E0,-7.635590737E-4,8.223782903E-4
2.408189647E0,3.054236295E-4,0.000000000E0,4.581354442E-4,5.506102784E-4
2.410633918E0,3.054236295E-4,-1.221694518E-3,4.581354442E-4,1.340040736E-3
2.413079074E0,3.054236295E-4,0.000000000E0,1.679830020E-3,1.707370051E-3
2.415523345E0,-9.162708884E-4,1.221694518E-3,-7.635590737E-4,1.707369994E-3
2.417966835E0,-2.137965523E-3,1.221694518E-3,4.581354442E-4,2.504660088E-3
2.420411210E0,-9.162708884E-4,0.000000000E0,-7.635590737E-4,1.192717402E-3
2.422856314E0,3.054236295E-4,-2.443389036E-3,4.581354442E-4,2.504659989E-3
2.425300585E0,-9.162708884E-4,0.000000000E0,-7.635590737E-4,1.192717402E-3
2.427744074E0,3.054236295E-4,-1.221694518E-3,-7.635590737E-4,1.472699408E-3
2.430188449E0,-9.162708884E-4,0.000000000E0,1.679830020E-3,1.913473605E-3
2.432633554E0,3.054236295E-4,0.000000000E0,4.581354442E-4,5.506102784E-4
2.435077772E0,3.054236295E-4,0.000000000E0,-7.635590737E-4,8.223782903E-4
2.437521314E0,3.054236295E-4,-1.221694518E-3,-1.985253533E-3,2.350968456E-3
2.439965585E0,-9.162708884E-4,0.000000000E0,4.581354442E-4,1.024421996E-3
2.442410741E0,3.054236295E-4,1.221694518E-3,-7.635590737E-4,1.472699408E-3
2.444855012E0,3.054236295E-4,1.221694518E-3,4.581354442E-4,1.340040736E-3
2.447298502E0,1.527118147E-3,-1.221694518E-3,-7.635590737E-4,2.099440352E-3
2.449742877E0,1.527118147E-3,0.000000000E0,4.581354442E-4,1.594358153E-3
2.452187981E0,1.527118147E-3,-1.221694518E-3,1.679830020E-3,2.578072192E-3
2.454632252E0,3.054236295E-4,-2.443389036E-3,1.679830020E-3,2.980815739E-3
2.457075741E0,-9.162708884E-4,-1.221694518E-3,-7.635590737E-4,1.707369994E-3
2.459520116E0,-9.162708884E-4,-1.221694518E-3,4.581354442E-4,1.594358153E-3
2.461965220E0,-9.162708884E-4,0.000000000E0,-1.985253533E-3,2.186500385E-3
2.464409439E0,1.527118147E-3,-1.221694518E-3,-1.985253533E-3,2.786729072E-3
2.466852981E0,3.054236295E-4,-1.221694518E-3,4.581354442E-4,1.340040736E-3
2.469297252E0,1.527118147E-3,-1.221694518E-3,4.581354442E-4,2.008610320E-3
2.471742408E0,3.054236295E-4,-2.443389036E-3,-7.635590737E-4,2.578072154E-3
2.474186679E0,1.527118147E-3,-1.221694518E-3,4.581354442E-4,2.008610320E-3
2.476630168E0,3.054236295E-4,-1.221694518E-3,1.679830020E-3,2.099440398E-3
2.479074543E0,3.054236295E-4,0.000000000E0,-7.635590737E-4,8.223782903E-4
2.481519647E0,3.054236295E-4,0.000000000E0,-1.985253533E-3,2.008610262E-3
2.483963918E0,3.054236295E-4,1.221694518E-3,4.581354442E-4,1.340040736E-3
2.486407408E0,3.054236295E-4,-1.221694518E-3,-7.635590737E-4,1.472699408E-3
2.488851783E0,3.054236295E-4,-1.221694518E-3,-7.635590737E-4,1.472699408E-3
2.491296887E0,-9.162708884E-4,-1.221694518E-3,-1.985253533E-3,2.504659943E-3
2.493741106E0,-9.162708884E-4,0.000000000E0,4.581354442E-4,1.024421996E-3
2.496184647E0,3.054236295E-4,0.000000000E0,4.581354442E-4,5.506102784E-4
2.498629022E0,3.054236295E-4,0.000000000E0,-7.635590737E-4,8.223782903E-4
2.501074127E0,-9.162708884E-4,0.000000000E0,-7.635590737E-4,1.192717402E-3
2.503518345E0,-9.162708884E-4,0.000000000E0,-1.985253533E-3,2.186500385E-3
2.505961835E0,3.054236295E-4,-1.221694518E-3,-7.635590737E-4,1.472699408E-3
2.508406210E0,3.054236295E-4,-1.221694518E-3,4.581354442E-4,1.340040736E-3
2.510851314E0,3.054236295E-4,1.221694518E-3,-3.206948051E-3,3.445335527E-3
2.513295585E0,3.054236295E-4,0.000000000E0,1.679830020E-3,1.707370051E-3
2.515739074E0,-9.162708884E-4,-1.221694518E-3,1.679830020E-3,2.270224379E-3
2.518183449E0,1.527118147E-3,-1.221694518E-3,4.581354442E-4,2.008610320E-3
2.520628554E0,3.054236295E-4,0.000000000E0,4.581354442E-4,5.506102784E-4
2.523072824E0,3.054236295E-4,0.000000000E0,1.679830020E-3,1.707370051E-3
2.525516314E0,3.054236295E-4,0.000000000E0,4.581354442E-4,5.506102784E-4
2.527960689E0,-9.162708884E-4,-1.221694518E-3,-7.635590737E-4,1.707369994E-3
2.530405793E0,3.054236295E-4,-1.221694518E-3,4.581354442E-4,1.340040736E-3
2.532850012E0,3.054236295E-4,-1.221694518E-3,4.581354442E-4,1.340040736E-3
2.535293554E0,3.054236295E-4,-1.221694518E-3,2.901524538E-3,3.163015291E-3
2.537737824E0,-9.162708884E-4,0.000000000E0,-7.635590737E-4,1.192717402E-3
2.540182981E0,3.054236295E-4,0.000000000E0,-3.206948051E-3,3.221459203E-3
2.542627252E0,3.054236295E-4,1.221694518E-3,-7.635590737E-4,1.472699408E-3
2.545070741E0,3.054236295E-4,1.221694518E-3,4.581354442E-4,1.340040736E-3
2.547515116E0,3.054236295E-4,0.000000000E0,1.679830020E-3,1.707370051E-3
2.549960220E0,3.054236295E-4,-1.221694518E-3,-7.635590737E-4,1.472699408E-3
2.552404491E0,3.054236295E-4,-1.221694518E-3,-7.635590737E-4,1.472699408E-3
2.554847981E0,1.527118147E-3,-1.221694518E-3,4.581354442E-4,2.008610320E-3
2.557292356E0,3.054236295E-4,-2.443389036E-3,-7.635590737E-4,2.578072154E-3
2.559737460E0,-9.162708884E-4,-2.443389036E-3,-7.635590737E-4,2.718956561E-3
2.562181679E0,-9.162708884E-4,0.000000000E0,1.679830020E-3,1.913473605E-3
2.564625220E0,-9.162708884E-4,-1.221694518E-3,4.581354442E-4,1.594358153E-3
2.567069491E0,-9.162708884E-4,0.000000000E0,-7.635590737E-4,1.192717402E-3
2.569514647E0,3.054236295E-4,0.000000000E0,-7.635590737E-4,8.223782903E-4
2.571958918E0,-9.162708884E-4,-1.221694518E-3,4.581354442E-4,1.594358153E-3
2.574402408E0,1.527118147E-3,-1.221694518E-3,1.679830020E-3,2.578072192E-3
2.576846783E0,3.054236295E-4,1.221694518E-3,4.581354442E-4,1.340040736E-3
2.579291887E0,1.527118147E-3,0.000000000E0,-7.635590737E-4,1.707369994E-3
2.581736158E0,2.748812549E-3,0.000000000E0,4.581354442E-4,2.786728999E-3
2.584179647E0,3.054236295E-4,0.000000000E0,-7.635590737E-4,8.223782903E-4
2.586624022E0,-9.162708884E-4,1.221694518E-3,-7.635590737E-4,1.707369994E-3
2.589069127E0,1.527118147E-3,-2.443389036E-3,-7.635590737E-4,2.980815706E-3
2.591513397E0,3.054236295E-4,-1.221694518E-3,-7.635590737E-4,1.472699408E-3
2.593956887E0,-9.162708884E-4,0.000000000E0,4.581354442E-4,1.024421996E-3
2.596401262E0,3.054236295E-4,0.000000000E0,4.581354442E-4,5.506102784E-4
2.598846314E0,-9.162708884E-4,0.000000000E0,-7.635590737E-4,1.192717402E-3
2.601290585E0,-9.162708884E-4,0.000000000E0,-7.635590737E-4,1.192717402E-3
2.603734074E0,3.054236295E-4,1.221694518E-3,-7.635590737E-4,1.472699408E-3
2.606178449E0,3.054236295E-4,-1.221694518E-3,4.581354442E-4,1.340040736E-3
2.608623554E0,3.054236295E-4,-1.221694518E-3,-1.985253533E-3,2.350968456E-3
2.611067824E0,-9.162708884E-4,1.221694518E-3,-1.985253533E-3,2.504659943E-3
2.613511314E0,3.054236295E-4,1.221694518E-3,4.581354442E-4,1.340040736E-3
2.615955689E0,3.054236295E-4,0.000000000E0,4.581354442E-4,5.506102784E-4
2.618400793E0,1.527118147E-3,-1.221694518E-3,4.581354442E-4,2.008610320E-3
2.620845012E0,3.054236295E-4,0.000000000E0,-1.985253533E-3,2.008610262E-3
2.623288554E0,-9.162708884E-4,-1.221694518E-3,-7.635590737E-4,1.707369994E-3
2.625732929E0,-9.162708884E-4,-1.221694518E-3,2.901524538E-3,3.278861766E-3
2.628178033E0,-9.162708884E-4,0.000000000E0,4.581354442E-4,1.024421996E-3
2.630622252E0,3.054236295E-4,-1.221694518E-3,4.581354442E-4,1.340040736E-3
2.633065793E0,3.054236295E-4,0.000000000E0,4.581354442E-4,5.506102784E-4
2.635510064E0,3.054236295E-4,0.000000000E0,-7.635590737E-4,8.223782903E-4
2.637955220E0,-9.162708884E-4,0.000000000E0,4.581354442E-4,1.024421996E-3
2.640399491E0,3.054236295E-4,-1.221694518E-3,-7.635590737E-4,1.472699408E-3
2.642842981E0,3.054236295E-4,0.000000000E0,-7.635590737E-4,8.223782903E-4
2.645287356E0,3.054236295E-4,1.221694518E-3,-7.635590737E-4,1.472699408E-3
2.647732460E0,3.054236295E-4,-1.221694518E-3,1.679830020E-3,2.099440398E-3
2.650176679E0,3.054236295E-4,0.000000000E0,-3.206948051E-3,3.221459203E-3
2.652620220E0,3.054236295E-4,0.000000000E0,-3.206948051E-3,3.221459203E-3
2.655064595E0,3.054236295E-4,-1.221694518E-3,1.679830020E-3,2.099440398E-3
2.657509699E0,3.054236295E-4,-2.443389036E-3,-7.635590737E-4,2.578072154E-3
2.659953918E0,3.054236295E-4,-1.221694518E-3,-1.985253533E-3,2.350968456E-3
2.662397460E0,1.527118147E-3,0.000000000E0,-7.635590737E-4,1.707369994E-3
2.664841731E0,3.054236295E-4,0.000000000E0,4.581354442E-4,5.506102784E-4
2.667286887E0,-9.162708884E-4,-1.221694518E-3,1.679830020E-3,2.270224379E-3
2.669731158E0,1.527118147E-3,-2.443389036E-3,4.581354442E-4,2.917555124E-3
2.672174647E0,3.054236295E-4,0.000000000E0,-7.635590737E-4,8.223782903E-4
2.674619022E0,3.054236295E-4,0.000000000E0,4.581354442E-4,5.506102784E-4
2.677064127E0,3.054236295E-4,0.000000000E0,-7.635590737E-4,8.223782903E-4
2.679508397E0,3.054236295E-4,-1.221694518E-3,4.581354442E-4,1.340040736E-3
2.681951887E0,3.054236295E-4,-1.221694518E-3,4.581354442E-4,1.340040736E-3
2.684396262E0,-9.162708884E-4,0.000000000E0,-7.635590737E-4,1.192717402E-3
2.686841366E0,-9.162708884E-4,1.221694518E-3,4.581354442E-4,1.594358153E-3
2.689285585E0,-9.162708884E-4,0.000000000E0,4.581354442E-4,1.024421996E-3
2.691729127E0,-9.162708884E-4,1.221694518E-3,-7.635590737E-4,1.707369994E-3
2.694173397E0,-2.137965523E-3,1.221694518E-3,-7.635590737E-4,2.578072251E-3
2.696618554E0,3.054236295E-4,0.000000000E0,-7.635590737E-4,8.223782903E-4
2.699062824E0,3.054236295E-4,0.000000000E0,4.581354442E-4,5.506102784E-4
2.701506314E0,-9.162708884E-4,1.221694518E-3,1.679830020E-3,2.270224379E-3
2.703950689E0,1.527118147E-3,1.221694518E-3,4.581354442E-4,2.008610320E-3
2.706395793E0,-9.162708884E-4,-1.221694518E-3,4.581354442E-4,1.594358153E-3
2.708840064E0,3.054236295E-4,1.221694518E-3,4.581354442E-4,1.340040736E-3
2.711283554E0,1.527118147E-3,0.000000000E0,4.581354442E-4,1.594358153E-3
2.713727929E0,-9.162708884E-4,0.000000000E0,4.581354442E-4,1.024421996E-3
2.716173033E0,-9.162708884E-4,0.000000000E0,-7.635590737E-4,1.192717402E-3
2.718617252E0,-9.162708884E-4,1.221694518E-3,4.581354442E-4,1.594358153E-3
2.721060793E0,3.054236295E-4,0.000000000E0,4.581354442E-4,5.506102784E-4
2.723505064E0,3.054236295E-4,-1.221694518E-3,-1.985253533E-3,2.350968456E-3
2.725950272E0,3.054236295E-4,-1.221694518E-3,4.581354442E-4,1.340040736E-3
2.728394491E0,3.054236295E-4,0.000000000E0,4.581354442E-4,5.506102784E-4
2.730838033E0,3.054236295E-4,-1.221694518E-3,4.581354442E-4,1.340040736E-3
2.733282304E0,-9.162708884E-4,-1.221694518E-3,-7.635590737E-4,1.707369994E-3
2.735727460E0,3.054236295E-4,0.000000000E0,4.581354442E-4,5.506102784E-4
2.738171731E0,-9.162708884E-4,-1.221694518E-3,4.581354442E-4,1.594358153E-3
2.740615220E0,3.054236295E-4,0.000000000E0,4.581354442E-4,5.506102784E-4
2.743059595E0,3.054236295E-4,-1.221694518E-3,-7.635590737E-4,1.472699408E-3
2.745504699E0,3.054236295E-4,-1.221694518E-3,-1.985253533E-3,2.350968456E-3
2.747948970E0,3.054236295E-4,-2.443389036E-3,-7.635590737E-4,2.578072154E-3
2.750392460E0,1.527118147E-3,-1.221694518E-3,1.679830020E-3,2.578072192E-3
2.752836835E0,1.527118147E-3,-1.221694518E-3,4.581354442E-4,2.008610320E-3
2.755281939E0,3.054236295E-4,1.221694518E-3,4.581354442E-4,1.340040736E-3
2.757726158E0,-9.162708884E-4,0.000000000E0,-7.635590737E-4,1.192717402E-3
2.760169699E0,-9.162708884E-4,-1.221694518E-3,1.679830020E-3,2.270224379E-3
2.762613970E0,3.054236295E-4,0.000000000E0,-7.635590737E-4,8.223782903E-4
2.765059127E0,3.054236295E-4,-1.221694518E-3,-3.206948051E-3,3.445335527E-3
2.767503397E0,3.054236295E-4,-1.221694518E-3,4.581354442E-4,1.340040736E-3
2.769946887E0,3.054236295E-4,-2.443389036E-3,-7.635590737E-4,2.578072154E-3
2.772391262E0,-9.162708884E-4,-1.221694518E-3,4.581354442E-4,1.594358153E-3
2.774836366E0,1.527118147E-3,-2.443389036E-3,4.581354442E-4,2.917555124E-3
2.777280637E0,3.054236295E-4,0.000000000E0,1.679830020E-3,1.707370051E-3
2.779724127E0,-9.162708884E-4,-1.221694518E-3,1.679830020E-3,2.270224379E-3
2.782168502E0,3.054236295E-4,0.000000000E0,1.679830020E-3,1.707370051E-3
2.784613606E0,3.054236295E-4,-1.221694518E-3,4.581354442E-4,1.340040736E-3
2.787057824E0,3.054236295E-4,0.000000000E0,4.581354442E-4,5.506102784E-4
2.789501366E0,-9.162708884E-4,0.000000000E0,4.581354442E-4,1.024421996E-3
2.791945741E0,-9.162708884E-4,-1.221694518E-3,4.581354442E-4,1.594358153E-3
2.794390793E0,-9.162708884E-4,-1.221694518E-3,4.581354442E-4,1.594358153E-3
2.796835064E0,3.054236295E-4,0.000000000E0,4.581354442E-4,5.506102784E-4
2.799278554E0,-2.137965523E-3,0.000000000E0,-7.635590737E-4,2.270224446E-3
2.801722929E0,-9.162708884E-4,1.221694518E-3,-7.635590737E-4,1.707369994E-3
2.804168033E0,1.527118147E-3,0.000000000E0,-7.635590737E-4,1.707369994E-3
2.806612304E0,3.054236295E-4,-1.221694518E-3,1.679830020E-3,2.099440398E-3
2.809055793E0,3.054236295E-4,-1.221694518E-3,1.679830020E-3,2.099440398E-3
2.811500168E0,-9.162708884E-4,0.000000000E0,-7.635590737E-4,1.192717402E-3
2.813945272E0,-9.162708884E-4,0.000000000E0,4.581354442E-4,1.024421996E-3
2.816389491E0,1.527118147E-3,0.000000000E0,4.581354442E-4,1.594358153E-3
2.818833033E0,1.527118147E-3,0.000000000E0,-1.985253533E-3,2.504659943E-3
2.821277408E0,-9.162708884E-4,0.000000000E0,-7.635590737E-4,1.192717402E-3
2.823722460E0,3.054236295E-4,0.000000000E0,4.581354442E-4,5.506102784E-4
2.826166731E0,1.527118147E-3,0.000000000E0,4.581354442E-4,1.594358153E-3
2.828610272E0,3.054236295E-4,0.000000000E0,-3.206948051E-3,3.221459203E-3
2.831054543E0,3.054236295E-4,-1.221694518E-3,4.581354442E-4,1.340040736E-3
2.833499699E0,-9.162708884E-4,1.221694518E-3,4.581354442E-4,1.594358153E-3
2.835943970E0,3.054236295E-4,0.000000000E0,4.581354442E-4,5.506102784E-4
2.838387460E0,1.527118147E-3,0.000000000E0,4.581354442E-4,1.594358153E-3
2.840831835E0,-9.162708884E-4,0.000000000E0,-7.635590737E-4,1.192717402E-3
2.843276939E0,3.054236295E-4,-1.221694518E-3,-7.635590737E-4,1.472699408E-3
2.845721210E0,3.054236295E-4,-1.221694518E-3,-7.635590737E-4,1.472699408E-3
2.848164699E0,-9.162708884E-4,0.000000000E0,-7.635590737E-4,1.192717402E-3
2.850609074E0,3.054236295E-4,0.000000000E0,4.581354442E-4,5.506102784E-4
2.853054179E0,-9.162708884E-4,1.221694518E-3,4.581354442E-4,1.594358153E-3
2.855498397E0,-9.162708884E-4,1.221694518E-3,-7.635590737E-4,1.707369994E-3
2.857941939E0,3.054236295E-4,-1.221694518E-3,-7.635590737E-4,1.472699408E-3
2.860386210E0,3.054236295E-4,-1.221694518E-3,-7.635590737E-4,1.472699408E-3
2.862831366E0,3.054236295E-4,0.000000000E0,-7.635590737E-4,8.223782903E-4
2.865275637E0,-9.162708884E-4,-1.221694518E-3,-7.635590737E-4,1.707369994E-3
2.867719127E0,-9.162708884E-4,0.000000000E0,-7.635590737E-4,1.192717402E-3
2.870163502E0,3.054236295E-4,-1.221694518E-3,1.679830020E-3,2.099440398E-3
2.872608606E0,3.054236295E-4,0.000000000E0,-7.635590737E-4,8.223782903E-4
2.875052877E0,3.054236295E-4,0.000000000E0,-7.635590737E-4,8.223782903E-4
2.877496366E0,3.054236295E-4,-1.221694518E-3,4.581354442E-4,1.340040736E-3
2.879940741E0,-9.162708884E-4,-1.221694518E-3,1.679830020E-3,2.270224379E-3
2.882385845E0,3.054236295E-4,-1.221694518E-3,-7.635590737E-4,1.472699408E-3
2.884830064E0,3.054236295E-4,1.221694518E-3,4.581354442E-4,1.340040736E-3
2.887273606E0,-9.162708884E-4,0.000000000E0,-7.635590737E-4,1.192717402E-3
2.889717877E0,-9.162708884E-4,0.000000000E0,-1.985253533E-3,2.186500385E-3
2.892163033E0,3.054236295E-4,-1.221694518E-3,4.581354442E-4,1.340040736E-3
2.894607304E0,1.527118147E-3,0.000000000E0,4.581354442E-4,1.594358153E-3
2.897050845E0,-9.162708884E-4,1.221694518E-3,-7.635590737E-4,1.707369994E-3
2.899495116E0,3.054236295E-4,-1.221694518E-3,4.581354442E-4,1.340040736E-3
2.901940272E0,-9.162708884E-4,0.000000000E0,-7.635590737E-4,1.192717402E-3
2.904384543E0,-9.162708884E-4,-1.221694518E-3,-7.635590737E-4,1.707369994E-3
2.906828033E0,1.527118147E-3,1.221694518E-3,4.581354442E-4,2.008610320E-3
2.909272408E0,3.054236295E-4,-1.221694518E-3,-7.635590737E-4,1.472699408E-3
2.911717512E0,-9.162708884E-4,-1.221694518E-3,-7.635590737E-4,1.707369994E-3
2.914161783E0,-9.162708884E-4,1.221694518E-3,-1.985253533E-3,2.504659943E-3
2.916605272E0,3.054236295E-4,-1.221694518E-3,-7.635590737E-4,1.472699408E-3
2.919049647E0,-9.162708884E-4,-1.221694518E-3,4.581354442E-4,1.594358153E-3
2.921494699E0,-2.137965523E-3,0.000000000E0,1.679830020E-3,2.718956688E-3
2.923938970E0,-9.162708884E-4,1.221694518E-3,-7.635590737E-4,1.707369994E-3
2.926382512E0,3.054236295E-4,-1.221694518E-3,-7.635590737E-4,1.472699408E-3
2.928826783E0,3.054236295E-4,0.000000000E0,1.679830020E-3,1.707370051E-3
2.931271939E0,1.527118147E-3,-1.221694518E-3,-7.635590737E-4,2.099440352E-3
2.933716210E0,1.527118147E-3,-2.443389036E-3,-1.985253533E-3,3.499067220E-3
2.936159699E0,1.527118147E-3,0.000000000E0,-7.635590737E-4,1.707369994E-3
2.938604074E0,3.054236295E-4,-1.221694518E-3,-7.635590737E-4,1.472699408E-3
2.941049179E0,3.054236295E-4,0.000000000E0,4.581354442E-4,5.506102784E-4
2.943493449E0,1.527118147E-3,0.000000000E0,1.679830020E-3,2.270224379E-3
2.945936939E0,1.527118147E-3,-1.221694518E-3,4.581354442E-4,2.008610320E-3
2.948381314E0,1.527118147E-3,-2.443389036E-3,4.581354442E-4,2.917555124E-3
2.950826418E0,3.054236295E-4,-1.221694518E-3,1.679830020E-3,2.099440398E-3
2.953270637E0,-9.162708884E-4,0.000000000E0,4.581354442E-4,1.024421996E-3
2.955714179E0,-9.162708884E-4,0.000000000E0,-7.635590737E-4,1.192717402E-3
2.958158449E0,3.054236295E-4,0.000000000E0,-7.635590737E-4,8.223782903E-4
2.960603606E0,3.054236295E-4,1.221694518E-3,4.581354442E-4,1.340040736E-3
2.963047877E0,-9.162708884E-4,-1.221694518E-3,-7.635590737E-4,1.707369994E-3
2.965491366E0,-9.162708884E-4,0.000000000E0,4.581354442E-4,1.024421996E-3
2.967935741E0,3.054236295E-4,0.000000000E0,4.581354442E-4,5.506102784E-4
2.970380845E0,3.054236295E-4,0.000000000E0,4.581354442E-4,5.506102784E-4
2.972825116E0,3.054236295E-4,0.000000000E0,-7.635590737E-4,8.223782903E-4
2.975268606E0,-9.162708884E-4,-2.443389036E-3,4.581354442E-4,2.649450963E-3
2.977712981E0,1.527118147E-3,0.000000000E0,4.581354442E-4,1.594358153E-3
2.980158085E0,3.054236295E-4,-1.221694518E-3,4.581354442E-4,1.340040736E-3
2.982602304E0,3.054236295E-4,-1.221694518E-3,4.581354442E-4,1.340040736E-3
2.985045845E0,3.054236295E-4,0.000000000E0,-7.635590737E-4,8.223782903E-4
2.987490220E0,-9.162708884E-4,0.000000000E0,-7.635590737E-4,1.192717402E-3
2.989935272E0,3.054236295E-4,1.221694518E-3,-7.635590737E-4,1.472699408E-3
2.992379543E0,3.054236295E-4,-1.221694518E-3,4.581354442E-4,1.340040736E-3
2.994823085E0,-2.137965523E-3,-1.221694518E-3,-1.985253533E-3,3.163015280E-3
2.997267356E0,-9.162708884E-4,0.000000000E0,4.581354442E-4,1.024421996E-3
2.999712512E0,-9.162708884E-4,-1.221694518E-3,4.581354442E-4,1.594358153E-3
3.002156783E0,3.054236295E-4,0.000000000E0,4.581354442E-4,5.506102784E-4
3.004600272E0,1.527118147E-3,0.000000000E0,-7.635590737E-4,1.707369994E-3
3.007044647E0,3.054236295E-4,0.000000000E0,-7.635590737E-4,8.223782903E-4
3.009489752E0,3.054236295E-4,0.000000000E0,4.581354442E-4,5.506102784E-4
3.011934022E0,3.054236295E-4,0.000000000E0,4.581354442E-4,5.506102784E-4
3.014377512E0,3.054236295E-4,-1.221694518E-3,4.581354442E-4,1.340040736E-3
3.016821887E0,3.054236295E-4,-1.221694518E-3,1.679830020E-3,2.099440398E-3
3.019266991E0,3.054236295E-4,-2.443389036E-3,4.581354442E-4,2.504659989E-3
3.021711210E0,1.527118147E-3,-2.443389036E-3,-7.635590737E-4,2.980815706E-3
3.024154752E0,1.527118147E-3,-1.221694518E-3,-7.635590737E-4,2.099440352E-3
3.026599022E0,3.054236295E-4,0.000000000E0,4.581354442E-4,5.506102784E-4
3.029044179E0,-9.162708884E-4,1.221694518E-3,4.581354442E-4,1.594358153E-3
3.031488449E0,3.054236295E-4,0.000000000E0,-7.635590737E-4,8.223782903E-4
3.033931939E0,1.527118147E-3,-1.221694518E-3,-7.635590737E-4,2.099440352E-3
3.036376314E0,3.054236295E-4,0.000000000E0,4.581354442E-4,5.506102784E-4
3.038821418E0,3.054236295E-4,1.221694518E-3,1.679830020E-3,2.099440398E-3
3.041265689E0,3.054236295E-4,-1.221694518E-3,-1.985253533E-3,2.350968456E-3
3.043709179E0,1.527118147E-3,-1.221694518E-3,-3.206948051E-3,3.756213936E-3
3.046153554E0,3.054236295E-4,0.000000000E0,-7.635590737E-4,8.223782903E-4
3.048598658E0,3.054236295E-4,1.221694518E-3,4.581354442E-4,1.340040736E-3
3.051042929E0,3.054236295E-4,1.221694518E-3,4.581354442E-4,1.340040736E-3
3.053486418E0,-9.162708884E-4,1.221694518E-3,4.581354442E-4,1.594358153E-3
3.055930793E0,3.054236295E-4,0.000000000E0,1.679830020E-3,1.707370051E-3
3.058375845E0,-9.162708884E-4,1.221694518E-3,4.581354442E-4,1.594358153E-3
3.060820116E0,3.054236295E-4,0.000000000E0,4.581354442E-4,5.506102784E-4
3.063263658E0,3.054236295E-4,1.221694518E-3,-7.635590737E-4,1.472699408E-3
3.065707929E0,3.054236295E-4,0.000000000E0,4.581354442E-4,5.506102784E-4
3.068153085E0,1.527118147E-3,0.000000000E0,-7.635590737E-4,1.707369994E-3
3.070597356E0,-9.162708884E-4,0.000000000E0,-7.635590737E-4,1.192717402E-3
3.073040845E0,3.054236295E-4,-1.221694518E-3,4.581354442E-4,1.340040736E-3
3.075485220E0,1.527118147E-3,-1.221694518E-3,1.679830020E-3,2.578072192E-3
3.077930324E0,3.054236295E-4,0.000000000E0,4.581354442E-4,5.506102784E-4
3.080374595E0,1.527118147E-3,-1.221694518E-3,4.581354442E-4,2.008610320E-3
3.082818085E0,2.748812549E-3,0.000000000E0,4.581354442E-4,2.786728999E-3
3.085262460E0,3.054236295E-4,-1.221694518E-3,-7.635590737E-4,1.472699408E-3
3.087707564E0,3.054236295E-4,-2.443389036E-3,-7.635590737E-4,2.578072154E-3
3.090151783E0,1.527118147E-3,-1.221694518E-3,-7.635590737E-4,2.099440352E-3
3.092595324E0,1.527118147E-3,-1.221694518E-3,1.679830020E-3,2.578072192E-3
3.095039595E0,-9.162708884E-4,1.221694518E-3,-7.635590737E-4,1.707369994E-3
3.097484752E0,3.054236295E-4,-2.443389036E-3,-7.635590737E-4,2.578072154E-3
3.099929022E0,1.527118147E-3,0.000000000E0,4.581354442E-4,1.594358153E-3
3.102372512E0,-9.162708884E-4,0.000000000E0,-7.635590737E-4,1.192717402E-3
3.104816887E0,-9.162708884E-4,-1.221694518E-3,1.679830020E-3,2.270224379E-3
3.107261991E0,3.054236295E-4,-2.443389036E-3,1.679830020E-3,2.980815739E-3
3.109706262E0,3.054236295E-4,0.000000000E0,1.679830020E-3,1.707370051E-3
3.112149752E0,-9.162708884E-4,0.000000000E0,4.581354442E-4,1.024421996E-3
3.114594127E0,3.054236295E-4,-1.221694518E-3,4.581354442E-4,1.340040736E-3
3.117039231E0,1.527118147E-3,-2.443389036E-3,4.581354442E-4,2.917555124E-3
3.119483449E0,3.054236295E-4,0.000000000E0,-1.985253533E-3,2.008610262E-3
3.121926991E0,3.054236295E-4,0.000000000E0,-3.206948051E-3,3.221459203E-3
3.124371366E0,1.527118147E-3,-2.443389036E-3,-1.985253533E-3,3.499067220E-3
3.126816470E0,3.054236295E-4,-1.221694518E-3,4.581354442E-4,1.340040736E-3
3.129260689E0,-9.162708884E-4,-1.221694518E-3,-7.635590737E-4,1.707369994E-3
3.131704231E0,-9.162708884E-4,-2.443389036E-3,4.581354442E-4,2.649450963E-3
3.134148502E0,1.527118147E-3,-1.221694518E-3,4.581354442E-4,2.008610320E-3
3.136593658E0,1.527118147E-3,-1.221694518E-3,1.679830020E-3,2.578072192E-3
3.139037929E0,-9.162708884E-4,-1.221694518E-3,-7.635590737E-4,1.707369994E-3
3.141481418E0,3.054236295E-4,-1.221694518E-3,-7.635590737E-4,1.472699408E-3
3.143925793E0,3.054236295E-4,0.000000000E0,-1.985253533E-3,2.008610262E-3
3.146370897E0,1.527118147E-3,-1.221694518E-3,-7.635590737E-4,2.099440352E-3
3.148815168E0,-9.162708884E-4,0.000000000E0,-7.635590737E-4,1.192717402E-3
3.151258658E0,-9.162708884E-4,0.000000000E0,-7.635590737E-4,1.192717402E-3
3.153703033E0,3.054236295E-4,-1.221694518E-3,-7.635590737E-4,1.472699408E-3
3.156148137E0,3.054236295E-4,-1.221694518E-3,4.581354442E-4,1.340040736E-3
3.158592356E0,-9.162708884E-4,-2.443389036E-3,4.581354442E-4,2.649450963E-3
3.161035897E0,-9.162708884E-4,0.000000000E0,-7.635590737E-4,1.192717402E-3
3.163480168E0,3.054236295E-4,0.000000000E0,-1.985253533E-3,2.008610262E-3
3.165925324E0,1.527118147E-3,-1.221694518E-3,-7.635590737E-4,2.099440352E-3
3.168369595E0,-9.162708884E-4,0.000000000E0,-3.206948051E-3,3.335276322E-3
3.170813137E0,-9.162708884E-4,0.000000000E0,4.581354442E-4,1.024421996E-3
3.173257408E0,-9.162708884E-4,-1.221694518E-3,4.581354442E-4,1.594358153E-3
3.175702564E0,-9.162708884E-4,1.221694518E-3,1.679830020E-3,2.270224379E-3
3.178146835E0,3.054236295E-4,0.000000000E0,-1.985253533E-3,2.008610262E-3
3.180590324E0,3.054236295E-4,0.000000000E0,1.679830020E-3,1.707370051E-3
3.183034699E0,3.054236295E-4,1.221694518E-3,1.679830020E-3,2.099440398E-3
3.185479804E0,3.054236295E-4,0.000000000E0,-7.635590737E-4,8.223782903E-4
3.187924022E0,3.054236295E-4,0.000000000E0,1.679830020E-3,1.707370051E-3
3.190367564E0,3.054236295E-4,0.000000000E0,4.581354442E-4,5.506102784E-4
3.192811939E0,-9.162708884E-4,0.000000000E0,-7.635590737E-4,1.192717402E-3
3.195256991E0,3.054236295E-4,-1.221694518E-3,4.581354442E-4,1.340040736E-3
3.197701262E0,1.527118147E-3,-1.221694518E-3,4.581354442E-4,2.008610320E-3
3.200144804E0,-9.162708884E-4,0.000000000E0,-1.985253533E-3,2.186500385E-3
3.202589074E0,3.054236295E-4,0.000000000E0,4.581354442E-4,5.506102784E-4
3.205034231E0,3.054236295E-4,0.000000000E0,4.581354442E-4,5.506102784E-4
3.207478502E0,3.054236295E-4,-1.221694518E-3,-7.635590737E-4,1.472699408E-3
3.209921991E0,3.054236295E-4,-1.221694518E-3,4.581354442E-4,1.340040736E-3
3.212366366E0,3.054236295E-4,0.000000000E0,-7.635590737E-4,8.223782903E-4
3.214811470E0,3.054236295E-4,-2.443389036E-3,4.581354442E-4,2.504659989E-3
3.217255741E0,3.054236295E-4,-1.221694518E-3,4.581354442E-4,1.340040736E-3
3.219699231E0,3.054236295E-4,0.000000000E0,4.581354442E-4,5.506102784E-4
3.222143606E0,1.527118147E-3,-1.221694518E-3,-7.635590737E-4,2.099440352E-3
3.224588710E0,3.054236295E-4,0.000000000E0,-7.635590737E-4,8.223782903E-4
3.227032929E0,1.527118147E-3,0.000000000E0,1.679830020E-3,2.270224379E-3
3.229476470E0,3.054236295E-4,-2.443389036E-3,4.581354442E-4,2.504659989E-3
3.231920741E0,-9.162708884E-4,-1.221694518E-3,4.581354442E-4,1.594358153E-3
3.234365897E0,1.527118147E-3,-1.221694518E-3,4.581354442E-4,2.008610320E-3
3.236810168E0,1.527118147E-3,0.000000000E0,-7.635590737E-4,1.707369994E-3
3.239253658E0,1.527118147E-3,0.000000000E0,-7.635590737E-4,1.707369994E-3
3.241698033E0,3.054236295E-4,0.000000000E0,-7.635590737E-4,8.223782903E-4
3.244143137E0,3.054236295E-4,1.221694518E-3,-7.635590737E-4,1.472699408E-3
3.246587408E0,3.054236295E-4,-1.221694518E-3,4.581354442E-4,1.340040736E-3
3.249030897E0,-9.162708884E-4,-1.221694518E-3,-1.985253533E-3,2.504659943E-3
3.251475272E0,-9.162708884E-4,1.221694518E-3,-3.206948051E-3,3.551986154E-3
3.253920377E0,3.054236295E-4,1.221694518E-3,1.679830020E-3,2.099440398E-3
3.256364647E0,3.054236295E-4,-1.221694518E-3,-7.635590737E-4,1.472699408E-3
3.258808137E0,-9.162708884E-4,-1.221694518E-3,4.581354442E-4,1.594358153E-3
3.261252408E0,-9.162708884E-4,0.000000000E0,4.581354442E-4,1.024421996E-3
3.263697616E0,1.527118147E-3,-1.221694518E-3,-7.635590737E-4,2.099440352E-3
3.266141835E0,3.054236295E-4,0.000000000E0,-3.206948051E-3,3.221459203E-3
3.268585377E0,1.527118147E-3,0.000000000E0,-7.635590737E-4,1.707369994E-3
3.271029647E0,3.054236295E-4,0.000000000E0,4.581354442E-4,5.506102784E-4
3.273474804E0,1.527118147E-3,1.221694518E-3,4.581354442E-4,2.008610320E-3
3.275919074E0,3.054236295E-4,1.221694518E-3,4.581354442E-4,1.340040736E-3
3.278362564E0,1.527118147E-3,-1.221694518E-3,4.581354442E-4,2.008610320E-3
3.280806939E0,3.054236295E-4,0.000000000E0,1.679830020E-3,1.707370051E-3
3.283252043E0,3.054236295E-4,0.000000000E0,4.581354442E-4,5.506102784E-4
3.285696314E0,3.054236295E-4,0.000000000E0,-7.635590737E-4,8.223782903E-4
3.288139804E0,3.054236295E-4,0.000000000E0,4.581354442E-4,5.506102784E-4
3.290584179E0,3.054236295E-4,-1.221694518E-3,4.581354442E-4,1.340040736E-3
3.293029283E0,3.054236295E-4,-1.221694518E-3,4.581354442E-4,1.340040736E-3
3.295473502E0,3.054236295E-4,-1.221694518E-3,4.581354442E-4,1.340040736E-3
3.297917043E0,3.054236295E-4,1.221694518E-3,-7.635590737E-4,1.472699408E-3
3.300361314E0,-9.162708884E-4,1.221694518E-3,4.581354442E-4,1.594358153E-3
3.302806470E0,-9.162708884E-4,0.000000000E0,-7.635590737E-4,1.192717402E-3
3.305250741E0,-9.162708884E-4,0.000000000E0,4.581354442E-4,1.024421996E-3
3.307694231E0,3.054236295E-4,-1.221694518E-3,4.581354442E-4,1.340040736E-3
3.310138606E0,-9.162708884E-4,-1.221694518E-3,-7.635590737E-4,1.707369994E-3
3.312583710E0,3.054236295E-4,0.000000000E0,-7.635590737E-4,8.223782903E-4
3.315027981E0,1.527118147E-3,-1.221694518E-3,2.901524538E-3,3.499067301E-3
3.317471470E0,1.527118147E-3,-2.443389036E-3,1.679830020E-3,3.335276407E-3
3.319915845E0,3.054236295E-4,-1.221694518E-3,2.901524538E-3,3.163015291E-3
3.322360949E0,3.054236295E-4,-1.221694518E-3,-7.635590737E-4,1.472699408E-3
3.324805168E0,-9.162708884E-4,-1.221694518E-3,4.581354442E-4,1.594358153E-3
3.327248710E0,-9.162708884E-4,0.000000000E0,4.581354442E-4,1.024421996E-3
3.329693085E0,3.054236295E-4,-1.221694518E-3,1.679830020E-3,2.099440398E-3
3.332138189E0,3.054236295E-4,0.000000000E0,4.581354442E-4,5.506102784E-4
3.334582408E0,1.527118147E-3,-1.221694518E-3,1.679830020E-3,2.578072192E-3
3.337025949E0,3.054236295E-4,-1.221694518E-3,4.581354442E-4,1.340040736E-3
3.339470220E0,3.054236295E-4,0.000000000E0,1.679830020E-3,1.707370051E-3
3.341915377E0,3.054236295E-4,-1.221694518E-3,4.581354442E-4,1.340040736E-3
3.344359647E0,3.054236295E-4,0.000000000E0,-1.985253533E-3,2.008610262E-3
3.346803137E0,3.054236295E-4,0.000000000E0,-3.206948051E-3,3.221459203E-3
3.349247512E0,-9.162708884E-4,-1.221694518E-3,1.679830020E-3,2.270224379E-3
3.351692616E0,-9.162708884E-4,0.000000000E0,4.581354442E-4,1.024421996E-3
3.354136887E0,3.054236295E-4,1.221694518E-3,-7.635590737E-4,1.472699408E-3
3.356580377E0,-9.162708884E-4,1.221694518E-3,1.679830020E-3,2.270224379E-3
3.359024752E0,3.054236295E-4,-2.443389036E-3,2.901524538E-3,3.805558858E-3
3.361469856E0,3.054236295E-4,0.000000000E0,-7.635590737E-4,8.223782903E-4
3.363914074E0,-9.162708884E-4,0.000000000E0,-7.635590737E-4,1.192717402E-3
3.366357616E0,-9.162708884E-4,0.000000000E0,4.581354442E-4,1.024421996E-3
3.368801991E0,-9.162708884E-4,0.000000000E0,2.901524538E-3,3.042761408E-3
3.371247043E0,3.054236295E-4,0.000000000E0,-7.635590737E-4,8.223782903E-4
3.373691314E0,3.054236295E-4,-1.221694518E-3,-7.635590737E-4,1.472699408E-3
3.376134804E0,-9.162708884E-4,-1.221694518E-3,4.581354442E-4,1.594358153E-3
3.378579179E0,3.054236295E-4,0.000000000E0,4.581354442E-4,5.506102784E-4
3.381024283E0,1.527118147E-3,0.000000000E0,4.581354442E-4,1.594358153E-3
3.383468554E0,-9.162708884E-4,1.221694518E-3,-7.635590737E-4,1.707369994E-3
3.385912043E0,1.527118147E-3,-1.221694518E-3,4.581354442E-4,2.008610320E-3
3.388356418E0,-9.162708884E-4,0.000000000E0,4.581354442E-4,1.024421996E-3
3.390801522E0,1.527118147E-3,0.000000000E0,-1.985253533E-3,2.504659943E-3
3.393245793E0,3.054236295E-4,-1.221694518E-3,-1.985253533E-3,2.350968456E-3
3.395689283E0,3.054236295E-4,0.000000000E0,-7.635590737E-4,8.223782903E-4
3.398133658E0,3.054236295E-4,0.000000000E0,4.581354442E-4,5.506102784E-4
3.400578762E0,-9.162708884E-4,1.221694518E-3,1.679830020E-3,2.270224379E-3
3.403022981E0,-9.162708884E-4,2.443389036E-3,4.581354442E-4,2.649450963E-3
3.405466522E0,3.054236295E-4,1.221694518E-3,4.581354442E-4,1.340040736E-3
3.407910793E0,-9.162708884E-4,1.221694518E-3,4.581354442E-4,1.594358153E-3
3.410355949E0,1.527118147E-3,-1.221694518E-3,-1.985253533E-3,2.786729072E-3
3.412800220E0,-9.162708884E-4,0.000000000E0,4.581354442E-4,1.024421996E-3
3.415243710E0,3.054236295E-4,0.000000000E0,4.581354442E-4,5.506102784E-4
3.417688085E0,-9.162708884E-4,1.221694518E-3,4.581354442E-4,1.594358153E-3
3.420133189E0,3.054236295E-4,0.000000000E0,-7.635590737E-4,8.223782903E-4
3.422577460E0,-2.137965523E-3,2.443389036E-3,4.581354442E-4,3.278861791E-3
3.425020949E0,3.054236295E-4,0.000000000E0,2.901524538E-3,2.917555182E-3
3.427465324E0,1.527118147E-3,-1.221694518E-3,-7.635590737E-4,2.099440352E-3
3.429910429E0,3.054236295E-4,0.000000000E0,-1.985253533E-3,2.008610262E-3
3.432354647E0,3.054236295E-4,-1.221694518E-3,4.581354442E-4,1.340040736E-3
3.434798189E0,3.054236295E-4,0.000000000E0,-7.635590737E-4,8.223782903E-4
3.437242564E0,3.054236295E-4,0.000000000E0,4.581354442E-4,5.506102784E-4
3.439687668E0,3.054236295E-4,0.000000000E0,-1.985253533E-3,2.008610262E-3
3.442131887E0,3.054236295E-4,-2.443389036E-3,-1.985253533E-3,3.163015202E-3
3.444575429E0,1.527118147E-3,-2.443389036E-3,4.581354442E-4,2.917555124E-3
3.447019699E0,3.054236295E-4,0.000000000E0,4.581354442E-4,5.506102784E-4
3.449464856E0,-9.162708884E-4,0.000000000E0,-7.635590737E-4,1.192717402E-3
3.451909127E0,-9.162708884E-4,0.000000000E0,4.581354442E-4,1.024421996E-3
3.454352616E0,1.527118147E-3,0.000000000E0,4.581354442E-4,1.594358153E-3
3.456796991E0,1.527118147E-3,-1.221694518E-3,4.581354442E-4,2.008610320E-3
3.459242095E0,-9.162708884E-4,0.000000000E0,-7.635590737E-4,1.192717402E-3
3.461686366E0,1.527118147E-3,-1.221694518E-3,4.581354442E-4,2.008610320E-3
3.464129856E0,3.054236295E-4,0.000000000E0,1.679830020E-3,1.707370051E-3
3.466574231E0,3.054236295E-4,0.000000000E0,1.679830020E-3,1.707370051E-3
3.469019335E0,1.527118147E-3,0.000000000E0,4.581354442E-4,1.594358153E-3
3.471463554E0,3.054236295E-4,-1.221694518E-3,4.581354442E-4,1.340040736E-3
3.473907095E0,3.054236295E-4,-1.221694518E-3,4.581354442E-4,1.340040736E-3
3.476351366E0,1.527118147E-3,-1.221694518E-3,4.581354442E-4,2.008610320E-3
3.478796574E0,3.054236295E-4,1.221694518E-3,1.679830020E-3,2.099440398E-3
3.481240793E0,-9.162708884E-4,0.000000000E0,4.581354442E-4,1.024421996E-3
3.483684335E0,3.054236295E-4,-1.221694518E-3,1.679830020E-3,2.099440398E-3
3.486128606E0,3.054236295E-4,-1.221694518E-3,4.581354442E-4,1.340040736E-3
3.488573762E0,3.054236295E-4,-1.221694518E-3,-7.635590737E-4,1.472699408E-3
3.491018033E0,3.054236295E-4,-3.665083554E-3,-1.985253533E-3,4.179396205E-3
3.493461522E0,-9.162708884E-4,-1.221694518E-3,-7.635590737E-4,1.707369994E-3
3.495905897E0,3.054236295E-4,-1.221694518E-3,-7.635590737E-4,1.472699408E-3
3.498351002E0,3.054236295E-4,-1.221694518E-3,4.581354442E-4,1.340040736E-3
3.500795272E0,-9.162708884E-4,0.000000000E0,4.581354442E-4,1.024421996E-3
3.503238762E0,1.527118147E-3,0.000000000E0,4.581354442E-4,1.594358153E-3
3.505683137E0,3.054236295E-4,-1.221694518E-3,4.581354442E-4,1.340040736E-3
3.508128241E0,3.054236295E-4,0.000000000E0,4.581354442E-4,5.506102784E-4
3.510572460E0,1.527118147E-3,0.000000000E0,4.581354442E-4,1.594358153E-3
3.513016002E0,1.527118147E-3,0.000000000E0,4.581354442E-4,1.594358153E-3
3.515460272E0,3.054236295E-4,-1.221694518E-3,1.679830020E-3,2.099440398E-3
3.517905429E0,3.054236295E-4,0.000000000E0,-7.635590737E-4,8.223782903E-4
3.520349699E0,-9.162708884E-4,1.221694518E-3,-7.635590737E-4,1.707369994E-3
3.522793189E0,3.054236295E-4,-1.221694518E-3,4.581354442E-4,1.340040736E-3
3.525237564E0,3.054236295E-4,0.000000000E0,-7.635590737E-4,8.223782903E-4
3.527682668E0,1.527118147E-3,-1.221694518E-3,1.679830020E-3,2.578072192E-3
3.530126939E0,1.527118147E-3,1.221694518E-3,4.581354442E-4,2.008610320E-3
3.532570429E0,3.054236295E-4,0.000000000E0,4.581354442E-4,5.506102784E-4
3.535014804E0,3.054236295E-4,-1.221694518E-3,-7.635590737E-4,1.472699408E-3
3.537459908E0,3.054236295E-4,0.000000000E0,4.581354442E-4,5.506102784E-4
3.539904179E0,-9.162708884E-4,-1.221694518E-3,4.581354442E-4,1.594358153E-3
3.542347668E0,-9.162708884E-4,-1.221694518E-3,-1.985253533E-3,2.504659943E-3
3.544792043E0,3.054236295E-4,-1.221694518E-3,2.901524538E-3,3.163015291E-3
3.547237095E0,-9.162708884E-4,1.221694518E-3,4.581354442E-4,1.594358153E-3
3.549681366E0,-9.162708884E-4,1.221694518E-3,1.679830020E-3,2.270224379E-3
3.552124908E0,1.527118147E-3,-2.443389036E-3,4.581354442E-4,2.917555124E-3
3.554569179E0,1.527118147E-3,-1.221694518E-3,4.581354442E-4,2.008610320E-3
3.557014335E0,-9.162708884E-4,0.000000000E0,-1.985253533E-3,2.186500385E-3
3.559458606E0,3.054236295E-4,0.000000000E0,1.679830020E-3,1.707370051E-3
3.561902095E0,3.054236295E-4,1.221694518E-3,1.679830020E-3,2.099440398E-3
3.564346470E0,-9.162708884E-4,1.221694518E-3,-7.635590737E-4,1.707369994E-3
3.566791574E0,3.054236295E-4,0.000000000E0,-3.206948051E-3,3.221459203E-3
3.569235845E0,3.054236295E-4,0.000000000E0,4.581354442E-4,5.506102784E-4
3.571679335E0,3.054236295E-4,-1.221694518E-3,1.679830020E-3,2.099440398E-3
3.574123710E0,-9.162708884E-4,-1.221694518E-3,-7.635590737E-4,1.707369994E-3
3.576568814E0,3.054236295E-4,-2.443389036E-3,4.581354442E-4,2.504659989E-3
3.579013033E0,3.054236295E-4,1.221694518E-3,4.581354442E-4,1.340040736E-3
3.581456574E0,-9.162708884E-4,1.221694518E-3,1.679830020E-3,2.270224379E-3
3.583900845E0,-9.162708884E-4,2.443389036E-3,1.679830020E-3,3.103470834E-3
3.586346002E0,1.527118147E-3,0.000000000E0,4.581354442E-4,1.594358153E-3
3.588790272E0,3.054236295E-4,0.000000000E0,-1.985253533E-3,2.008610262E-3
3.591233814E0,3.054236295E-4,0.000000000E0,4.581354442E-4,5.506102784E-4
3.593678085E0,3.054236295E-4,-1.221694518E-3,4.581354442E-4,1.340040736E-3
3.596123241E0,1.527118147E-3,-1.221694518E-3,4.581354442E-4,2.008610320E-3
3.598567512E0,3.054236295E-4,0.000000000E0,-7.635590737E-4,8.223782903E-4
3.601011002E0,3.054236295E-4,0.000000000E0,4.581354442E-4,5.506102784E-4
3.603455377E0,3.054236295E-4,1.221694518E-3,1.679830020E-3,2.099440398E-3
3.605900481E0,-9.162708884E-4,0.000000000E0,4.581354442E-4,1.024421996E-3
3.608344752E0,1.527118147E-3,-1.221694518E-3,-1.985253533E-3,2.786729072E-3
3.610788241E0,3.054236295E-4,-1.221694518E-3,4.581354442E-4,1.340040736E-3
3.613232616E0,3.054236295E-4,-1.221694518E-3,4.581354442E-4,1.340040736E-3
3.615677720E0,-9.162708884E-4,-1.221694518E-3,-7.635590737E-4,1.707369994E-3
3.618121939E0,3.054236295E-4,-1.221694518E-3,1.679830020E-3,2.099440398E-3
3.620565481E0,-9.162708884E-4,1.221694518E-3,-7.635590737E-4,1.707369994E-3
3.623009752E0,3.054236295E-4,-1.221694518E-3,4.581354442E-4,1.340040736E-3
3.625454908E0,3.054236295E-4,-1.221694518E-3,4.581354442E-4,1.340040736E-3
3.627899179E0,3.054236295E-4,-1.221694518E-3,-7.635590737E-4,1.472699408E-3
3.630342668E0,3.054236295E-4,0.000000000E0,4.581354442E-4,5.506102784E-4
3.632787043E0,3.054236295E-4,-1.221694518E-3,4.581354442E-4,1.340040736E-3
3.635232147E0,3.054236295E-4,-1.221694518E-3,4.581354442E-4,1.340040736E-3
3.637676418E0,3.054236295E-4,0.000000000E0,-7.635590737E-4,8.223782903E-4
3.640119908E0,3.054236295E-4,2.443389036E-3,-7.635590737E-4,2.578072154E-3
3.642564283E0,3.054236295E-4,-1.221694518E-3,2.901524538E-3,3.163015291E-3
3.645009387E0,3.054236295E-4,-1.221694518E-3,4.581354442E-4,1.340040736E-3
3.647453658E0,3.054236295E-4,-1.221694518E-3,4.581354442E-4,1.340040736E-3
3.649897147E0,-9.162708884E-4,0.000000000E0,-7.635590737E-4,1.192717402E-3
3.652341522E0,-9.162708884E-4,0.000000000E0,-7.635590737E-4,1.192717402E-3
3.654786627E0,3.054236295E-4,0.000000000E0,-7.635590737E-4,8.223782903E-4
3.657230845E0,3.054236295E-4,0.000000000E0,-7.635590737E-4,8.223782903E-4
3.659674387E0,-9.162708884E-4,-1.221694518E-3,-7.635590737E-4,1.707369994E-3
3.662118658E0,-9.162708884E-4,-2.443389036E-3,-7.635590737E-4,2.718956561E-3
3.664563814E0,3.054236295E-4,-1.221694518E-3,-1.985253533E-3,2.350968456E-3
3.667008085E0,1.527118147E-3,0.000000000E0,-7.635590737E-4,1.707369994E-3
3.669451574E0,3.054236295E-4,0.000000000E0,1.679830020E-3,1.707370051E-3
3.671895949E0,3.054236295E-4,0.000000000E0,1.679830020E-3,1.707370051E-3
3.674341054E0,3.054236295E-4,1.221694518E-3,4.581354442E-4,1.340040736E-3
3.676785324E0,1.527118147E-3,0.000000000E0,4.581354442E-4,1.594358153E-3
3.679228814E0,3.054236295E-4,1.221694518E-3,-7.635590737E-4,1.472699408E-3
3.681673189E0,-9.162708884E-4,0.000000000E0,-1.985253533E-3,2.186500385E-3
3.684118293E0,1.527118147E-3,-1.221694518E-3,-7.635590737E-4,2.099440352E-3
3.686562564E0,-9.162708884E-4,-1.221694518E-3,4.581354442E-4,1.594358153E-3
3.689006054E0,3.054236295E-4,0.000000000E0,-7.635590737E-4,8.223782903E-4
3.691450429E0,3.054236295E-4,-1.221694518E-3,4.581354442E-4,1.340040736E-3
3.693895481E0,3.054236295E-4,0.000000000E0,-7.635590737E-4,8.223782903E-4
3.696339752E0,3.054236295E-4,-1.221694518E-3,-1.985253533E-3,2.350968456E-3
3.698783293E0,3.054236295E-4,-1.221694518E-3,-1.985253533E-3,2.350968456E-3
3.701227564E0,3.054236295E-4,0.000000000E0,-7.635590737E-4,8.223782903E-4
3.703672720E0,3.054236295E-4,-1.221694518E-3,-7.635590737E-4,1.472699408E-3
3.706116991E0,3.054236295E-4,-1.221694518E-3,-1.985253533E-3,2.350968456E-3
3.708560481E0,1.527118147E-3,-1.221694518E-3,-1.985253533E-3,2.786729072E-3
3.711004856E0,-9.162708884E-4,0.000000000E0,4.581354442E-4,1.024421996E-3
3.713449960E0,-9.162708884E-4,-1.221694518E-3,4.581354442E-4,1.594358153E-3
3.715894231E0,3.054236295E-4,-1.221694518E-3,1.679830020E-3,2.099440398E-3
3.718337720E0,2.748812549E-3,0.000000000E0,1.679830020E-3,3.221459192E-3
3.720782095E0,1.527118147E-3,1.221694518E-3,4.581354442E-4,2.008610320E-3
3.723227199E0,1.527118147E-3,0.000000000E0,4.581354442E-4,1.594358153E-3
3.725671418E0,3.054236295E-4,-2.443389036E-3,4.581354442E-4,2.504659989E-3
3.728114960E0,3.054236295E-4,-1.221694518E-3,-7.635590737E-4,1.472699408E-3
3.730559231E0,3.054236295E-4,-1.221694518E-3,4.581354442E-4,1.340040736E-3
3.733004387E0,3.054236295E-4,0.000000000E0,1.679830020E-3,1.707370051E-3
3.735448658E0,3.054236295E-4,-1.221694518E-3,2.901524538E-3,3.163015291E-3
3.737892199E0,-9.162708884E-4,1.221694518E-3,-1.985253533E-3,2.504659943E-3
3.740336470E0,1.527118147E-3,-1.221694518E-3,4.581354442E-4,2.008610320E-3
3.742781627E0,1.527118147E-3,0.000000000E0,4.581354442E-4,1.594358153E-3
3.745225897E0,3.054236295E-4,0.000000000E0,-1.985253533E-3,2.008610262E-3
3.747669387E0,3.054236295E-4,-2.443389036E-3,-1.985253533E-3,3.163015202E-3
3.750113762E0,3.054236295E-4,0.000000000E0,-7.635590737E-4,8.223782903E-4
3.752558866E0,-9.162708884E-4,1.221694518E-3,4.581354442E-4,1.594358153E-3
3.755003137E0,3.054236295E-4,0.000000000E0,-7.635590737E-4,8.223782903E-4
3.757446627E0,-9.162708884E-4,-1.221694518E-3,-7.635590737E-4,1.707369994E-3
3.759891002E0,-9.162708884E-4,0.000000000E0,1.679830020E-3,1.913473605E-3
3.762336106E0,1.527118147E-3,-1.221694518E-3,1.679830020E-3,2.578072192E-3
3.764780324E0,3.054236295E-4,0.000000000E0,4.581354442E-4,5.506102784E-4
3.767223866E0,3.054236295E-4,-1.221694518E-3,4.581354442E-4,1.340040736E-3
3.769668137E0,3.054236295E-4,0.000000000E0,1.679830020E-3,1.707370051E-3
3.772113293E0,3.054236295E-4,-1.221694518E-3,4.581354442E-4,1.340040736E-3
3.774557564E0,-9.162708884E-4,-2.443389036E-3,4.581354442E-4,2.649450963E-3
3.777001106E0,1.527118147E-3,-1.221694518E-3,-7.635590737E-4,2.099440352E-3
3.779445377E0,3.054236295E-4,-1.221694518E-3,1.679830020E-3,2.099440398E-3
3.781890533E0,3.054236295E-4,0.000000000E0,1.679830020E-3,1.707370051E-3
3.784334804E0,-9.162708884E-4,1.221694518E-3,4.581354442E-4,1.594358153E-3
3.786778293E0,3.054236295E-4,-1.221694518E-3,4.581354442E-4,1.340040736E-3
3.789222668E0,3.054236295E-4,0.000000000E0,4.581354442E-4,5.506102784E-4
3.791667772E0,1.527118147E-3,0.000000000E0,4.581354442E-4,1.594358153E-3
3.794112043E0,1.527118147E-3,0.000000000E0,-7.635590737E-4,1.707369994E-3
3.796555533E0,3.054236295E-4,0.000000000E0,4.581354442E-4,5.506102784E-4
3.798999908E0,1.527118147E-3,0.000000000E0,4.581354442E-4,1.594358153E-3
3.801445012E0,3.054236295E-4,0.000000000E0,-7.635590737E-4,8.223782903E-4
3.803889231E0,3.054236295E-4,0.000000000E0,4.581354442E-4,5.506102784E-4
3.806332772E0,-9.162708884E-4,0.000000000E0,-1.985253533E-3,2.186500385E-3
3.808777043E0,3.054236295E-4,1.221694518E-3,-7.635590737E-4,1.472699408E-3
3.811222199E0,3.054236295E-4,-1.221694518E-3,-7.635590737E-4,1.472699408E-3
3.813666470E0,1.527118147E-3,0.000000000E0,-1.985253533E-3,2.504659943E-3
3.816109960E0,3.054236295E-4,-1.221694518E-3,-7.635590737E-4,1.472699408E-3
3.818554335E0,3.054236295E-4,0.000000000E0,4.581354442E-4,5.506102784E-4
3.820999439E0,3.054236295E-4,0.000000000E0,4.581354442E-4,5.506102784E-4
3.823443710E0,3.054236295E-4,0.000000000E0,4.581354442E-4,5.506102784E-4
3.825887199E0,3.054236295E-4,-1.221694518E-3,1.679830020E-3,2.099440398E-3
3.828331574E0,-9.162708884E-4,0.000000000E0,1.679830020E-3,1.913473605E-3
3.830776679E0,3.054236295E-4,0.000000000E0,4.581354442E-4,5.506102784E-4
3.833220949E0,3.054236295E-4,-1.221694518E-3,1.679830020E-3,2.099440398E-3
3.835664439E0,3.054236295E-4,-1.221694518E-3,4.581354442E-4,1.340040736E-3
3.838108814E0,1.527118147E-3,0.000000000E0,4.581354442E-4,1.594358153E-3
3.840553918E0,1.527118147E-3,0.000000000E0,4.581354442E-4,1.594358153E-3
3.842998137E0,3.054236295E-4,-2.443389036E-3,-1.985253533E-3,3.163015202E-3
3.845441679E0,3.054236295E-4,-1.221694518E-3,-1.985253533E-3,2.350968456E-3
3.847885949E0,-9.162708884E-4,0.000000000E0,-7.635590737E-4,1.192717402E-3
3.850331106E0,-2.137965523E-3,1.221694518E-3,-1.985253533E-3,3.163015280E-3
3.852775377E0,-9.162708884E-4,-1.221694518E-3,4.581354442E-4,1.594358153E-3
3.855218866E0,-9.162708884E-4,0.000000000E0,4.581354442E-4,1.024421996E-3
3.857663241E0,3.054236295E-4,-1.221694518E-3,4.581354442E-4,1.340040736E-3
3.860108345E0,1.527118147E-3,-2.443389036E-3,4.581354442E-4,2.917555124E-3
3.862552616E0,1.527118147E-3,-1.221694518E-3,1.679830020E-3,2.578072192E-3
3.864996106E0,-9.162708884E-4,1.221694518E-3,-7.635590737E-4,1.707369994E-3
3.867440481E0,3.054236295E-4,0.000000000E0,-7.635590737E-4,8.223782903E-4
3.869885585E0,1.527118147E-3,-1.221694518E-3,4.581354442E-4,2.008610320E-3
3.872329804E0,3.054236295E-4,-1.221694518E-3,1.679830020E-3,2.099440398E-3
3.874773345E0,3.054236295E-4,-2.443389036E-3,-7.635590737E-4,2.578072154E-3
3.877217720E0,3.054236295E-4,-1.221694518E-3,4.581354442E-4,1.340040736E-3
3.879662824E0,-9.162708884E-4,1.221694518E-3,4.581354442E-4,1.594358153E-3
3.882107043E0,-9.162708884E-4,0.000000000E0,-1.985253533E-3,2.186500385E-3
3.884550585E0,-9.162708884E-4,1.221694518E-3,-7.635590737E-4,1.707369994E-3
3.886994856E0,3.054236295E-4,-1.221694518E-3,-7.635590737E-4,1.472699408E-3
3.889440012E0,3.054236295E-4,-1.221694518E-3,4.581354442E-4,1.340040736E-3
3.891884283E0,-9.162708884E-4,0.000000000E0,-7.635590737E-4,1.192717402E-3
3.894327772E0,-9.162708884E-4,-1.221694518E-3,4.581354442E-4,1.594358153E-3
3.896772147E0,-2.137965523E-3,-1.221694518E-3,-7.635590737E-4,2.578072251E-3
3.899217252E0,-9.162708884E-4,0.000000000E0,4.581354442E-4,1.024421996E-3
3.901661522E0,3.054236295E-4,-1.221694518E-3,1.679830020E-3,2.099440398E-3
3.904105012E0,3.054236295E-4,-1.221694518E-3,4.581354442E-4,1.340040736E-3
3.906549387E0,3.054236295E-4,0.000000000E0,-7.635590737E-4,8.223782903E-4
3.908994491E0,3.054236295E-4,-1.221694518E-3,-7.635590737E-4,1.472699408E-3
3.911438710E0,3.054236295E-4,0.000000000E0,1.679830020E-3,1.707370051E-3
3.913882252E0,3.054236295E-4,-2.443389036E-3,4.581354442E-4,2.504659989E-3
3.916326627E0,3.054236295E-4,-1.221694518E-3,-7.635590737E-4,1.472699408E-3
3.918771731E0,-9.162708884E-4,1.221694518E-3,-7.635590737E-4,1.707369994E-3
3.921215949E0,-9.162708884E-4,1.221694518E-3,4.581354442E-4,1.594358153E-3
3.923659491E0,1.527118147E-3,0.000000000E0,-7.635590737E-4,1.707369994E-3
3.926103762E0,3.054236295E-4,-1.221694518E-3,-7.635590737E-4,1.472699408E-3
3.928548918E0,-9.162708884E-4,-1.221694518E-3,-7.635590737E-4,1.707369994E-3
3.930993189E0,3.054236295E-4,0.000000000E0,-7.635590737E-4,8.223782903E-4
3.933436679E0,-9.162708884E-4,0.000000000E0,-7.635590737E-4,1.192717402E-3
3.935881054E0,3.054236295E-4,0.000000000E0,4.581354442E-4,5.506102784E-4
3.938326158E0,3.054236295E-4,-2.443389036E-3,-7.635590737E-4,2.578072154E-3
