"Time (s)","Gyroscope x (rad/s)","Gyroscope y (rad/s)","Gyroscope z (rad/s)","Absolute (rad/s)"
3.308089800E-2,0.000000000E0,1.527118147E-4,-2.443389036E-3,2.448156629E-3
3.557438800E-2,0.000000000E0,1.374406274E-3,-1.221694518E-3,1.838893717E-3
3.806787700E-2,0.000000000E0,1.374406274E-3,0.000000000E0,1.374406274E-3
4.056126300E-2,0.000000000E0,1.527118147E-4,1.221694518E-3,1.231202012E-3
4.305464800E-2,-1.221694518E-3,1.527118147E-4,-1.221694518E-3,1.734472798E-3
4.554808500E-2,0.000000000E0,1.527118147E-4,-1.221694518E-3,1.231202012E-3
4.804152300E-2,0.000000000E0,1.527118147E-4,0.000000000E0,1.527118147E-4
5.053490800E-2,0.000000000E0,1.374406274E-3,-1.221694518E-3,1.838893717E-3
5.302829400E-2,0.000000000E0,-1.068982761E-3,0.000000000E0,1.068982761E-3
5.552173100E-2,-1.221694518E-3,1.527118147E-4,-2.443389036E-3,2.736057085E-3
5.801516900E-2,0.000000000E0,1.527118147E-4,-1.221694518E-3,1.231202012E-3
6.050855400E-2,-1.221694518E-3,1.527118147E-4,-1.221694518E-3,1.734472798E-3
6.300194000E-2,-1.221694518E-3,1.527118147E-4,-1.221694518E-3,1.734472798E-3
6.549532500E-2,0.000000000E0,1.374406274E-3,-2.443389036E-3,2.803416235E-3
6.798871000E-2,0.000000000E0,1.374406274E-3,0.000000000E0,1.374406274E-3
7.048209600E-2,-1.221694518E-3,1.374406274E-3,0.000000000E0,1.838893717E-3
7.297548100E-2,0.000000000E0,1.527118147E-4,0.000000000E0,1.527118147E-4
7.546886700E-2,0.000000000E0,1.527118147E-4,0.000000000E0,1.527118147E-4
7.796225200E-2,-1.221694518E-3,1.527118147E-4,-1.221694518E-3,1.734472798E-3
8.045563800E-2,0.000000000E0,1.374406274E-3,0.000000000E0,1.374406274E-3
8.294902300E-2,-1.221694518E-3,1.527118147E-4,0.000000000E0,1.231202012E-3
8.544240800E-2,0.000000000E0,1.527118147E-4,-2.443389036E-3,2.448156629E-3
8.793579400E-2,0.000000000E0,1.527118147E-4,1.221694518E-3,1.231202012E-3
9.042917900E-2,-1.221694518E-3,1.374406274E-3,-2.443389036E-3,3.058051681E-3
9.292256500E-2,-1.221694518E-3,2.596100792E-3,0.000000000E0,2.869194455E-3
9.541595000E-2,0.000000000E0,1.374406274E-3,-1.221694518E-3,1.838893717E-3
9.790933500E-2,-1.221694518E-3,1.374406274E-3,-1.221694518E-3,2.207729059E-3
1.004027210E-1,-1.221694518E-3,1.374406274E-3,1.221694518E-3,2.207729059E-3
1.028961060E-1,0.000000000E0,1.374406274E-3,-1.221694518E-3,1.838893717E-3
1.053894920E-1,0.000000000E0,1.374406274E-3,0.000000000E0,1.374406274E-3
1.078828770E-1,0.000000000E0,1.374406274E-3,-1.221694518E-3,1.838893717E-3
1.103762630E-1,-1.221694518E-3,1.374406274E-3,-2.443389036E-3,3.058051681E-3
1.128696480E-1,-1.221694518E-3,1.527118147E-4,-1.221694518E-3,1.734472798E-3
1.153630330E-1,0.000000000E0,1.374406274E-3,0.000000000E0,1.374406274E-3
1.178564190E-1,0.000000000E0,1.527118147E-4,-1.221694518E-3,1.231202012E-3
1.203498040E-1,0.000000000E0,1.374406274E-3,0.000000000E0,1.374406274E-3
1.228431900E-1,1.221694518E-3,1.374406274E-3,0.000000000E0,1.838893717E-3
1.253365750E-1,1.221694518E-3,-1.068982761E-3,0.000000000E0,1.623348896E-3
1.278299600E-1,1.221694518E-3,1.527118147E-4,0.000000000E0,1.231202012E-3
1.303233460E-1,0.000000000E0,1.527118147E-4,0.000000000E0,1.527118147E-4
1.328167310E-1,0.000000000E0,1.374406274E-3,0.000000000E0,1.374406274E-3
1.353101170E-1,-1.221694518E-3,1.374406274E-3,1.221694518E-3,2.207729059E-3
1.378035020E-1,-1.221694518E-3,1.527118147E-4,1.221694518E-3,1.734472798E-3
1.402968880E-1,0.000000000E0,1.374406274E-3,1.221694518E-3,1.838893717E-3
1.427902730E-1,1.221694518E-3,1.374406274E-3,2.443389036E-3,3.058051681E-3
1.452836580E-1,0.000000000E0,1.527118147E-4,-1.221694518E-3,1.231202012E-3
1.477770440E-1,0.000000000E0,1.527118147E-4,0.000000000E0,1.527118147E-4
1.502677730E-1,0.000000000E0,1.374406274E-3,0.000000000E0,1.374406274E-3
1.527122000E-1,-1.221694518E-3,1.374406274E-3,0.000000000E0,1.838893717E-3
1.551574600E-1,-1.221694518E-3,2.596100792E-3,0.000000000E0,2.869194455E-3
1.576018880E-1,0.000000000E0,-1.068982761E-3,-1.221694518E-3,1.623348896E-3
1.600455330E-1,0.000000000E0,1.374406274E-3,0.000000000E0,1.374406274E-3
1.624899600E-1,-1.221694518E-3,1.527118147E-4,-1.221694518E-3,1.734472798E-3
1.649352210E-1,1.221694518E-3,1.527118147E-4,-2.443389036E-3,2.736057085E-3
1.673795960E-1,0.000000000E0,1.374406274E-3,-2.443389036E-3,2.803416235E-3
1.698232420E-1,-1.221694518E-3,1.374406274E-3,0.000000000E0,1.838893717E-3
1.722677730E-1,0.000000000E0,1.527118147E-4,2.443389036E-3,2.448156629E-3
1.747129810E-1,0.000000000E0,1.527118147E-4,-2.443389036E-3,2.448156629E-3
1.771573560E-1,0.000000000E0,1.374406274E-3,0.000000000E0,1.374406274E-3
1.796010020E-1,0.000000000E0,1.527118147E-4,2.443389036E-3,2.448156629E-3
1.820455330E-1,-1.221694518E-3,1.527118147E-4,0.000000000E0,1.231202012E-3
1.844907420E-1,-1.221694518E-3,1.374406274E-3,-1.221694518E-3,2.207729059E-3
1.869351690E-1,-2.443389036E-3,1.527118147E-4,0.000000000E0,2.448156629E-3
1.893787630E-1,-1.221694518E-3,-1.068982761E-3,-1.221694518E-3,2.031698583E-3
1.918232940E-1,0.000000000E0,1.527118147E-4,0.000000000E0,1.527118147E-4
1.942685020E-1,0.000000000E0,1.374406274E-3,0.000000000E0,1.374406274E-3
1.967128770E-1,1.221694518E-3,1.527118147E-4,-1.221694518E-3,1.734472798E-3
1.991565230E-1,1.221694518E-3,1.527118147E-4,0.000000000E0,1.231202012E-3
2.016010540E-1,1.221694518E-3,1.527118147E-4,2.443389036E-3,2.736057085E-3
2.040462630E-1,-1.221694518E-3,1.374406274E-3,0.000000000E0,1.838893717E-3
2.064906380E-1,0.000000000E0,-1.068982761E-3,0.000000000E0,1.068982761E-3
2.089342830E-1,-1.221694518E-3,1.527118147E-4,0.000000000E0,1.231202012E-3
2.113788150E-1,1.221694518E-3,1.527118147E-4,1.221694518E-3,1.734472798E-3
2.138240230E-1,-1.221694518E-3,1.527118147E-4,0.000000000E0,1.231202012E-3
2.162683980E-1,-1.221694518E-3,1.374406274E-3,-1.221694518E-3,2.207729059E-3
2.187120440E-1,-1.221694518E-3,1.374406274E-3,0.000000000E0,1.838893717E-3
2.211565750E-1,0.000000000E0,1.374406274E-3,-1.221694518E-3,1.838893717E-3
2.236017830E-1,-1.221694518E-3,1.374406274E-3,-1.221694518E-3,2.207729059E-3
2.260461580E-1,-1.221694518E-3,1.374406274E-3,0.000000000E0,1.838893717E-3
2.284898040E-1,-1.221694518E-3,1.374406274E-3,-1.221694518E-3,2.207729059E-3
2.309343350E-1,0.000000000E0,1.374406274E-3,0.000000000E0,1.374406274E-3
2.333795440E-1,0.000000000E0,1.527118147E-4,0.000000000E0,1.527118147E-4
2.358239190E-1,-1.221694518E-3,-1.068982761E-3,0.000000000E0,1.623348896E-3
2.382675650E-1,-1.221694518E-3,1.374406274E-3,2.443389036E-3,3.058051681E-3
2.407119920E-1,-1.221694518E-3,-1.068982761E-3,-1.221694518E-3,2.031698583E-3
2.431573040E-1,0.000000000E0,-1.068982761E-3,-1.221694518E-3,1.623348896E-3
2.456016790E-1,-1.221694518E-3,1.527118147E-4,-1.221694518E-3,1.734472798E-3
2.480453250E-1,-1.221694518E-3,1.374406274E-3,0.000000000E0,1.838893717E-3
2.504898560E-1,-1.221694518E-3,1.374406274E-3,1.221694518E-3,2.207729059E-3
2.529350650E-1,-1.221694518E-3,1.374406274E-3,-1.221694518E-3,2.207729059E-3
2.553794400E-1,-1.221694518E-3,1.374406274E-3,-1.221694518E-3,2.207729059E-3
2.578230850E-1,0.000000000E0,2.596100792E-3,0.000000000E0,2.596100792E-3
2.602675130E-1,1.221694518E-3,1.527118147E-4,-1.221694518E-3,1.734472798E-3
2.627128250E-1,0.000000000E0,1.527118147E-4,1.221694518E-3,1.231202012E-3
2.651572000E-1,0.000000000E0,-1.068982761E-3,0.000000000E0,1.068982761E-3
2.676008460E-1,0.000000000E0,-1.068982761E-3,0.000000000E0,1.068982761E-3
2.700452730E-1,1.221694518E-3,-1.068982761E-3,0.000000000E0,1.623348896E-3
2.724905850E-1,1.221694518E-3,1.527118147E-4,0.000000000E0,1.231202012E-3
2.749349600E-1,0.000000000E0,1.527118147E-4,0.000000000E0,1.527118147E-4
2.773786060E-1,1.221694518E-3,-1.068982761E-3,-2.443389036E-3,2.933498188E-3
2.798230330E-1,-1.221694518E-3,1.527118147E-4,-1.221694518E-3,1.734472798E-3
2.822683460E-1,0.000000000E0,1.527118147E-4,0.000000000E0,1.527118147E-4
2.847127210E-1,-1.221694518E-3,1.374406274E-3,-1.221694518E-3,2.207729059E-3
2.871563670E-1,0.000000000E0,1.527118147E-4,-1.221694518E-3,1.231202012E-3
2.896007940E-1,1.221694518E-3,1.527118147E-4,-2.443389036E-3,2.736057085E-3
2.920461060E-1,1.221694518E-3,-1.068982761E-3,0.000000000E0,1.623348896E-3
2.944904810E-1,-1.221694518E-3,1.527118147E-4,-1.221694518E-3,1.734472798E-3
2.969341270E-1,0.000000000E0,1.527118147E-4,0.000000000E0,1.527118147E-4
2.993785540E-1,-1.221694518E-3,1.374406274E-3,-1.221694518E-3,2.207729059E-3
3.018238670E-1,-1.221694518E-3,1.374406274E-3,0.000000000E0,1.838893717E-3
3.042682420E-1,1.221694518E-3,1.527118147E-4,0.000000000E0,1.231202012E-3
3.067118880E-1,-1.221694518E-3,1.374406274E-3,1.221694518E-3,2.207729059E-3
3.091563150E-1,-1.221694518E-3,-1.068982761E-3,0.000000000E0,1.623348896E-3
3.116016270E-1,0.000000000E0,1.527118147E-4,1.221694518E-3,1.231202012E-3
3.140460020E-1,-2.443389036E-3,1.374406274E-3,-1.221694518E-3,3.058051681E-3
3.164896480E-1,-1.221694518E-3,1.527118147E-4,1.221694518E-3,1.734472798E-3
3.189340750E-1,0.000000000E0,1.527118147E-4,-1.221694518E-3,1.231202012E-3
3.213793880E-1,-1.221694518E-3,-1.068982761E-3,-1.221694518E-3,2.031698583E-3
3.238237630E-1,0.000000000E0,1.527118147E-4,0.000000000E0,1.527118147E-4
3.262674080E-1,1.221694518E-3,1.527118147E-4,1.221694518E-3,1.734472798E-3
3.287118350E-1,0.000000000E0,-1.068982761E-3,-1.221694518E-3,1.623348896E-3
3.311571480E-1,1.221694518E-3,-1.068982761E-3,2.443389036E-3,2.933498188E-3
3.336015230E-1,0.000000000E0,1.527118147E-4,-1.221694518E-3,1.231202012E-3
3.360451690E-1,0.000000000E0,-1.068982761E-3,1.221694518E-3,1.623348896E-3
3.384895960E-1,1.221694518E-3,1.374406274E-3,1.221694518E-3,2.207729059E-3
3.409349080E-1,0.000000000E0,1.527118147E-4,-1.221694518E-3,1.231202012E-3
3.433792830E-1,0.000000000E0,1.527118147E-4,0.000000000E0,1.527118147E-4
3.458229290E-1,0.000000000E0,1.374406274E-3,-1.221694518E-3,1.838893717E-3
3.482673560E-1,0.000000000E0,1.527118147E-4,0.000000000E0,1.527118147E-4
3.507126690E-1,-1.221694518E-3,1.374406274E-3,0.000000000E0,1.838893717E-3
3.531570440E-1,0.000000000E0,1.374406274E-3,0.000000000E0,1.374406274E-3
3.556006900E-1,0.000000000E0,1.374406274E-3,0.000000000E0,1.374406274E-3
3.580451170E-1,1.221694518E-3,1.527118147E-4,0.000000000E0,1.231202012E-3
3.604904290E-1,0.000000000E0,1.527118147E-4,-1.221694518E-3,1.231202012E-3
3.629348040E-1,0.000000000E0,1.374406274E-3,-1.221694518E-3,1.838893717E-3
3.653784500E-1,0.000000000E0,1.374406274E-3,-1.221694518E-3,1.838893717E-3
3.678228770E-1,1.221694518E-3,1.527118147E-4,0.000000000E0,1.231202012E-3
3.702681900E-1,0.000000000E0,1.374406274E-3,1.221694518E-3,1.838893717E-3
3.727125650E-1,0.000000000E0,1.527118147E-4,-1.221694518E-3,1.231202012E-3
3.751562100E-1,-1.221694518E-3,1.527118147E-4,0.000000000E0,1.231202012E-3
3.776006380E-1,0.000000000E0,1.527118147E-4,0.000000000E0,1.527118147E-4
3.800459500E-1,-1.221694518E-3,1.374406274E-3,-2.443389036E-3,3.058051681E-3
3.824903250E-1,-2.443389036E-3,1.374406274E-3,1.221694518E-3,3.058051681E-3
3.849339710E-1,0.000000000E0,1.527118147E-4,-1.221694518E-3,1.231202012E-3
3.873783980E-1,0.000000000E0,2.596100792E-3,1.221694518E-3,2.869194455E-3
3.898237100E-1,1.221694518E-3,3.817795310E-3,0.000000000E0,4.008503277E-3
3.922680850E-1,-1.221694518E-3,1.527118147E-4,0.000000000E0,1.231202012E-3
3.947117310E-1,-1.221694518E-3,-1.068982761E-3,0.000000000E0,1.623348896E-3
3.971561580E-1,-1.221694518E-3,1.527118147E-4,1.221694518E-3,1.734472798E-3
3.996014710E-1,-1.221694518E-3,1.527118147E-4,1.221694518E-3,1.734472798E-3
4.020458460E-1,0.000000000E0,1.527118147E-4,1.221694518E-3,1.231202012E-3
4.044894920E-1,0.000000000E0,1.527118147E-4,-1.221694518E-3,1.231202012E-3
4.069339190E-1,0.000000000E0,1.527118147E-4,-1.221694518E-3,1.231202012E-3
4.093792310E-1,0.000000000E0,1.374406274E-3,0.000000000E0,1.374406274E-3
4.118236060E-1,0.000000000E0,2.596100792E-3,0.000000000E0,2.596100792E-3
4.142672520E-1,2.443389036E-3,1.527118147E-4,1.221694518E-3,2.736057085E-3
4.167116790E-1,0.000000000E0,1.527118147E-4,0.000000000E0,1.527118147E-4
4.191569920E-1,-1.221694518E-3,1.527118147E-4,0.000000000E0,1.231202012E-3
4.216013670E-1,0.000000000E0,-1.068982761E-3,2.443389036E-3,2.666997211E-3
4.240450130E-1,0.000000000E0,1.527118147E-4,0.000000000E0,1.527118147E-4
4.264894400E-1,-1.221694518E-3,-1.068982761E-3,-2.443389036E-3,2.933498188E-3
4.289347520E-1,-1.221694518E-3,-1.068982761E-3,-3.665083554E-3,4.008503348E-3
4.313791270E-1,-1.221694518E-3,-1.068982761E-3,0.000000000E0,1.623348896E-3
4.338227730E-1,1.221694518E-3,-1.068982761E-3,2.443389036E-3,2.933498188E-3
4.362672000E-1,1.221694518E-3,-1.068982761E-3,-1.221694518E-3,2.031698583E-3
4.387125130E-1,0.000000000E0,1.527118147E-4,-2.443389036E-3,2.448156629E-3
4.411568880E-1,0.000000000E0,1.374406274E-3,2.443389036E-3,2.803416235E-3
4.436005330E-1,0.000000000E0,2.596100792E-3,1.221694518E-3,2.869194455E-3
4.460449600E-1,0.000000000E0,1.527118147E-4,-1.221694518E-3,1.231202012E-3
4.484902210E-1,0.000000000E0,1.527118147E-4,-1.221694518E-3,1.231202012E-3
4.509346480E-1,1.221694518E-3,1.374406274E-3,0.000000000E0,1.838893717E-3
4.533782940E-1,0.000000000E0,1.527118147E-4,0.000000000E0,1.527118147E-4
4.558227210E-1,-1.221694518E-3,1.374406274E-3,-1.221694518E-3,2.207729059E-3
4.582680330E-1,0.000000000E0,1.527118147E-4,-1.221694518E-3,1.231202012E-3
4.607124080E-1,-1.221694518E-3,1.374406274E-3,0.000000000E0,1.838893717E-3
4.631560540E-1,0.000000000E0,1.527118147E-4,0.000000000E0,1.527118147E-4
4.656004810E-1,0.000000000E0,1.527118147E-4,0.000000000E0,1.527118147E-4
4.680457420E-1,-1.221694518E-3,1.527118147E-4,-1.221694518E-3,1.734472798E-3
4.704901690E-1,-1.221694518E-3,-1.068982761E-3,-1.221694518E-3,2.031698583E-3
4.729338150E-1,0.000000000E0,-1.068982761E-3,0.000000000E0,1.068982761E-3
4.753782420E-1,0.000000000E0,1.374406274E-3,2.443389036E-3,2.803416235E-3
4.778235020E-1,0.000000000E0,1.527118147E-4,-1.221694518E-3,1.231202012E-3
4.802679290E-1,-1.221694518E-3,-1.068982761E-3,-1.221694518E-3,2.031698583E-3
4.827115750E-1,-1.221694518E-3,1.527118147E-4,-1.221694518E-3,1.734472798E-3
4.851560020E-1,0.000000000E0,1.374406274E-3,-1.221694518E-3,1.838893717E-3
4.876012630E-1,0.000000000E0,-1.068982761E-3,0.000000000E0,1.068982761E-3
4.900456900E-1,-1.221694518E-3,-1.068982761E-3,-1.221694518E-3,2.031698583E-3
4.924893350E-1,2.443389036E-3,-1.068982761E-3,0.000000000E0,2.666997211E-3
4.949337630E-1,1.221694518E-3,1.527118147E-4,0.000000000E0,1.231202012E-3
4.973790230E-1,0.000000000E0,1.527118147E-4,0.000000000E0,1.527118147E-4
4.998234500E-1,0.000000000E0,-1.068982761E-3,-1.221694518E-3,1.623348896E-3
5.022670960E-1,1.221694518E-3,1.527118147E-4,0.000000000E0,1.231202012E-3
5.047115230E-1,-1.221694518E-3,1.374406274E-3,0.000000000E0,1.838893717E-3
5.071567830E-1,0.000000000E0,1.374406274E-3,0.000000000E0,1.374406274E-3
5.096012100E-1,0.000000000E0,1.527118147E-4,-1.221694518E-3,1.231202012E-3
5.120448560E-1,-1.221694518E-3,1.374406274E-3,1.221694518E-3,2.207729059E-3
5.144892830E-1,1.221694518E-3,1.374406274E-3,2.443389036E-3,3.058051681E-3
5.169345440E-1,0.000000000E0,2.596100792E-3,-1.221694518E-3,2.869194455E-3
5.193789710E-1,1.221694518E-3,1.527118147E-4,0.000000000E0,1.231202012E-3
5.218226170E-1,1.221694518E-3,-1.068982761E-3,1.221694518E-3,2.031698583E-3
5.242670440E-1,1.221694518E-3,-1.068982761E-3,1.221694518E-3,2.031698583E-3
5.267123040E-1,1.221694518E-3,1.527118147E-4,0.000000000E0,1.231202012E-3
5.291567310E-1,0.000000000E0,1.527118147E-4,-1.221694518E-3,1.231202012E-3
5.316003770E-1,0.000000000E0,1.374406274E-3,1.221694518E-3,1.838893717E-3
5.340448040E-1,0.000000000E0,1.527118147E-4,0.000000000E0,1.527118147E-4
5.364900650E-1,0.000000000E0,1.374406274E-3,0.000000000E0,1.374406274E-3
5.389344920E-1,0.000000000E0,1.527118147E-4,0.000000000E0,1.527118147E-4
5.413781380E-1,0.000000000E0,1.527118147E-4,1.221694518E-3,1.231202012E-3
5.438225650E-1,0.000000000E0,1.527118147E-4,1.221694518E-3,1.231202012E-3
5.462678250E-1,-1.221694518E-3,1.374406274E-3,0.000000000E0,1.838893717E-3
5.487122000E-1,0.000000000E0,1.527118147E-4,1.221694518E-3,1.231202012E-3
5.511558980E-1,0.000000000E0,1.527118147E-4,-1.221694518E-3,1.231202012E-3
5.536003250E-1,0.000000000E0,1.527118147E-4,-1.221694518E-3,1.231202012E-3
5.560455850E-1,-1.221694518E-3,1.374406274E-3,0.000000000E0,1.838893717E-3
5.584900130E-1,0.000000000E0,-1.068982761E-3,0.000000000E0,1.068982761E-3
5.609336580E-1,0.000000000E0,-1.068982761E-3,0.000000000E0,1.068982761E-3
5.633780850E-1,-1.221694518E-3,1.527118147E-4,-2.443389036E-3,2.736057085E-3
5.658233460E-1,-1.221694518E-3,1.527118147E-4,-1.221694518E-3,1.734472798E-3
5.682677210E-1,0.000000000E0,-1.068982761E-3,0.000000000E0,1.068982761E-3
5.707114190E-1,1.221694518E-3,-1.068982761E-3,-1.221694518E-3,2.031698583E-3
5.731558460E-1,0.000000000E0,1.527118147E-4,0.000000000E0,1.527118147E-4
5.756011060E-1,1.221694518E-3,-1.068982761E-3,0.000000000E0,1.623348896E-3
5.780454810E-1,0.000000000E0,1.527118147E-4,0.000000000E0,1.527118147E-4
5.804891270E-1,-1.221694518E-3,1.374406274E-3,2.443389036E-3,3.058051681E-3
5.829336580E-1,0.000000000E0,-1.068982761E-3,0.000000000E0,1.068982761E-3
5.853788670E-1,1.221694518E-3,1.527118147E-4,1.221694518E-3,1.734472798E-3
5.878232940E-1,0.000000000E0,-1.068982761E-3,1.221694518E-3,1.623348896E-3
5.902668880E-1,1.221694518E-3,1.527118147E-4,0.000000000E0,1.231202012E-3
5.927114190E-1,0.000000000E0,1.527118147E-4,2.443389036E-3,2.448156629E-3
5.951566270E-1,1.221694518E-3,1.527118147E-4,0.000000000E0,1.231202012E-3
5.976010020E-1,0.000000000E0,1.527118147E-4,1.221694518E-3,1.231202012E-3
6.000446480E-1,-1.221694518E-3,1.374406274E-3,-1.221694518E-3,2.207729059E-3
6.024891790E-1,0.000000000E0,1.527118147E-4,1.221694518E-3,1.231202012E-3
6.049343880E-1,0.000000000E0,-1.068982761E-3,-1.221694518E-3,1.623348896E-3
6.073787630E-1,0.000000000E0,-1.068982761E-3,0.000000000E0,1.068982761E-3
6.098224080E-1,1.221694518E-3,-1.068982761E-3,-1.221694518E-3,2.031698583E-3
6.122669400E-1,1.221694518E-3,1.527118147E-4,0.000000000E0,1.231202012E-3
6.147121480E-1,-1.221694518E-3,-1.068982761E-3,1.221694518E-3,2.031698583E-3
6.171565230E-1,-1.221694518E-3,1.527118147E-4,0.000000000E0,1.231202012E-3
6.196001690E-1,0.000000000E0,1.374406274E-3,-1.221694518E-3,1.838893717E-3
6.220447000E-1,-6.108472589E-3,-2.290677279E-3,-2.443389036E-3,6.966404363E-3
6.244899080E-1,-1.221694518E-3,1.527118147E-4,0.000000000E0,1.231202012E-3
6.269342830E-1,-1.221694518E-3,1.374406274E-3,-1.221694518E-3,2.207729059E-3
6.293779290E-1,-1.221694518E-3,1.374406274E-3,-1.221694518E-3,2.207729059E-3
6.318224600E-1,0.000000000E0,1.374406274E-3,0.000000000E0,1.374406274E-3
6.342676690E-1,0.000000000E0,1.527118147E-4,0.000000000E0,1.527118147E-4
6.367120440E-1,0.000000000E0,1.374406274E-3,1.221694518E-3,1.838893717E-3
6.391556900E-1,0.000000000E0,1.527118147E-4,0.000000000E0,1.527118147E-4
6.416002210E-1,0.000000000E0,1.527118147E-4,-2.443389036E-3,2.448156629E-3
6.440454290E-1,0.000000000E0,-1.068982761E-3,-1.221694518E-3,1.623348896E-3
6.464898040E-1,0.000000000E0,1.374406274E-3,1.221694518E-3,1.838893717E-3
6.489334500E-1,-1.221694518E-3,-1.068982761E-3,1.221694518E-3,2.031698583E-3
6.513779810E-1,0.000000000E0,1.374406274E-3,1.221694518E-3,1.838893717E-3
6.538231900E-1,0.000000000E0,-1.068982761E-3,0.000000000E0,1.068982761E-3
6.562675650E-1,-1.221694518E-3,1.527118147E-4,0.000000000E0,1.231202012E-3
6.587112100E-1,0.000000000E0,1.527118147E-4,1.221694518E-3,1.231202012E-3
6.611556380E-1,0.000000000E0,-1.068982761E-3,-1.221694518E-3,1.623348896E-3
6.636009500E-1,0.000000000E0,-1.068982761E-3,0.000000000E0,1.068982761E-3
6.660453250E-1,0.000000000E0,1.527118147E-4,-1.221694518E-3,1.231202012E-3
6.684889710E-1,1.221694518E-3,1.527118147E-4,-1.221694518E-3,1.734472798E-3
6.709333980E-1,1.221694518E-3,1.527118147E-4,-1.221694518E-3,1.734472798E-3
6.733787100E-1,-3.665083554E-3,-3.512371797E-3,1.221694518E-3,5.221315025E-3
6.758230850E-1,-1.221694518E-3,2.596100792E-3,0.000000000E0,2.869194455E-3
6.782667310E-1,1.221694518E-3,-1.068982761E-3,1.221694518E-3,2.031698583E-3
6.807112630E-1,1.221694518E-3,-1.068982761E-3,-1.221694518E-3,2.031698583E-3
6.831564710E-1,0.000000000E0,-1.068982761E-3,1.221694518E-3,1.623348896E-3
6.856008460E-1,0.000000000E0,1.527118147E-4,1.221694518E-3,1.231202012E-3
6.880444920E-1,0.000000000E0,-1.068982761E-3,0.000000000E0,1.068982761E-3
6.904889190E-1,-2.443389036E-3,1.374406274E-3,1.221694518E-3,3.058051681E-3
6.929342310E-1,-1.221694518E-3,1.374406274E-3,-1.221694518E-3,2.207729059E-3
6.953786060E-1,-1.221694518E-3,1.374406274E-3,1.221694518E-3,2.207729059E-3
6.978222520E-1,-1.221694518E-3,-1.068982761E-3,-1.221694518E-3,2.031698583E-3
7.002666790E-1,-1.221694518E-3,1.527118147E-4,-1.221694518E-3,1.734472798E-3
7.027119920E-1,0.000000000E0,1.374406274E-3,-1.221694518E-3,1.838893717E-3
7.051563670E-1,1.221694518E-3,1.527118147E-4,1.221694518E-3,1.734472798E-3
7.076000130E-1,-1.221694518E-3,1.527118147E-4,0.000000000E0,1.231202012E-3
7.100444400E-1,0.000000000E0,1.374406274E-3,0.000000000E0,1.374406274E-3
7.124897520E-1,0.000000000E0,-1.068982761E-3,0.000000000E0,1.068982761E-3
7.149341270E-1,-1.221694518E-3,1.374406274E-3,0.000000000E0,1.838893717E-3
7.173777730E-1,0.000000000E0,1.527118147E-4,0.000000000E0,1.527118147E-4
7.198222000E-1,0.000000000E0,-1.068982761E-3,-1.221694518E-3,1.623348896E-3
7.222675130E-1,1.221694518E-3,-2.290677279E-3,0.000000000E0,2.596100902E-3
7.247118880E-1,1.221694518E-3,-1.068982761E-3,-1.221694518E-3,2.031698583E-3
7.271555330E-1,-1.221694518E-3,1.527118147E-4,-1.221694518E-3,1.734472798E-3
7.295999600E-1,0.000000000E0,1.527118147E-4,0.000000000E0,1.527118147E-4
7.320452730E-1,0.000000000E0,1.527118147E-4,1.221694518E-3,1.231202012E-3
7.344896480E-1,0.000000000E0,-1.068982761E-3,-1.221694518E-3,1.623348896E-3
7.369332940E-1,1.221694518E-3,1.527118147E-4,0.000000000E0,1.231202012E-3
7.393777210E-1,0.000000000E0,1.527118147E-4,0.000000000E0,1.527118147E-4
7.418230330E-1,-1.221694518E-3,1.374406274E-3,0.000000000E0,1.838893717E-3
7.442674080E-1,-1.221694518E-3,1.527118147E-4,1.221694518E-3,1.734472798E-3
7.467110540E-1,0.000000000E0,1.527118147E-4,-2.443389036E-3,2.448156629E-3
7.491554810E-1,-1.221694518E-3,1.374406274E-3,-1.221694518E-3,2.207729059E-3
7.516007940E-1,0.000000000E0,1.374406274E-3,1.221694518E-3,1.838893717E-3
7.540451690E-1,1.221694518E-3,-1.068982761E-3,1.221694518E-3,2.031698583E-3
7.564888150E-1,1.221694518E-3,1.374406274E-3,-1.221694518E-3,2.207729059E-3
7.589332420E-1,1.221694518E-3,-1.068982761E-3,0.000000000E0,1.623348896E-3
7.613785540E-1,0.000000000E0,1.527118147E-4,-1.221694518E-3,1.231202012E-3
7.638229290E-1,-1.221694518E-3,1.527118147E-4,0.000000000E0,1.231202012E-3
7.662665750E-1,0.000000000E0,1.527118147E-4,-1.221694518E-3,1.231202012E-3
7.687110020E-1,1.221694518E-3,1.374406274E-3,0.000000000E0,1.838893717E-3
7.711563150E-1,0.000000000E0,2.596100792E-3,2.443389036E-3,3.565093169E-3
7.736006900E-1,0.000000000E0,1.527118147E-4,2.443389036E-3,2.448156629E-3
7.760443350E-1,0.000000000E0,1.527118147E-4,-1.221694518E-3,1.231202012E-3
7.784887630E-1,0.000000000E0,-1.068982761E-3,-2.443389036E-3,2.666997211E-3
7.809340750E-1,-2.443389036E-3,1.527118147E-4,0.000000000E0,2.448156629E-3
7.833784500E-1,-1.221694518E-3,-1.068982761E-3,1.221694518E-3,2.031698583E-3
7.858220960E-1,0.000000000E0,1.527118147E-4,0.000000000E0,1.527118147E-4
7.882665230E-1,0.000000000E0,1.527118147E-4,-1.221694518E-3,1.231202012E-3
7.907118350E-1,-1.221694518E-3,1.527118147E-4,-1.221694518E-3,1.734472798E-3
7.931562100E-1,-1.221694518E-3,1.374406274E-3,-1.221694518E-3,2.207729059E-3
7.955998560E-1,0.000000000E0,1.374406274E-3,-1.221694518E-3,1.838893717E-3
7.980442830E-1,0.000000000E0,1.374406274E-3,0.000000000E0,1.374406274E-3
8.004895960E-1,-2.443389036E-3,1.527118147E-4,0.000000000E0,2.448156629E-3
8.029339710E-1,0.000000000E0,1.527118147E-4,1.221694518E-3,1.231202012E-3
8.053776170E-1,0.000000000E0,2.596100792E-3,0.000000000E0,2.596100792E-3
8.078220440E-1,-1.221694518E-3,1.374406274E-3,0.000000000E0,1.838893717E-3
8.102673560E-1,-1.221694518E-3,1.374406274E-3,-1.221694518E-3,2.207729059E-3
8.127117310E-1,-1.221694518E-3,1.374406274E-3,-1.221694518E-3,2.207729059E-3
8.151553770E-1,-1.221694518E-3,1.374406274E-3,0.000000000E0,1.838893717E-3
8.175998040E-1,0.000000000E0,-1.068982761E-3,-1.221694518E-3,1.623348896E-3
8.200451170E-1,0.000000000E0,1.527118147E-4,1.221694518E-3,1.231202012E-3
8.224894920E-1,-1.221694518E-3,1.527118147E-4,0.000000000E0,1.231202012E-3
8.249331380E-1,-1.221694518E-3,1.527118147E-4,0.000000000E0,1.231202012E-3
8.273775650E-1,0.000000000E0,1.527118147E-4,0.000000000E0,1.527118147E-4
8.298228770E-1,0.000000000E0,1.527118147E-4,-1.221694518E-3,1.231202012E-3
8.322672520E-1,0.000000000E0,1.374406274E-3,0.000000000E0,1.374406274E-3
8.347108980E-1,-1.221694518E-3,2.596100792E-3,1.221694518E-3,3.118463454E-3
8.371553250E-1,0.000000000E0,1.527118147E-4,-1.221694518E-3,1.231202012E-3
8.396006380E-1,-1.221694518E-3,-1.068982761E-3,-1.221694518E-3,2.031698583E-3
8.420450130E-1,-1.221694518E-3,1.527118147E-4,-2.443389036E-3,2.736057085E-3
8.444886580E-1,-1.221694518E-3,1.527118147E-4,1.221694518E-3,1.734472798E-3
8.469330850E-1,0.000000000E0,1.374406274E-3,0.000000000E0,1.374406274E-3
8.493783980E-1,1.221694518E-3,1.527118147E-4,-1.221694518E-3,1.734472798E-3
8.518227730E-1,0.000000000E0,-1.068982761E-3,0.000000000E0,1.068982761E-3
8.542664190E-1,-1.221694518E-3,1.374406274E-3,0.000000000E0,1.838893717E-3
8.567108460E-1,1.221694518E-3,-2.290677279E-3,-1.221694518E-3,2.869194554E-3
8.591561580E-1,1.221694518E-3,1.374406274E-3,-1.221694518E-3,2.207729059E-3
8.616005330E-1,0.000000000E0,1.527118147E-4,0.000000000E0,1.527118147E-4
8.640441790E-1,-1.221694518E-3,2.596100792E-3,1.221694518E-3,3.118463454E-3
8.664886060E-1,-1.221694518E-3,1.374406274E-3,-1.221694518E-3,2.207729059E-3
8.689338670E-1,-1.221694518E-3,1.527118147E-4,-1.221694518E-3,1.734472798E-3
8.713782940E-1,0.000000000E0,1.527118147E-4,0.000000000E0,1.527118147E-4
8.738219400E-1,-1.221694518E-3,2.596100792E-3,0.000000000E0,2.869194455E-3
8.762663670E-1,-1.221694518E-3,1.527118147E-4,0.000000000E0,1.231202012E-3
8.787116270E-1,0.000000000E0,1.374406274E-3,0.000000000E0,1.374406274E-3
8.811560540E-1,-1.221694518E-3,1.374406274E-3,0.000000000E0,1.838893717E-3
8.835997000E-1,0.000000000E0,2.596100792E-3,1.221694518E-3,2.869194455E-3
8.860441270E-1,-1.221694518E-3,1.374406274E-3,0.000000000E0,1.838893717E-3
8.884893880E-1,0.000000000E0,1.374406274E-3,-1.221694518E-3,1.838893717E-3
8.909338150E-1,1.221694518E-3,1.527118147E-4,-1.221694518E-3,1.734472798E-3
8.933774600E-1,0.000000000E0,-1.068982761E-3,0.000000000E0,1.068982761E-3
8.958218880E-1,0.000000000E0,1.527118147E-4,-1.221694518E-3,1.231202012E-3
8.982671480E-1,0.000000000E0,1.527118147E-4,0.000000000E0,1.527118147E-4
9.007115750E-1,-1.221694518E-3,1.527118147E-4,0.000000000E0,1.231202012E-3
9.031552210E-1,0.000000000E0,1.374406274E-3,0.000000000E0,1.374406274E-3
9.055996480E-1,1.221694518E-3,1.527118147E-4,1.221694518E-3,1.734472798E-3
9.080449080E-1,-2.443389036E-3,-1.068982761E-3,-2.443389036E-3,3.617046323E-3
9.104893350E-1,0.000000000E0,-1.068982761E-3,0.000000000E0,1.068982761E-3
9.129329810E-1,-1.221694518E-3,-1.068982761E-3,0.000000000E0,1.623348896E-3
9.153774080E-1,0.000000000E0,1.374406274E-3,1.221694518E-3,1.838893717E-3
9.178226690E-1,0.000000000E0,1.374406274E-3,-1.221694518E-3,1.838893717E-3
9.202670960E-1,0.000000000E0,-1.068982761E-3,-1.221694518E-3,1.623348896E-3
9.227107420E-1,0.000000000E0,1.527118147E-4,0.000000000E0,1.527118147E-4
9.251551690E-1,0.000000000E0,1.374406274E-3,0.000000000E0,1.374406274E-3
9.276004290E-1,-2.443389036E-3,2.596100792E-3,-1.221694518E-3,3.768610725E-3
9.300448560E-1,0.000000000E0,1.374406274E-3,-2.443389036E-3,2.803416235E-3
9.324885020E-1,0.000000000E0,1.527118147E-4,0.000000000E0,1.527118147E-4
9.349329290E-1,0.000000000E0,1.374406274E-3,0.000000000E0,1.374406274E-3
9.373781900E-1,0.000000000E0,1.527118147E-4,-1.221694518E-3,1.231202012E-3
9.398226170E-1,0.000000000E0,1.527118147E-4,-1.221694518E-3,1.231202012E-3
9.422662630E-1,0.000000000E0,1.527118147E-4,-1.221694518E-3,1.231202012E-3
9.447106900E-1,-1.221694518E-3,1.374406274E-3,-1.221694518E-3,2.207729059E-3
9.471559500E-1,0.000000000E0,-1.068982761E-3,1.221694518E-3,1.623348896E-3
9.496003770E-1,-1.221694518E-3,1.527118147E-4,0.000000000E0,1.231202012E-3
9.520439710E-1,-1.221694518E-3,1.527118147E-4,-2.443389036E-3,2.736057085E-3
9.544885020E-1,0.000000000E0,1.527118147E-4,-1.221694518E-3,1.231202012E-3
9.569337100E-1,0.000000000E0,1.527118147E-4,0.000000000E0,1.527118147E-4
9.593780850E-1,0.000000000E0,1.527118147E-4,-1.221694518E-3,1.231202012E-3
9.618217830E-1,-2.443389036E-3,1.374406274E-3,-2.443389036E-3,3.718775681E-3
9.642662100E-1,0.000000000E0,1.374406274E-3,0.000000000E0,1.374406274E-3
9.667114710E-1,0.000000000E0,1.374406274E-3,-1.221694518E-3,1.838893717E-3
9.691558460E-1,-1.221694518E-3,1.374406274E-3,0.000000000E0,1.838893717E-3
9.715994920E-1,-1.221694518E-3,1.527118147E-4,1.221694518E-3,1.734472798E-3
9.740440230E-1,0.000000000E0,1.374406274E-3,-1.221694518E-3,1.838893717E-3
9.764892310E-1,-1.221694518E-3,1.374406274E-3,-1.221694518E-3,2.207729059E-3
9.789336060E-1,-1.221694518E-3,1.527118147E-4,-1.221694518E-3,1.734472798E-3
9.813772520E-1,-1.221694518E-3,1.527118147E-4,-1.221694518E-3,1.734472798E-3
9.838217830E-1,-1.221694518E-3,1.527118147E-4,-1.221694518E-3,1.734472798E-3
9.862669920E-1,0.000000000E0,1.527118147E-4,-1.221694518E-3,1.231202012E-3
9.887113670E-1,1.221694518E-3,1.374406274E-3,-2.443389036E-3,3.058051681E-3
9.911550130E-1,0.000000000E0,1.374406274E-3,-1.221694518E-3,1.838893717E-3
9.935995440E-1,-1.221694518E-3,1.527118147E-4,-1.221694518E-3,1.734472798E-3
9.960447520E-1,0.000000000E0,1.527118147E-4,-1.221694518E-3,1.231202012E-3
9.984891270E-1,0.000000000E0,1.527118147E-4,-1.221694518E-3,1.231202012E-3
1.000932773E0,0.000000000E0,1.527118147E-4,0.000000000E0,1.527118147E-4
1.003377304E0,0.000000000E0,1.527118147E-4,0.000000000E0,1.527118147E-4
1.005822513E0,-1.221694518E-3,-1.068982761E-3,-1.221694518E-3,2.031698583E-3
1.008266888E0,1.221694518E-3,1.527118147E-4,-1.221694518E-3,1.734472798E-3
1.010710533E0,0.000000000E0,1.374406274E-3,-1.221694518E-3,1.838893717E-3
1.013155065E0,0.000000000E0,1.527118147E-4,0.000000000E0,1.527118147E-4
1.015600273E0,0.000000000E0,1.527118147E-4,0.000000000E0,1.527118147E-4
1.018044648E0,0.000000000E0,1.527118147E-4,-1.221694518E-3,1.231202012E-3
1.020488294E0,0.000000000E0,-1.068982761E-3,-1.221694518E-3,1.623348896E-3
1.022932825E0,0.000000000E0,-1.068982761E-3,0.000000000E0,1.068982761E-3
1.025378033E0,0.000000000E0,1.527118147E-4,-1.221694518E-3,1.231202012E-3
1.027822408E0,0.000000000E0,-1.068982761E-3,-2.443389036E-3,2.666997211E-3
1.030266054E0,0.000000000E0,-1.068982761E-3,0.000000000E0,1.068982761E-3
1.032710585E0,0.000000000E0,1.527118147E-4,0.000000000E0,1.527118147E-4
1.035155794E0,-1.221694518E-3,1.374406274E-3,-1.221694518E-3,2.207729059E-3
1.037600169E0,-1.221694518E-3,1.374406274E-3,0.000000000E0,1.838893717E-3
1.040043815E0,0.000000000E0,1.374406274E-3,-1.221694518E-3,1.838893717E-3
1.042488346E0,0.000000000E0,1.374406274E-3,0.000000000E0,1.374406274E-3
1.044933554E0,0.000000000E0,1.374406274E-3,1.221694518E-3,1.838893717E-3
1.047377929E0,-2.443389036E-3,1.374406274E-3,0.000000000E0,2.803416235E-3
1.049821575E0,-1.221694518E-3,1.374406274E-3,0.000000000E0,1.838893717E-3
1.052266106E0,-1.221694518E-3,-1.068982761E-3,-1.221694518E-3,2.031698583E-3
1.054711315E0,0.000000000E0,-1.068982761E-3,0.000000000E0,1.068982761E-3
1.057155690E0,-1.221694518E-3,2.596100792E-3,0.000000000E0,2.869194455E-3
1.059599335E0,0.000000000E0,1.527118147E-4,1.221694518E-3,1.231202012E-3
1.062043867E0,-1.221694518E-3,1.374406274E-3,0.000000000E0,1.838893717E-3
1.064489075E0,0.000000000E0,1.527118147E-4,-1.221694518E-3,1.231202012E-3
1.066933450E0,0.000000000E0,1.527118147E-4,1.221694518E-3,1.231202012E-3
1.069377096E0,1.221694518E-3,1.527118147E-4,0.000000000E0,1.231202012E-3
1.071821523E0,1.221694518E-3,-1.068982761E-3,1.221694518E-3,2.031698583E-3
1.074266835E0,0.000000000E0,1.527118147E-4,1.221694518E-3,1.231202012E-3
1.076711210E0,0.000000000E0,1.527118147E-4,-1.221694518E-3,1.231202012E-3
1.079154856E0,-1.221694518E-3,1.374406274E-3,1.221694518E-3,2.207729059E-3
1.081599283E0,1.221694518E-3,1.527118147E-4,1.221694518E-3,1.734472798E-3
1.084044596E0,0.000000000E0,1.527118147E-4,0.000000000E0,1.527118147E-4
1.086488971E0,0.000000000E0,1.527118147E-4,0.000000000E0,1.527118147E-4
1.088932617E0,-1.221694518E-3,2.596100792E-3,-1.221694518E-3,3.118463454E-3
1.091377148E0,1.221694518E-3,1.374406274E-3,1.221694518E-3,2.207729059E-3
1.093822356E0,0.000000000E0,1.527118147E-4,0.000000000E0,1.527118147E-4
1.096266731E0,0.000000000E0,1.527118147E-4,0.000000000E0,1.527118147E-4
1.098710377E0,-1.221694518E-3,2.596100792E-3,-1.221694518E-3,3.118463454E-3
1.101154804E0,1.221694518E-3,1.527118147E-4,-1.221694518E-3,1.734472798E-3
1.103600117E0,0.000000000E0,1.374406274E-3,-1.221694518E-3,1.838893717E-3
1.106044492E0,-1.221694518E-3,1.527118147E-4,1.221694518E-3,1.734472798E-3
1.108488138E0,1.221694518E-3,-1.068982761E-3,2.443389036E-3,2.933498188E-3
1.110932565E0,0.000000000E0,-1.068982761E-3,0.000000000E0,1.068982761E-3
1.113377877E0,-1.221694518E-3,1.374406274E-3,1.221694518E-3,2.207729059E-3
1.115822252E0,0.000000000E0,1.374406274E-3,-1.221694518E-3,1.838893717E-3
1.118265898E0,-1.221694518E-3,1.374406274E-3,0.000000000E0,1.838893717E-3
1.120710325E0,0.000000000E0,1.527118147E-4,0.000000000E0,1.527118147E-4
1.123155638E0,0.000000000E0,1.527118147E-4,0.000000000E0,1.527118147E-4
1.125600013E0,-1.221694518E-3,1.527118147E-4,1.221694518E-3,1.734472798E-3
1.128043658E0,1.221694518E-3,-2.290677279E-3,0.000000000E0,2.596100902E-3
1.130488085E0,0.000000000E0,-2.290677279E-3,1.221694518E-3,2.596100902E-3
1.132933398E0,0.000000000E0,1.374406274E-3,-1.221694518E-3,1.838893717E-3
1.135377773E0,-1.221694518E-3,1.527118147E-4,-1.221694518E-3,1.734472798E-3
1.137821419E0,-2.443389036E-3,1.374406274E-3,0.000000000E0,2.803416235E-3
1.140265846E0,-1.221694518E-3,1.527118147E-4,0.000000000E0,1.231202012E-3
1.142711158E0,0.000000000E0,1.527118147E-4,-2.443389036E-3,2.448156629E-3
1.145155533E0,0.000000000E0,1.374406274E-3,-1.221694518E-3,1.838893717E-3
1.147599179E0,1.221694518E-3,1.527118147E-4,0.000000000E0,1.231202012E-3
1.150043606E0,1.221694518E-3,1.527118147E-4,2.443389036E-3,2.736057085E-3
1.152488919E0,0.000000000E0,1.527118147E-4,-2.443389036E-3,2.448156629E-3
1.154933294E0,-1.221694518E-3,1.374406274E-3,-1.221694518E-3,2.207729059E-3
1.157376940E0,1.221694518E-3,-1.068982761E-3,-1.221694518E-3,2.031698583E-3
1.159821367E0,1.221694518E-3,1.527118147E-4,0.000000000E0,1.231202012E-3
1.162266679E0,-1.221694518E-3,1.527118147E-4,1.221694518E-3,1.734472798E-3
1.164711054E0,0.000000000E0,1.527118147E-4,0.000000000E0,1.527118147E-4
1.167154700E0,1.221694518E-3,1.527118147E-4,2.443389036E-3,2.736057085E-3
1.169599127E0,1.221694518E-3,1.527118147E-4,1.221694518E-3,1.734472798E-3
1.172044440E0,1.221694518E-3,-1.068982761E-3,1.221694518E-3,2.031698583E-3
1.174488815E0,-1.221694518E-3,1.374406274E-3,1.221694518E-3,2.207729059E-3
1.176932460E0,-3.665083554E-3,1.374406274E-3,1.221694518E-3,4.100532594E-3
1.179376888E0,0.000000000E0,1.374406274E-3,-1.221694518E-3,1.838893717E-3
1.181822200E0,-1.221694518E-3,2.596100792E-3,1.221694518E-3,3.118463454E-3
1.184266575E0,-1.221694518E-3,1.374406274E-3,1.221694518E-3,2.207729059E-3
1.186710221E0,-1.221694518E-3,1.374406274E-3,0.000000000E0,1.838893717E-3
1.189154648E0,1.221694518E-3,1.527118147E-4,0.000000000E0,1.231202012E-3
1.191599960E0,-2.443389036E-3,1.374406274E-3,-1.221694518E-3,3.058051681E-3
1.194044335E0,-1.221694518E-3,2.596100792E-3,-1.221694518E-3,3.118463454E-3
1.196487981E0,0.000000000E0,1.527118147E-4,0.000000000E0,1.527118147E-4
1.198932408E0,0.000000000E0,1.527118147E-4,2.443389036E-3,2.448156629E-3
1.201377721E0,-1.221694518E-3,-1.068982761E-3,-1.221694518E-3,2.031698583E-3
1.203822096E0,-1.221694518E-3,2.596100792E-3,-1.221694518E-3,3.118463454E-3
1.206265742E0,-1.221694518E-3,3.817795310E-3,-1.221694518E-3,4.190541256E-3
1.208710169E0,0.000000000E0,3.817795310E-3,-1.221694518E-3,4.008503277E-3
1.211155481E0,0.000000000E0,1.374406274E-3,0.000000000E0,1.374406274E-3
1.213599856E0,0.000000000E0,1.527118147E-4,-1.221694518E-3,1.231202012E-3
1.216043502E0,-1.221694518E-3,1.527118147E-4,-1.221694518E-3,1.734472798E-3
1.218487929E0,0.000000000E0,1.374406274E-3,1.221694518E-3,1.838893717E-3
1.220933242E0,1.221694518E-3,1.527118147E-4,0.000000000E0,1.231202012E-3
1.223377617E0,0.000000000E0,1.527118147E-4,-1.221694518E-3,1.231202012E-3
1.225821263E0,0.000000000E0,1.374406274E-3,-1.221694518E-3,1.838893717E-3
1.228265690E0,0.000000000E0,1.374406274E-3,1.221694518E-3,1.838893717E-3
1.230711002E0,-1.221694518E-3,1.527118147E-4,2.443389036E-3,2.736057085E-3
1.233155377E0,-1.221694518E-3,1.527118147E-4,0.000000000E0,1.231202012E-3
1.235599023E0,0.000000000E0,-1.068982761E-3,-1.221694518E-3,1.623348896E-3
1.238043450E0,0.000000000E0,2.596100792E-3,1.221694518E-3,2.869194455E-3
1.240488763E0,0.000000000E0,1.527118147E-4,0.000000000E0,1.527118147E-4
1.242933138E0,0.000000000E0,1.527118147E-4,0.000000000E0,1.527118147E-4
1.245376783E0,0.000000000E0,1.527118147E-4,-1.221694518E-3,1.231202012E-3
1.247821210E0,0.000000000E0,1.527118147E-4,1.221694518E-3,1.231202012E-3
1.250266523E0,-1.221694518E-3,1.527118147E-4,1.221694518E-3,1.734472798E-3
1.252710898E0,0.000000000E0,1.527118147E-4,-1.221694518E-3,1.231202012E-3
1.255154544E0,1.221694518E-3,1.527118147E-4,1.221694518E-3,1.734472798E-3
1.257598971E0,1.221694518E-3,1.527118147E-4,0.000000000E0,1.231202012E-3
1.260044283E0,-1.221694518E-3,1.527118147E-4,1.221694518E-3,1.734472798E-3
1.262488658E0,-1.221694518E-3,1.374406274E-3,-1.221694518E-3,2.207729059E-3
1.264932304E0,0.000000000E0,1.374406274E-3,-1.221694518E-3,1.838893717E-3
1.267376731E0,-1.221694518E-3,1.374406274E-3,0.000000000E0,1.838893717E-3
1.269822044E0,-2.443389036E-3,1.527118147E-4,1.221694518E-3,2.736057085E-3
1.272266419E0,0.000000000E0,-1.068982761E-3,0.000000000E0,1.068982761E-3
1.274710065E0,0.000000000E0,-1.068982761E-3,0.000000000E0,1.068982761E-3
1.277154492E0,0.000000000E0,-1.068982761E-3,0.000000000E0,1.068982761E-3
1.279599804E0,0.000000000E0,1.527118147E-4,0.000000000E0,1.527118147E-4
1.282044179E0,1.221694518E-3,1.374406274E-3,1.221694518E-3,2.207729059E-3
1.284487825E0,-1.221694518E-3,1.527118147E-4,-2.443389036E-3,2.736057085E-3
1.286932252E0,0.000000000E0,1.527118147E-4,1.221694518E-3,1.231202012E-3
1.289377565E0,0.000000000E0,1.527118147E-4,2.443389036E-3,2.448156629E-3
1.291821940E0,0.000000000E0,1.527118147E-4,0.000000000E0,1.527118147E-4
1.294265585E0,1.221694518E-3,1.527118147E-4,-1.221694518E-3,1.734472798E-3
1.296710013E0,0.000000000E0,1.527118147E-4,-1.221694518E-3,1.231202012E-3
1.299155325E0,0.000000000E0,1.374406274E-3,0.000000000E0,1.374406274E-3
1.301599700E0,0.000000000E0,1.374406274E-3,-2.443389036E-3,2.803416235E-3
1.304043346E0,0.000000000E0,-1.068982761E-3,0.000000000E0,1.068982761E-3
1.306487773E0,0.000000000E0,1.527118147E-4,1.221694518E-3,1.231202012E-3
1.308933085E0,-1.221694518E-3,1.374406274E-3,0.000000000E0,1.838893717E-3
1.311377460E0,0.000000000E0,1.527118147E-4,-1.221694518E-3,1.231202012E-3
1.313821106E0,-1.221694518E-3,1.527118147E-4,-1.221694518E-3,1.734472798E-3
1.316265533E0,0.000000000E0,-1.068982761E-3,0.000000000E0,1.068982761E-3
1.318710846E0,-1.221694518E-3,1.374406274E-3,1.221694518E-3,2.207729059E-3
1.321155221E0,2.443389036E-3,-1.068982761E-3,0.000000000E0,2.666997211E-3
1.323598867E0,0.000000000E0,1.527118147E-4,1.221694518E-3,1.231202012E-3
1.326043294E0,0.000000000E0,1.527118147E-4,0.000000000E0,1.527118147E-4
1.328488554E0,0.000000000E0,-1.068982761E-3,0.000000000E0,1.068982761E-3
1.330932981E0,0.000000000E0,1.527118147E-4,1.221694518E-3,1.231202012E-3
1.333376627E0,-1.221694518E-3,-1.068982761E-3,0.000000000E0,1.623348896E-3
1.335821054E0,-1.221694518E-3,1.527118147E-4,0.000000000E0,1.231202012E-3
1.338266315E0,0.000000000E0,-1.068982761E-3,1.221694518E-3,1.623348896E-3
1.340710742E0,0.000000000E0,1.527118147E-4,-1.221694518E-3,1.231202012E-3
1.343154388E0,0.000000000E0,1.527118147E-4,-1.221694518E-3,1.231202012E-3
1.345598815E0,-1.221694518E-3,1.374406274E-3,0.000000000E0,1.838893717E-3
1.348044127E0,0.000000000E0,1.527118147E-4,-1.221694518E-3,1.231202012E-3
1.350488502E0,-1.221694518E-3,1.374406274E-3,-1.221694518E-3,2.207729059E-3
1.352932148E0,-1.221694518E-3,1.374406274E-3,0.000000000E0,1.838893717E-3
1.355376575E0,-1.221694518E-3,1.374406274E-3,1.221694518E-3,2.207729059E-3
1.357821835E0,0.000000000E0,-1.068982761E-3,-1.221694518E-3,1.623348896E-3
1.360266263E0,0.000000000E0,1.527118147E-4,0.000000000E0,1.527118147E-4
1.362709908E0,-2.443389036E-3,1.374406274E-3,-2.443389036E-3,3.718775681E-3
1.365154335E0,-1.221694518E-3,-1.068982761E-3,0.000000000E0,1.623348896E-3
1.367599596E0,0.000000000E0,-1.068982761E-3,1.221694518E-3,1.623348896E-3
1.370044023E0,1.221694518E-3,-2.290677279E-3,-1.221694518E-3,2.869194554E-3
1.372487669E0,0.000000000E0,-1.068982761E-3,0.000000000E0,1.068982761E-3
1.374932096E0,0.000000000E0,-1.068982761E-3,0.000000000E0,1.068982761E-3
1.377377356E0,-1.221694518E-3,1.374406274E-3,0.000000000E0,1.838893717E-3
1.379821783E0,0.000000000E0,1.527118147E-4,0.000000000E0,1.527118147E-4
1.382265429E0,-1.221694518E-3,1.527118147E-4,-2.443389036E-3,2.736057085E-3
1.384709856E0,0.000000000E0,1.527118147E-4,0.000000000E0,1.527118147E-4
1.387155117E0,0.000000000E0,-2.290677279E-3,0.000000000E0,2.290677279E-3
1.389599544E0,-1.221694518E-3,-1.068982761E-3,0.000000000E0,1.623348896E-3
1.392043190E0,1.221694518E-3,-1.068982761E-3,0.000000000E0,1.623348896E-3
1.394487617E0,1.221694518E-3,2.596100792E-3,0.000000000E0,2.869194455E-3
1.396932877E0,-1.221694518E-3,1.374406274E-3,-1.221694518E-3,2.207729059E-3
1.399377304E0,0.000000000E0,1.374406274E-3,0.000000000E0,1.374406274E-3
1.401820950E0,0.000000000E0,1.374406274E-3,-1.221694518E-3,1.838893717E-3
1.404265377E0,0.000000000E0,-1.068982761E-3,-1.221694518E-3,1.623348896E-3
1.406710638E0,1.221694518E-3,1.527118147E-4,-2.443389036E-3,2.736057085E-3
1.409155065E0,0.000000000E0,1.374406274E-3,-2.443389036E-3,2.803416235E-3
1.411598710E0,0.000000000E0,-1.068982761E-3,-1.221694518E-3,1.623348896E-3
1.414043138E0,-1.221694518E-3,1.527118147E-4,0.000000000E0,1.231202012E-3
1.416488398E0,0.000000000E0,1.374406274E-3,1.221694518E-3,1.838893717E-3
1.418932825E0,0.000000000E0,1.374406274E-3,0.000000000E0,1.374406274E-3
1.421376471E0,0.000000000E0,1.527118147E-4,0.000000000E0,1.527118147E-4
1.423820898E0,-1.221694518E-3,1.527118147E-4,-1.221694518E-3,1.734472798E-3
1.426266158E0,0.000000000E0,1.527118147E-4,0.000000000E0,1.527118147E-4
1.428710585E0,-1.221694518E-3,1.527118147E-4,-2.443389036E-3,2.736057085E-3
1.431154231E0,-2.443389036E-3,1.374406274E-3,-2.443389036E-3,3.718775681E-3
1.433598658E0,-1.221694518E-3,1.527118147E-4,0.000000000E0,1.231202012E-3
1.436043919E0,-1.221694518E-3,1.527118147E-4,-1.221694518E-3,1.734472798E-3
1.438488346E0,-1.221694518E-3,1.374406274E-3,0.000000000E0,1.838893717E-3
1.440931992E0,0.000000000E0,1.527118147E-4,0.000000000E0,1.527118147E-4
1.443376419E0,0.000000000E0,-1.068982761E-3,-1.221694518E-3,1.623348896E-3
1.445821679E0,-1.221694518E-3,1.527118147E-4,0.000000000E0,1.231202012E-3
1.448266106E0,0.000000000E0,1.527118147E-4,0.000000000E0,1.527118147E-4
1.450709752E0,0.000000000E0,-1.068982761E-3,1.221694518E-3,1.623348896E-3
1.453154179E0,0.000000000E0,-1.068982761E-3,-1.221694518E-3,1.623348896E-3
1.455599440E0,0.000000000E0,-1.068982761E-3,-1.221694518E-3,1.623348896E-3
1.458043867E0,1.221694518E-3,-1.068982761E-3,0.000000000E0,1.623348896E-3
1.460487513E0,0.000000000E0,-1.068982761E-3,1.221694518E-3,1.623348896E-3
1.462931940E0,1.221694518E-3,1.527118147E-4,-1.221694518E-3,1.734472798E-3
1.465377200E0,0.000000000E0,1.527118147E-4,-1.221694518E-3,1.231202012E-3
1.467821627E0,0.000000000E0,1.527118147E-4,0.000000000E0,1.527118147E-4
1.470265273E0,-1.221694518E-3,1.527118147E-4,1.221694518E-3,1.734472798E-3
1.472709700E0,-2.443389036E-3,1.527118147E-4,0.000000000E0,2.448156629E-3
1.475154960E0,0.000000000E0,1.374406274E-3,1.221694518E-3,1.838893717E-3
1.477599388E0,1.221694518E-3,1.374406274E-3,-1.221694518E-3,2.207729059E-3
1.480043033E0,0.000000000E0,1.374406274E-3,1.221694518E-3,1.838893717E-3
1.482487460E0,0.000000000E0,1.527118147E-4,2.443389036E-3,2.448156629E-3
1.484932721E0,-1.221694518E-3,1.527118147E-4,1.221694518E-3,1.734472798E-3
1.487377148E0,-1.221694518E-3,1.527118147E-4,-1.221694518E-3,1.734472798E-3
1.489820794E0,-1.221694518E-3,1.374406274E-3,0.000000000E0,1.838893717E-3
1.492265221E0,-1.221694518E-3,1.374406274E-3,0.000000000E0,1.838893717E-3
1.494710481E0,1.221694518E-3,1.374406274E-3,1.221694518E-3,2.207729059E-3
1.497154908E0,-1.221694518E-3,1.527118147E-4,0.000000000E0,1.231202012E-3
1.499598554E0,-1.221694518E-3,1.527118147E-4,0.000000000E0,1.231202012E-3
1.502042981E0,-1.221694518E-3,1.527118147E-4,1.221694518E-3,1.734472798E-3
1.504488242E0,-1.221694518E-3,1.527118147E-4,0.000000000E0,1.231202012E-3
1.506932669E0,0.000000000E0,1.374406274E-3,0.000000000E0,1.374406274E-3
1.509376315E0,0.000000000E0,-1.068982761E-3,-1.221694518E-3,1.623348896E-3
1.511820742E0,0.000000000E0,1.527118147E-4,-1.221694518E-3,1.231202012E-3
1.514266002E0,1.221694518E-3,-1.068982761E-3,1.221694518E-3,2.031698583E-3
1.516710377E0,1.221694518E-3,1.527118147E-4,1.221694518E-3,1.734472798E-3
1.519154023E0,0.000000000E0,1.527118147E-4,0.000000000E0,1.527118147E-4
1.521598554E0,1.221694518E-3,1.527118147E-4,0.000000000E0,1.231202012E-3
1.524043763E0,1.221694518E-3,1.527118147E-4,1.221694518E-3,1.734472798E-3
1.526488190E0,0.000000000E0,-1.068982761E-3,0.000000000E0,1.068982761E-3
1.528931835E0,0.000000000E0,1.527118147E-4,-2.443389036E-3,2.448156629E-3
1.531376263E0,0.000000000E0,1.527118147E-4,0.000000000E0,1.527118147E-4
1.533821523E0,0.000000000E0,1.374406274E-3,0.000000000E0,1.374406274E-3
1.536265950E0,-1.221694518E-3,1.527118147E-4,0.000000000E0,1.231202012E-3
1.538709544E0,0.000000000E0,1.527118147E-4,0.000000000E0,1.527118147E-4
1.541154075E0,-1.221694518E-3,1.374406274E-3,1.221694518E-3,2.207729059E-3
1.543599283E0,-1.221694518E-3,1.374406274E-3,-1.221694518E-3,2.207729059E-3
1.546043710E0,-2.443389036E-3,2.596100792E-3,-2.443389036E-3,4.322041102E-3
1.548487356E0,0.000000000E0,1.527118147E-4,-2.443389036E-3,2.448156629E-3
1.550931783E0,1.221694518E-3,1.527118147E-4,1.221694518E-3,1.734472798E-3
1.553377044E0,1.221694518E-3,-1.068982761E-3,0.000000000E0,1.623348896E-3
1.555821471E0,-1.221694518E-3,1.527118147E-4,0.000000000E0,1.231202012E-3
1.558265117E0,0.000000000E0,-1.068982761E-3,-1.221694518E-3,1.623348896E-3
1.560709544E0,1.221694518E-3,-2.290677279E-3,-1.221694518E-3,2.869194554E-3
1.563154804E0,-1.221694518E-3,1.527118147E-4,-1.221694518E-3,1.734472798E-3
1.565599231E0,-1.221694518E-3,1.527118147E-4,0.000000000E0,1.231202012E-3
1.568042825E0,0.000000000E0,1.527118147E-4,-1.221694518E-3,1.231202012E-3
1.570487356E0,1.221694518E-3,-1.068982761E-3,-1.221694518E-3,2.031698583E-3
1.572932565E0,-1.221694518E-3,-1.068982761E-3,0.000000000E0,1.623348896E-3
1.575376992E0,0.000000000E0,1.527118147E-4,1.221694518E-3,1.231202012E-3
1.577820585E0,1.221694518E-3,-1.068982761E-3,0.000000000E0,1.623348896E-3
1.580265117E0,0.000000000E0,-1.068982761E-3,-1.221694518E-3,1.623348896E-3
1.582710325E0,-1.221694518E-3,1.527118147E-4,-1.221694518E-3,1.734472798E-3
1.585154752E0,0.000000000E0,1.374406274E-3,1.221694518E-3,1.838893717E-3
1.587598398E0,-1.221694518E-3,1.374406274E-3,1.221694518E-3,2.207729059E-3
1.590042825E0,-1.221694518E-3,2.596100792E-3,-1.221694518E-3,3.118463454E-3
1.592488085E0,1.221694518E-3,1.527118147E-4,0.000000000E0,1.231202012E-3
1.594932513E0,0.000000000E0,-1.068982761E-3,1.221694518E-3,1.623348896E-3
1.597376106E0,-1.221694518E-3,-1.068982761E-3,-1.221694518E-3,2.031698583E-3
1.599820638E0,0.000000000E0,1.527118147E-4,0.000000000E0,1.527118147E-4
1.602265846E0,1.221694518E-3,1.527118147E-4,0.000000000E0,1.231202012E-3
1.604710273E0,0.000000000E0,-1.068982761E-3,-1.221694518E-3,1.623348896E-3
1.607153919E0,0.000000000E0,-1.068982761E-3,0.000000000E0,1.068982761E-3
1.609598346E0,0.000000000E0,-1.068982761E-3,-1.221694518E-3,1.623348896E-3
1.612043606E0,0.000000000E0,-1.068982761E-3,-2.443389036E-3,2.666997211E-3
1.614487981E0,0.000000000E0,1.527118147E-4,-1.221694518E-3,1.231202012E-3
1.616931679E0,0.000000000E0,1.527118147E-4,-1.221694518E-3,1.231202012E-3
1.619376106E0,-1.221694518E-3,1.374406274E-3,-3.665083554E-3,4.100532594E-3
1.621821367E0,0.000000000E0,2.596100792E-3,1.221694518E-3,2.869194455E-3
1.624265794E0,0.000000000E0,1.374406274E-3,0.000000000E0,1.374406274E-3
1.626709440E0,-1.221694518E-3,1.527118147E-4,-1.221694518E-3,1.734472798E-3
1.629153867E0,0.000000000E0,1.527118147E-4,0.000000000E0,1.527118147E-4
1.631598398E0,0.000000000E0,1.527118147E-4,0.000000000E0,1.527118147E-4
1.634043606E0,0.000000000E0,1.527118147E-4,-2.443389036E-3,2.448156629E-3
1.636487200E0,0.000000000E0,1.527118147E-4,-1.221694518E-3,1.231202012E-3
1.638931627E0,-1.221694518E-3,1.527118147E-4,0.000000000E0,1.231202012E-3
1.641376888E0,-2.443389036E-3,1.374406274E-3,1.221694518E-3,3.058051681E-3
1.643821315E0,-1.221694518E-3,1.374406274E-3,-1.221694518E-3,2.207729059E-3
1.646264960E0,1.221694518E-3,-2.290677279E-3,1.221694518E-3,2.869194554E-3
1.648709388E0,0.000000000E0,1.527118147E-4,0.000000000E0,1.527118147E-4
1.651154648E0,0.000000000E0,1.374406274E-3,0.000000000E0,1.374406274E-3
1.653599075E0,1.221694518E-3,1.527118147E-4,1.221694518E-3,1.734472798E-3
1.656042669E0,0.000000000E0,-1.068982761E-3,0.000000000E0,1.068982761E-3
1.658487200E0,-1.221694518E-3,1.527118147E-4,0.000000000E0,1.231202012E-3
1.660932408E0,-1.221694518E-3,1.374406274E-3,0.000000000E0,1.838893717E-3
1.663376783E0,-1.221694518E-3,1.527118147E-4,1.221694518E-3,1.734472798E-3
1.665820429E0,0.000000000E0,1.374406274E-3,-1.221694518E-3,1.838893717E-3
1.668264960E0,1.221694518E-3,1.374406274E-3,0.000000000E0,1.838893717E-3
1.670710169E0,0.000000000E0,1.374406274E-3,-1.221694518E-3,1.838893717E-3
1.673154544E0,-1.221694518E-3,-1.068982761E-3,-1.221694518E-3,2.031698583E-3
1.675598190E0,0.000000000E0,-1.068982761E-3,-1.221694518E-3,1.623348896E-3
1.678042721E0,1.221694518E-3,1.374406274E-3,0.000000000E0,1.838893717E-3
1.680487929E0,-1.221694518E-3,-1.068982761E-3,0.000000000E0,1.623348896E-3
1.682932356E0,0.000000000E0,1.527118147E-4,0.000000000E0,1.527118147E-4
1.685375950E0,-2.443389036E-3,1.374406274E-3,-1.221694518E-3,3.058051681E-3
1.687820481E0,-1.221694518E-3,1.374406274E-3,-1.221694518E-3,2.207729059E-3
1.690265690E0,-1.221694518E-3,1.374406274E-3,1.221694518E-3,2.207729059E-3
1.692710065E0,-1.221694518E-3,1.374406274E-3,1.221694518E-3,2.207729059E-3
1.695153763E0,-1.221694518E-3,1.374406274E-3,0.000000000E0,1.838893717E-3
1.697598190E0,0.000000000E0,1.527118147E-4,-2.443389036E-3,2.448156629E-3
1.700043450E0,-1.221694518E-3,1.374406274E-3,0.000000000E0,1.838893717E-3
1.702487825E0,0.000000000E0,1.374406274E-3,0.000000000E0,1.374406274E-3
1.704931471E0,1.221694518E-3,1.374406274E-3,-1.221694518E-3,2.207729059E-3
1.707376002E0,0.000000000E0,1.527118147E-4,-1.221694518E-3,1.231202012E-3
1.709821210E0,0.000000000E0,-1.068982761E-3,-1.221694518E-3,1.623348896E-3
1.712265638E0,0.000000000E0,-1.068982761E-3,0.000000000E0,1.068982761E-3
1.714709231E0,0.000000000E0,-1.068982761E-3,-2.443389036E-3,2.666997211E-3
1.717153763E0,-1.221694518E-3,1.527118147E-4,-2.443389036E-3,2.736057085E-3
1.719598971E0,0.000000000E0,1.527118147E-4,0.000000000E0,1.527118147E-4
1.722043398E0,0.000000000E0,1.527118147E-4,2.443389036E-3,2.448156629E-3
1.724487044E0,0.000000000E0,-1.068982761E-3,-1.221694518E-3,1.623348896E-3
1.726931471E0,0.000000000E0,-1.068982761E-3,-1.221694518E-3,1.623348896E-3
1.729376731E0,0.000000000E0,-1.068982761E-3,0.000000000E0,1.068982761E-3
1.731821106E0,0.000000000E0,1.527118147E-4,1.221694518E-3,1.231202012E-3
1.734264752E0,0.000000000E0,1.527118147E-4,1.221694518E-3,1.231202012E-3
1.736709283E0,1.221694518E-3,1.374406274E-3,-1.221694518E-3,2.207729059E-3
1.739154492E0,0.000000000E0,1.527118147E-4,-1.221694518E-3,1.231202012E-3
1.741598867E0,0.000000000E0,1.527118147E-4,-1.221694518E-3,1.231202012E-3
1.744042513E0,0.000000000E0,1.527118147E-4,-1.221694518E-3,1.231202012E-3
1.746487044E0,-1.221694518E-3,1.527118147E-4,0.000000000E0,1.231202012E-3
1.748932252E0,0.000000000E0,1.527118147E-4,-1.221694518E-3,1.231202012E-3
1.751376627E0,0.000000000E0,-1.068982761E-3,-1.221694518E-3,1.623348896E-3
1.753820273E0,-1.221694518E-3,1.374406274E-3,-1.221694518E-3,2.207729059E-3
1.756264804E0,0.000000000E0,-1.068982761E-3,-1.221694518E-3,1.623348896E-3
1.758710013E0,0.000000000E0,1.527118147E-4,0.000000000E0,1.527118147E-4
1.761154388E0,-1.221694518E-3,1.527118147E-4,1.221694518E-3,1.734472798E-3
1.763598033E0,1.221694518E-3,2.596100792E-3,0.000000000E0,2.869194455E-3
1.766042565E0,0.000000000E0,2.596100792E-3,2.443389036E-3,3.565093169E-3
1.768487773E0,0.000000000E0,2.596100792E-3,0.000000000E0,2.596100792E-3
1.770932148E0,0.000000000E0,1.374406274E-3,-1.221694518E-3,1.838893717E-3
1.773375794E0,-1.221694518E-3,1.374406274E-3,0.000000000E0,1.838893717E-3
1.775820325E0,-1.221694518E-3,1.374406274E-3,-1.221694518E-3,2.207729059E-3
1.778265533E0,0.000000000E0,-1.068982761E-3,-1.221694518E-3,1.623348896E-3
1.780709908E0,-1.221694518E-3,1.527118147E-4,0.000000000E0,1.231202012E-3
1.783153554E0,-1.221694518E-3,1.527118147E-4,0.000000000E0,1.231202012E-3
1.785598085E0,-1.221694518E-3,-1.068982761E-3,1.221694518E-3,2.031698583E-3
1.788043294E0,1.221694518E-3,1.527118147E-4,0.000000000E0,1.231202012E-3
1.790487669E0,1.221694518E-3,-1.068982761E-3,0.000000000E0,1.623348896E-3
1.792931315E0,0.000000000E0,1.374406274E-3,-1.221694518E-3,1.838893717E-3
1.795375846E0,0.000000000E0,1.374406274E-3,-2.443389036E-3,2.803416235E-3
1.797821054E0,-1.221694518E-3,1.527118147E-4,-1.221694518E-3,1.734472798E-3
1.800265429E0,-1.221694518E-3,1.374406274E-3,-1.221694518E-3,2.207729059E-3
1.802709127E0,-1.221694518E-3,1.374406274E-3,-1.221694518E-3,2.207729059E-3
1.805153554E0,0.000000000E0,1.527118147E-4,-1.221694518E-3,1.231202012E-3
1.807598815E0,0.000000000E0,1.374406274E-3,0.000000000E0,1.374406274E-3
1.810043190E0,-1.221694518E-3,1.374406274E-3,1.221694518E-3,2.207729059E-3
1.812486835E0,-1.221694518E-3,-1.068982761E-3,-1.221694518E-3,2.031698583E-3
1.814931367E0,0.000000000E0,-1.068982761E-3,2.443389036E-3,2.666997211E-3
1.817376575E0,-1.221694518E-3,1.527118147E-4,-1.221694518E-3,1.734472798E-3
1.819820950E0,-1.221694518E-3,1.374406274E-3,0.000000000E0,1.838893717E-3
1.822264596E0,0.000000000E0,1.527118147E-4,0.000000000E0,1.527118147E-4
1.824709127E0,1.221694518E-3,1.527118147E-4,-1.221694518E-3,1.734472798E-3
1.827154335E0,1.221694518E-3,1.527118147E-4,-1.221694518E-3,1.734472798E-3
1.829598710E0,-2.443389036E-3,2.596100792E-3,-2.443389036E-3,4.322041102E-3
1.832042356E0,-1.221694518E-3,1.527118147E-4,0.000000000E0,1.231202012E-3
1.834486888E0,1.221694518E-3,1.374406274E-3,0.000000000E0,1.838893717E-3
1.836932096E0,0.000000000E0,2.596100792E-3,0.000000000E0,2.596100792E-3
1.839376523E0,0.000000000E0,1.374406274E-3,-1.221694518E-3,1.838893717E-3
1.841820117E0,-1.221694518E-3,1.527118147E-4,-1.221694518E-3,1.734472798E-3
1.844264648E0,-1.221694518E-3,1.527118147E-4,-1.221694518E-3,1.734472798E-3
1.846709856E0,-1.221694518E-3,1.374406274E-3,0.000000000E0,1.838893717E-3
1.849154283E0,0.000000000E0,1.527118147E-4,0.000000000E0,1.527118147E-4
1.851597877E0,-1.221694518E-3,2.596100792E-3,-1.221694518E-3,3.118463454E-3
1.854042408E0,-1.221694518E-3,1.374406274E-3,0.000000000E0,1.838893717E-3
1.856487617E0,0.000000000E0,1.374406274E-3,-1.221694518E-3,1.838893717E-3
1.858931992E0,-1.221694518E-3,1.527118147E-4,-2.443389036E-3,2.736057085E-3
1.861375690E0,-1.221694518E-3,1.374406274E-3,-1.221694518E-3,2.207729059E-3
1.863820117E0,-1.221694518E-3,1.374406274E-3,1.221694518E-3,2.207729059E-3
1.866265377E0,-1.221694518E-3,1.527118147E-4,-1.221694518E-3,1.734472798E-3
1.868709752E0,1.221694518E-3,1.527118147E-4,-1.221694518E-3,1.734472798E-3
1.871153398E0,0.000000000E0,1.374406274E-3,-1.221694518E-3,1.838893717E-3
1.873597929E0,0.000000000E0,1.527118147E-4,1.221694518E-3,1.231202012E-3
1.876043138E0,1.221694518E-3,1.527118147E-4,0.000000000E0,1.231202012E-3
1.878487513E0,-1.221694518E-3,-1.068982761E-3,0.000000000E0,1.623348896E-3
1.880931158E0,0.000000000E0,1.527118147E-4,0.000000000E0,1.527118147E-4
1.883375690E0,-1.221694518E-3,1.374406274E-3,-2.443389036E-3,3.058051681E-3
1.885820898E0,0.000000000E0,1.527118147E-4,-1.221694518E-3,1.231202012E-3
1.888265273E0,0.000000000E0,1.527118147E-4,0.000000000E0,1.527118147E-4
1.890708919E0,-1.221694518E-3,-1.068982761E-3,-1.221694518E-3,2.031698583E-3
1.893153450E0,0.000000000E0,1.527118147E-4,0.000000000E0,1.527118147E-4
1.895598658E0,-1.221694518E-3,2.596100792E-3,0.000000000E0,2.869194455E-3
1.898043033E0,1.221694518E-3,-2.290677279E-3,0.000000000E0,2.596100902E-3
1.900486679E0,0.000000000E0,1.374406274E-3,0.000000000E0,1.374406274E-3
1.902931210E0,0.000000000E0,1.527118147E-4,0.000000000E0,1.527118147E-4
1.905376419E0,0.000000000E0,1.527118147E-4,-1.221694518E-3,1.231202012E-3
1.907820794E0,0.000000000E0,1.527118147E-4,-1.221694518E-3,1.231202012E-3
1.910264440E0,-1.221694518E-3,2.596100792E-3,0.000000000E0,2.869194455E-3
1.912708971E0,0.000000000E0,2.596100792E-3,1.221694518E-3,2.869194455E-3
1.915154179E0,1.221694518E-3,-1.068982761E-3,0.000000000E0,1.623348896E-3
1.917598554E0,0.000000000E0,-1.068982761E-3,0.000000000E0,1.068982761E-3
1.920042200E0,0.000000000E0,-1.068982761E-3,0.000000000E0,1.068982761E-3
1.922486731E0,0.000000000E0,-1.068982761E-3,2.443389036E-3,2.666997211E-3
1.924931940E0,1.221694518E-3,-1.068982761E-3,0.000000000E0,1.623348896E-3
1.927376315E0,0.000000000E0,1.527118147E-4,-1.221694518E-3,1.231202012E-3
1.929819960E0,0.000000000E0,1.527118147E-4,1.221694518E-3,1.231202012E-3
1.932264492E0,0.000000000E0,1.374406274E-3,1.221694518E-3,1.838893717E-3
1.934709700E0,0.000000000E0,1.527118147E-4,0.000000000E0,1.527118147E-4
1.937154075E0,-1.221694518E-3,1.374406274E-3,0.000000000E0,1.838893717E-3
1.939597721E0,0.000000000E0,1.374406274E-3,1.221694518E-3,1.838893717E-3
1.942042252E0,0.000000000E0,1.527118147E-4,0.000000000E0,1.527118147E-4
1.944487460E0,0.000000000E0,1.527118147E-4,-1.221694518E-3,1.231202012E-3
1.946931835E0,0.000000000E0,1.527118147E-4,1.221694518E-3,1.231202012E-3
1.949375481E0,1.221694518E-3,1.527118147E-4,0.000000000E0,1.231202012E-3
1.951820013E0,-1.221694518E-3,1.527118147E-4,-2.443389036E-3,2.736057085E-3
1.954265221E0,0.000000000E0,1.374406274E-3,0.000000000E0,1.374406274E-3
1.956709596E0,0.000000000E0,1.527118147E-4,0.000000000E0,1.527118147E-4
1.959153242E0,0.000000000E0,1.527118147E-4,0.000000000E0,1.527118147E-4
1.961597773E0,0.000000000E0,1.374406274E-3,0.000000000E0,1.374406274E-3
1.964042981E0,0.000000000E0,-1.068982761E-3,1.221694518E-3,1.623348896E-3
1.966487356E0,1.221694518E-3,1.527118147E-4,0.000000000E0,1.231202012E-3
1.968931002E0,-1.221694518E-3,1.374406274E-3,1.221694518E-3,2.207729059E-3
1.971375533E0,0.000000000E0,1.527118147E-4,0.000000000E0,1.527118147E-4
1.973820742E0,1.221694518E-3,1.527118147E-4,-1.221694518E-3,1.734472798E-3
1.976265117E0,0.000000000E0,1.527118147E-4,1.221694518E-3,1.231202012E-3
1.978708763E0,-1.221694518E-3,1.374406274E-3,1.221694518E-3,2.207729059E-3
1.981153294E0,0.000000000E0,1.527118147E-4,-1.221694518E-3,1.231202012E-3
1.983598502E0,0.000000000E0,1.527118147E-4,-1.221694518E-3,1.231202012E-3
1.986042877E0,0.000000000E0,-1.068982761E-3,0.000000000E0,1.068982761E-3
1.988486523E0,-1.221694518E-3,-1.068982761E-3,0.000000000E0,1.623348896E-3
1.990931054E0,-1.221694518E-3,1.527118147E-4,-2.443389036E-3,2.736057085E-3
1.993376263E0,-1.221694518E-3,1.374406274E-3,0.000000000E0,1.838893717E-3
1.995820638E0,0.000000000E0,-1.068982761E-3,0.000000000E0,1.068982761E-3
1.998264283E0,-1.221694518E-3,-2.290677279E-3,1.221694518E-3,2.869194554E-3
2.000708815E0,0.000000000E0,-1.068982761E-3,1.221694518E-3,1.623348896E-3
2.003154023E0,0.000000000E0,-1.068982761E-3,0.000000000E0,1.068982761E-3
2.005598398E0,0.000000000E0,1.374406274E-3,0.000000000E0,1.374406274E-3
2.008042044E0,-1.221694518E-3,1.527118147E-4,0.000000000E0,1.231202012E-3
2.010486575E0,0.000000000E0,1.374406274E-3,0.000000000E0,1.374406274E-3
2.012931783E0,-1.221694518E-3,1.527118147E-4,0.000000000E0,1.231202012E-3
2.015376158E0,-1.221694518E-3,-2.290677279E-3,0.000000000E0,2.596100902E-3
2.017819804E0,0.000000000E0,1.374406274E-3,-1.221694518E-3,1.838893717E-3
2.020264335E0,0.000000000E0,1.374406274E-3,-1.221694518E-3,1.838893717E-3
2.022709544E0,0.000000000E0,1.527118147E-4,-1.221694518E-3,1.231202012E-3
2.025153919E0,-1.221694518E-3,1.527118147E-4,-1.221694518E-3,1.734472798E-3
2.027597565E0,0.000000000E0,1.374406274E-3,0.000000000E0,1.374406274E-3
2.030042096E0,0.000000000E0,1.374406274E-3,0.000000000E0,1.374406274E-3
2.032487304E0,-1.221694518E-3,1.527118147E-4,1.221694518E-3,1.734472798E-3
2.034931679E0,-1.221694518E-3,1.527118147E-4,0.000000000E0,1.231202012E-3
2.037375325E0,0.000000000E0,1.374406274E-3,0.000000000E0,1.374406274E-3
2.039819856E0,0.000000000E0,1.527118147E-4,0.000000000E0,1.527118147E-4
2.042265065E0,0.000000000E0,1.374406274E-3,0.000000000E0,1.374406274E-3
2.044709440E0,-1.221694518E-3,1.374406274E-3,1.221694518E-3,2.207729059E-3
2.047153085E0,-1.221694518E-3,1.527118147E-4,-1.221694518E-3,1.734472798E-3
2.049597617E0,1.221694518E-3,-1.068982761E-3,1.221694518E-3,2.031698583E-3
2.052042825E0,0.000000000E0,1.527118147E-4,-1.221694518E-3,1.231202012E-3
2.054487200E0,1.221694518E-3,1.527118147E-4,1.221694518E-3,1.734472798E-3
2.056930846E0,0.000000000E0,1.527118147E-4,0.000000000E0,1.527118147E-4
2.059375377E0,1.221694518E-3,1.527118147E-4,0.000000000E0,1.231202012E-3
2.061820585E0,-1.221694518E-3,1.374406274E-3,1.221694518E-3,2.207729059E-3
2.064264960E0,0.000000000E0,1.527118147E-4,1.221694518E-3,1.231202012E-3
2.066708606E0,1.221694518E-3,-1.068982761E-3,1.221694518E-3,2.031698583E-3
2.069153138E0,0.000000000E0,1.527118147E-4,0.000000000E0,1.527118147E-4
2.071598346E0,-1.221694518E-3,1.374406274E-3,0.000000000E0,1.838893717E-3
2.074042721E0,0.000000000E0,1.374406274E-3,1.221694518E-3,1.838893717E-3
2.076486367E0,-1.221694518E-3,-1.068982761E-3,0.000000000E0,1.623348896E-3
2.078930898E0,0.000000000E0,1.527118147E-4,-1.221694518E-3,1.231202012E-3
2.081376106E0,-1.221694518E-3,1.374406274E-3,-3.665083554E-3,4.100532594E-3
2.083820481E0,-1.221694518E-3,1.527118147E-4,0.000000000E0,1.231202012E-3
2.086264127E0,1.221694518E-3,1.527118147E-4,1.221694518E-3,1.734472798E-3
2.088708658E0,0.000000000E0,1.374406274E-3,0.000000000E0,1.374406274E-3
2.091153867E0,-1.221694518E-3,1.374406274E-3,-1.221694518E-3,2.207729059E-3
2.093598242E0,0.000000000E0,1.374406274E-3,-1.221694518E-3,1.838893717E-3
2.096041888E0,-1.221694518E-3,1.374406274E-3,1.221694518E-3,2.207729059E-3
2.098486419E0,-2.443389036E-3,1.374406274E-3,-1.221694518E-3,3.058051681E-3
2.100931627E0,0.000000000E0,1.374406274E-3,-1.221694518E-3,1.838893717E-3
2.103376002E0,-2.443389036E-3,1.527118147E-4,0.000000000E0,2.448156629E-3
2.105819648E0,0.000000000E0,1.374406274E-3,1.221694518E-3,1.838893717E-3
2.108264075E0,1.221694518E-3,-2.290677279E-3,1.221694518E-3,2.869194554E-3
2.110709388E0,0.000000000E0,1.527118147E-4,-1.221694518E-3,1.231202012E-3
2.113153763E0,0.000000000E0,1.527118147E-4,-1.221694518E-3,1.231202012E-3
2.115597408E0,0.000000000E0,-1.068982761E-3,1.221694518E-3,1.623348896E-3
2.118041940E0,-1.221694518E-3,-1.068982761E-3,-1.221694518E-3,2.031698583E-3
2.120487148E0,-1.221694518E-3,-1.068982761E-3,-2.443389036E-3,2.933498188E-3
2.122931523E0,1.221694518E-3,-1.068982761E-3,0.000000000E0,1.623348896E-3
2.125375169E0,0.000000000E0,1.527118147E-4,-1.221694518E-3,1.231202012E-3
2.127819700E0,0.000000000E0,1.374406274E-3,-1.221694518E-3,1.838893717E-3
2.130264908E0,1.221694518E-3,-1.068982761E-3,-2.443389036E-3,2.933498188E-3
2.132709283E0,0.000000000E0,1.527118147E-4,0.000000000E0,1.527118147E-4
2.135152929E0,0.000000000E0,1.527118147E-4,1.221694518E-3,1.231202012E-3
2.137597460E0,0.000000000E0,-1.068982761E-3,0.000000000E0,1.068982761E-3
2.140042669E0,0.000000000E0,1.527118147E-4,-1.221694518E-3,1.231202012E-3
2.142487044E0,0.000000000E0,1.527118147E-4,1.221694518E-3,1.231202012E-3
2.144930690E0,0.000000000E0,1.527118147E-4,0.000000000E0,1.527118147E-4
2.147375221E0,0.000000000E0,1.374406274E-3,-1.221694518E-3,1.838893717E-3
2.149820429E0,-1.221694518E-3,1.374406274E-3,0.000000000E0,1.838893717E-3
2.152264804E0,1.221694518E-3,-1.068982761E-3,0.000000000E0,1.623348896E-3
2.154708450E0,0.000000000E0,-1.068982761E-3,0.000000000E0,1.068982761E-3
2.157152981E0,0.000000000E0,1.527118147E-4,-1.221694518E-3,1.231202012E-3
2.159598190E0,0.000000000E0,1.527118147E-4,0.000000000E0,1.527118147E-4
2.162042565E0,-1.221694518E-3,1.527118147E-4,2.443389036E-3,2.736057085E-3
2.164486210E0,0.000000000E0,1.527118147E-4,0.000000000E0,1.527118147E-4
2.166930742E0,-1.221694518E-3,1.527118147E-4,-1.221694518E-3,1.734472798E-3
2.169375950E0,0.000000000E0,1.374406274E-3,-1.221694518E-3,1.838893717E-3
2.171820325E0,1.221694518E-3,-1.068982761E-3,-1.221694518E-3,2.031698583E-3
2.174263971E0,1.221694518E-3,-1.068982761E-3,-1.221694518E-3,2.031698583E-3
2.176708502E0,-1.221694518E-3,1.374406274E-3,0.000000000E0,1.838893717E-3
2.179153710E0,0.000000000E0,1.374406274E-3,-1.221694518E-3,1.838893717E-3
2.181598085E0,0.000000000E0,1.527118147E-4,-1.221694518E-3,1.231202012E-3
2.184041731E0,-1.221694518E-3,1.374406274E-3,0.000000000E0,1.838893717E-3
2.186486263E0,0.000000000E0,1.527118147E-4,0.000000000E0,1.527118147E-4
2.188931471E0,0.000000000E0,1.374406274E-3,1.221694518E-3,1.838893717E-3
2.191375846E0,-2.443389036E-3,1.374406274E-3,0.000000000E0,2.803416235E-3
2.193819492E0,0.000000000E0,1.527118147E-4,-1.221694518E-3,1.231202012E-3
2.196264023E0,1.221694518E-3,-1.068982761E-3,0.000000000E0,1.623348896E-3
2.198709231E0,1.221694518E-3,-1.068982761E-3,-2.443389036E-3,2.933498188E-3
2.201153606E0,-1.221694518E-3,1.527118147E-4,-2.443389036E-3,2.736057085E-3
2.203597252E0,0.000000000E0,-1.068982761E-3,-1.221694518E-3,1.623348896E-3
2.206041783E0,0.000000000E0,1.527118147E-4,1.221694518E-3,1.231202012E-3
2.208486992E0,1.221694518E-3,1.527118147E-4,1.221694518E-3,1.734472798E-3
2.210931367E0,-1.221694518E-3,1.527118147E-4,0.000000000E0,1.231202012E-3
2.213375013E0,-1.221694518E-3,1.527118147E-4,-2.443389036E-3,2.736057085E-3
2.215819544E0,0.000000000E0,1.374406274E-3,-1.221694518E-3,1.838893717E-3
2.218264752E0,0.000000000E0,1.527118147E-4,0.000000000E0,1.527118147E-4
2.220709127E0,0.000000000E0,1.374406274E-3,-1.221694518E-3,1.838893717E-3
2.223152773E0,1.221694518E-3,1.374406274E-3,0.000000000E0,1.838893717E-3
2.225597304E0,0.000000000E0,1.527118147E-4,-1.221694518E-3,1.231202012E-3
2.228042513E0,0.000000000E0,-2.290677279E-3,-1.221694518E-3,2.596100902E-3
2.230486888E0,0.000000000E0,1.527118147E-4,-1.221694518E-3,1.231202012E-3
2.232930533E0,-1.221694518E-3,1.527118147E-4,-1.221694518E-3,1.734472798E-3
2.235375065E0,1.221694518E-3,1.527118147E-4,0.000000000E0,1.231202012E-3
2.237820273E0,-1.221694518E-3,1.527118147E-4,2.443389036E-3,2.736057085E-3
2.240264648E0,0.000000000E0,1.374406274E-3,1.221694518E-3,1.838893717E-3
2.242708294E0,1.221694518E-3,1.374406274E-3,1.221694518E-3,2.207729059E-3
2.245152721E0,0.000000000E0,2.596100792E-3,0.000000000E0,2.596100792E-3
2.247598033E0,0.000000000E0,1.527118147E-4,-1.221694518E-3,1.231202012E-3
2.250042408E0,0.000000000E0,1.527118147E-4,-1.221694518E-3,1.231202012E-3
2.252486054E0,0.000000000E0,1.527118147E-4,0.000000000E0,1.527118147E-4
2.254930585E0,0.000000000E0,-1.068982761E-3,1.221694518E-3,1.623348896E-3
2.257375794E0,-1.221694518E-3,1.527118147E-4,2.443389036E-3,2.736057085E-3
2.259820169E0,0.000000000E0,1.374406274E-3,-2.443389036E-3,2.803416235E-3
2.262263815E0,0.000000000E0,1.374406274E-3,0.000000000E0,1.374406274E-3
2.264708346E0,0.000000000E0,2.596100792E-3,-1.221694518E-3,2.869194455E-3
2.267153554E0,-2.443389036E-3,1.374406274E-3,0.000000000E0,2.803416235E-3
2.269597929E0,-1.221694518E-3,1.527118147E-4,-1.221694518E-3,1.734472798E-3
2.272041575E0,1.221694518E-3,-1.068982761E-3,0.000000000E0,1.623348896E-3
2.274486002E0,0.000000000E0,1.527118147E-4,0.000000000E0,1.527118147E-4
2.276931315E0,-1.221694518E-3,1.374406274E-3,-1.221694518E-3,2.207729059E-3
2.279375690E0,0.000000000E0,-1.068982761E-3,0.000000000E0,1.068982761E-3
2.281819335E0,0.000000000E0,1.527118147E-4,0.000000000E0,1.527118147E-4
2.284263867E0,0.000000000E0,1.374406274E-3,0.000000000E0,1.374406274E-3
2.286709075E0,0.000000000E0,1.527118147E-4,0.000000000E0,1.527118147E-4
2.289153450E0,0.000000000E0,1.527118147E-4,-1.221694518E-3,1.231202012E-3
2.291597096E0,0.000000000E0,1.527118147E-4,1.221694518E-3,1.231202012E-3
2.294041627E0,1.221694518E-3,1.527118147E-4,1.221694518E-3,1.734472798E-3
2.296486835E0,-1.221694518E-3,1.374406274E-3,0.000000000E0,1.838893717E-3
2.298931210E0,0.000000000E0,-1.068982761E-3,0.000000000E0,1.068982761E-3
2.301374856E0,0.000000000E0,1.527118147E-4,1.221694518E-3,1.231202012E-3
2.303819388E0,-1.221694518E-3,1.527118147E-4,1.221694518E-3,1.734472798E-3
2.306264596E0,0.000000000E0,-1.068982761E-3,0.000000000E0,1.068982761E-3
2.308708971E0,1.221694518E-3,1.527118147E-4,1.221694518E-3,1.734472798E-3
2.311152617E0,-1.221694518E-3,1.527118147E-4,1.221694518E-3,1.734472798E-3
2.313597148E0,-1.221694518E-3,1.527118147E-4,-1.221694518E-3,1.734472798E-3
2.316042356E0,0.000000000E0,1.527118147E-4,-1.221694518E-3,1.231202012E-3
2.318486731E0,1.221694518E-3,1.527118147E-4,-1.221694518E-3,1.734472798E-3
2.320930377E0,0.000000000E0,1.374406274E-3,1.221694518E-3,1.838893717E-3
2.323374908E0,-1.221694518E-3,1.527118147E-4,-1.221694518E-3,1.734472798E-3
2.325820117E0,0.000000000E0,1.527118147E-4,-1.221694518E-3,1.231202012E-3
2.328264492E0,0.000000000E0,1.374406274E-3,0.000000000E0,1.374406274E-3
2.330708138E0,0.000000000E0,1.527118147E-4,0.000000000E0,1.527118147E-4
2.333152669E0,0.000000000E0,1.374406274E-3,-1.221694518E-3,1.838893717E-3
2.335597877E0,0.000000000E0,1.374406274E-3,0.000000000E0,1.374406274E-3
2.338042252E0,0.000000000E0,1.374406274E-3,1.221694518E-3,1.838893717E-3
2.340485898E0,0.000000000E0,-1.068982761E-3,-1.221694518E-3,1.623348896E-3
2.342930429E0,-1.221694518E-3,1.527118147E-4,-1.221694518E-3,1.734472798E-3
2.345375638E0,0.000000000E0,1.374406274E-3,1.221694518E-3,1.838893717E-3
2.347820013E0,0.000000000E0,1.527118147E-4,-1.221694518E-3,1.231202012E-3
2.350263658E0,1.221694518E-3,1.374406274E-3,-1.221694518E-3,2.207729059E-3
2.352708085E0,0.000000000E0,-1.068982761E-3,-1.221694518E-3,1.623348896E-3
2.355153398E0,1.221694518E-3,1.527118147E-4,-1.221694518E-3,1.734472798E-3
2.357597773E0,0.000000000E0,1.527118147E-4,0.000000000E0,1.527118147E-4
2.360041419E0,0.000000000E0,1.374406274E-3,-1.221694518E-3,1.838893717E-3
2.362485950E0,-1.221694518E-3,1.374406274E-3,-2.443389036E-3,3.058051681E-3
2.364931158E0,0.000000000E0,-1.068982761E-3,-2.443389036E-3,2.666997211E-3
2.367375533E0,0.000000000E0,1.374406274E-3,1.221694518E-3,1.838893717E-3
2.369819179E0,0.000000000E0,2.596100792E-3,0.000000000E0,2.596100792E-3
2.372263710E0,-1.221694518E-3,1.374406274E-3,-1.221694518E-3,2.207729059E-3
2.374708919E0,-1.221694518E-3,-1.068982761E-3,-1.221694518E-3,2.031698583E-3
2.377153294E0,-2.443389036E-3,1.374406274E-3,0.000000000E0,2.803416235E-3
2.379596940E0,0.000000000E0,-1.068982761E-3,-1.221694518E-3,1.623348896E-3
2.382041367E0,-1.221694518E-3,-1.068982761E-3,-2.443389036E-3,2.933498188E-3
2.384486679E0,0.000000000E0,1.527118147E-4,0.000000000E0,1.527118147E-4
2.386931054E0,0.000000000E0,1.527118147E-4,-1.221694518E-3,1.231202012E-3
2.389374700E0,0.000000000E0,1.374406274E-3,-1.221694518E-3,1.838893717E-3
2.391819231E0,-1.221694518E-3,1.527118147E-4,0.000000000E0,1.231202012E-3
2.394264440E0,0.000000000E0,1.374406274E-3,0.000000000E0,1.374406274E-3
2.396708815E0,-1.221694518E-3,-1.068982761E-3,0.000000000E0,1.623348896E-3
2.399152460E0,-1.221694518E-3,1.527118147E-4,-2.443389036E-3,2.736057085E-3
2.401596992E0,0.000000000E0,1.527118147E-4,-1.221694518E-3,1.231202012E-3
2.404042200E0,0.000000000E0,1.527118147E-4,0.000000000E0,1.527118147E-4
2.406486575E0,-1.221694518E-3,1.527118147E-4,0.000000000E0,1.231202012E-3
2.408930221E0,0.000000000E0,1.374406274E-3,0.000000000E0,1.374406274E-3
2.411374648E0,0.000000000E0,1.527118147E-4,-2.443389036E-3,2.448156629E-3
2.413819960E0,-1.221694518E-3,1.527118147E-4,-1.221694518E-3,1.734472798E-3
2.416264335E0,-1.221694518E-3,1.374406274E-3,1.221694518E-3,2.207729059E-3
2.418707981E0,-1.221694518E-3,1.527118147E-4,0.000000000E0,1.231202012E-3
2.421152513E0,0.000000000E0,-1.068982761E-3,-2.443389036E-3,2.666997211E-3
2.423597721E0,0.000000000E0,1.374406274E-3,-1.221694518E-3,1.838893717E-3
2.426042096E0,-1.221694518E-3,1.374406274E-3,1.221694518E-3,2.207729059E-3
2.428485742E0,-1.221694518E-3,1.527118147E-4,0.000000000E0,1.231202012E-3
2.430930169E0,0.000000000E0,1.527118147E-4,-1.221694518E-3,1.231202012E-3
2.433375481E0,0.000000000E0,1.527118147E-4,-2.443389036E-3,2.448156629E-3
2.435819856E0,0.000000000E0,1.527118147E-4,0.000000000E0,1.527118147E-4
2.438263502E0,0.000000000E0,1.527118147E-4,0.000000000E0,1.527118147E-4
2.440707929E0,0.000000000E0,1.527118147E-4,-2.443389036E-3,2.448156629E-3
2.443153242E0,-1.221694518E-3,1.374406274E-3,-1.221694518E-3,2.207729059E-3
2.445597617E0,-1.221694518E-3,1.527118147E-4,-1.221694518E-3,1.734472798E-3
2.448041263E0,-1.221694518E-3,2.596100792E-3,-1.221694518E-3,3.118463454E-3
2.450485690E0,0.000000000E0,1.527118147E-4,-3.665083554E-3,3.668263670E-3
2.452931002E0,0.000000000E0,1.527118147E-4,-1.221694518E-3,1.231202012E-3
2.455375377E0,0.000000000E0,2.596100792E-3,1.221694518E-3,2.869194455E-3
2.457819023E0,-1.221694518E-3,1.527118147E-4,-1.221694518E-3,1.734472798E-3
2.460263450E0,-1.221694518E-3,1.527118147E-4,-1.221694518E-3,1.734472798E-3
2.462708763E0,1.221694518E-3,-2.290677279E-3,0.000000000E0,2.596100902E-3
2.465153138E0,0.000000000E0,1.527118147E-4,-2.443389036E-3,2.448156629E-3
2.467596783E0,0.000000000E0,1.374406274E-3,1.221694518E-3,1.838893717E-3
2.470041210E0,-1.221694518E-3,1.374406274E-3,0.000000000E0,1.838893717E-3
2.472486523E0,0.000000000E0,1.374406274E-3,0.000000000E0,1.374406274E-3
2.474930898E0,0.000000000E0,1.374406274E-3,2.443389036E-3,2.803416235E-3
2.477374544E0,1.221694518E-3,1.527118147E-4,-1.221694518E-3,1.734472798E-3
2.479818971E0,0.000000000E0,-1.068982761E-3,0.000000000E0,1.068982761E-3
2.482264283E0,0.000000000E0,1.527118147E-4,0.000000000E0,1.527118147E-4
2.484708658E0,0.000000000E0,-1.068982761E-3,0.000000000E0,1.068982761E-3
2.487152304E0,0.000000000E0,-1.068982761E-3,-1.221694518E-3,1.623348896E-3
2.489596731E0,0.000000000E0,1.527118147E-4,-1.221694518E-3,1.231202012E-3
2.492042044E0,0.000000000E0,1.374406274E-3,0.000000000E0,1.374406274E-3
2.494486419E0,-1.221694518E-3,1.527118147E-4,1.221694518E-3,1.734472798E-3
2.496930065E0,0.000000000E0,1.374406274E-3,1.221694518E-3,1.838893717E-3
2.499374492E0,1.221694518E-3,1.527118147E-4,0.000000000E0,1.231202012E-3
2.501819804E0,0.000000000E0,1.527118147E-4,-1.221694518E-3,1.231202012E-3
2.504264179E0,1.221694518E-3,-1.068982761E-3,-1.221694518E-3,2.031698583E-3
2.506707825E0,0.000000000E0,-1.068982761E-3,-1.221694518E-3,1.623348896E-3
2.509152252E0,-1.221694518E-3,1.527118147E-4,0.000000000E0,1.231202012E-3
2.511597565E0,0.000000000E0,-1.068982761E-3,-1.221694518E-3,1.623348896E-3
2.514041940E0,-1.221694518E-3,1.527118147E-4,0.000000000E0,1.231202012E-3
2.516485585E0,0.000000000E0,1.374406274E-3,0.000000000E0,1.374406274E-3
2.518930013E0,0.000000000E0,1.374406274E-3,1.221694518E-3,1.838893717E-3
2.521375325E0,0.000000000E0,-1.068982761E-3,0.000000000E0,1.068982761E-3
2.523819700E0,-1.221694518E-3,1.374406274E-3,0.000000000E0,1.838893717E-3
2.526263346E0,-2.443389036E-3,1.374406274E-3,0.000000000E0,2.803416235E-3
2.528707773E0,-1.221694518E-3,1.527118147E-4,0.000000000E0,1.231202012E-3
2.531153085E0,-1.221694518E-3,1.527118147E-4,-2.443389036E-3,2.736057085E-3
2.533597460E0,-1.221694518E-3,1.527118147E-4,1.221694518E-3,1.734472798E-3
2.536041106E0,0.000000000E0,1.527118147E-4,0.000000000E0,1.527118147E-4
2.538485533E0,0.000000000E0,1.527118147E-4,2.443389036E-3,2.448156629E-3
2.540930846E0,0.000000000E0,-2.290677279E-3,-1.221694518E-3,2.596100902E-3
2.543375221E0,1.221694518E-3,1.527118147E-4,-1.221694518E-3,1.734472798E-3
2.545818867E0,0.000000000E0,1.527118147E-4,1.221694518E-3,1.231202012E-3
2.548263294E0,-1.221694518E-3,1.527118147E-4,0.000000000E0,1.231202012E-3
2.550708606E0,-1.221694518E-3,-1.068982761E-3,0.000000000E0,1.623348896E-3
2.553152981E0,-1.221694518E-3,1.374406274E-3,0.000000000E0,1.838893717E-3
2.555596627E0,-2.443389036E-3,1.374406274E-3,1.221694518E-3,3.058051681E-3
2.558041054E0,-1.221694518E-3,1.374406274E-3,-1.221694518E-3,2.207729059E-3
2.560486367E0,-1.221694518E-3,1.527118147E-4,0.000000000E0,1.231202012E-3
2.562930742E0,-1.221694518E-3,-1.068982761E-3,-1.221694518E-3,2.031698583E-3
2.565374388E0,-1.221694518E-3,1.527118147E-4,0.000000000E0,1.231202012E-3
2.567818815E0,-2.443389036E-3,1.527118147E-4,0.000000000E0,2.448156629E-3
2.570264127E0,-1.221694518E-3,1.527118147E-4,-2.443389036E-3,2.736057085E-3
2.572708502E0,-1.221694518E-3,1.527118147E-4,0.000000000E0,1.231202012E-3
2.575152148E0,-1.221694518E-3,-1.068982761E-3,0.000000000E0,1.623348896E-3
2.577596575E0,0.000000000E0,1.527118147E-4,-1.221694518E-3,1.231202012E-3
2.580041888E0,0.000000000E0,1.527118147E-4,-1.221694518E-3,1.231202012E-3
2.582486263E0,1.221694518E-3,-2.290677279E-3,1.221694518E-3,2.869194554E-3
2.584929908E0,1.221694518E-3,-1.068982761E-3,0.000000000E0,1.623348896E-3
2.587374335E0,1.221694518E-3,1.527118147E-4,1.221694518E-3,1.734472798E-3
2.589819648E0,-1.221694518E-3,1.374406274E-3,0.000000000E0,1.838893717E-3
2.592264023E0,-1.221694518E-3,2.596100792E-3,0.000000000E0,2.869194455E-3
2.594707669E0,0.000000000E0,1.374406274E-3,1.221694518E-3,1.838893717E-3
2.597152096E0,0.000000000E0,1.527118147E-4,0.000000000E0,1.527118147E-4
2.599597408E0,0.000000000E0,1.374406274E-3,0.000000000E0,1.374406274E-3
2.602041783E0,0.000000000E0,1.374406274E-3,1.221694518E-3,1.838893717E-3
2.604485429E0,0.000000000E0,1.374406274E-3,0.000000000E0,1.374406274E-3
2.606929856E0,0.000000000E0,1.374406274E-3,-1.221694518E-3,1.838893717E-3
2.609375169E0,0.000000000E0,1.527118147E-4,-1.221694518E-3,1.231202012E-3
2.611819544E0,0.000000000E0,1.374406274E-3,1.221694518E-3,1.838893717E-3
2.614263190E0,0.000000000E0,1.374406274E-3,1.221694518E-3,1.838893717E-3
2.616707617E0,0.000000000E0,-1.068982761E-3,0.000000000E0,1.068982761E-3
2.619152929E0,0.000000000E0,1.374406274E-3,-2.443389036E-3,2.803416235E-3
2.621597304E0,-2.443389036E-3,1.374406274E-3,-1.221694518E-3,3.058051681E-3
2.624040950E0,-2.443389036E-3,1.374406274E-3,1.221694518E-3,3.058051681E-3
2.626485377E0,0.000000000E0,1.527118147E-4,0.000000000E0,1.527118147E-4
2.628930690E0,0.000000000E0,1.527118147E-4,-1.221694518E-3,1.231202012E-3
2.631375065E0,-1.221694518E-3,1.527118147E-4,-1.221694518E-3,1.734472798E-3
2.633818710E0,-1.221694518E-3,1.527118147E-4,0.000000000E0,1.231202012E-3
2.636263138E0,0.000000000E0,1.374406274E-3,0.000000000E0,1.374406274E-3
2.638708450E0,-1.221694518E-3,1.374406274E-3,-1.221694518E-3,2.207729059E-3
2.641152825E0,-1.221694518E-3,1.527118147E-4,0.000000000E0,1.231202012E-3
2.643596471E0,-1.221694518E-3,-1.068982761E-3,1.221694518E-3,2.031698583E-3
2.646040898E0,0.000000000E0,1.374406274E-3,0.000000000E0,1.374406274E-3
2.648486210E0,-1.221694518E-3,1.527118147E-4,-1.221694518E-3,1.734472798E-3
2.650930585E0,-1.221694518E-3,1.527118147E-4,0.000000000E0,1.231202012E-3
2.653374231E0,0.000000000E0,1.527118147E-4,1.221694518E-3,1.231202012E-3
2.655818658E0,0.000000000E0,1.527118147E-4,1.221694518E-3,1.231202012E-3
2.658263971E0,0.000000000E0,-1.068982761E-3,-1.221694518E-3,1.623348896E-3
2.660708346E0,0.000000000E0,1.527118147E-4,-1.221694518E-3,1.231202012E-3
2.663151992E0,1.221694518E-3,-2.290677279E-3,0.000000000E0,2.596100902E-3
2.665596419E0,-1.221694518E-3,1.527118147E-4,1.221694518E-3,1.734472798E-3
2.668041731E0,-2.443389036E-3,1.374406274E-3,-4.886778072E-3,5.633803556E-3
2.670486106E0,0.000000000E0,1.527118147E-4,-1.221694518E-3,1.231202012E-3
2.672929752E0,-1.221694518E-3,1.527118147E-4,-1.221694518E-3,1.734472798E-3
2.675374179E0,0.000000000E0,1.374406274E-3,0.000000000E0,1.374406274E-3
2.677819492E0,1.221694518E-3,1.527118147E-4,0.000000000E0,1.231202012E-3
2.680263867E0,0.000000000E0,1.527118147E-4,-1.221694518E-3,1.231202012E-3
2.682707513E0,-1.221694518E-3,1.374406274E-3,-1.221694518E-3,2.207729059E-3
2.685151940E0,0.000000000E0,1.374406274E-3,-2.443389036E-3,2.803416235E-3
2.687597252E0,0.000000000E0,1.374406274E-3,0.000000000E0,1.374406274E-3
2.690041627E0,0.000000000E0,1.374406274E-3,0.000000000E0,1.374406274E-3
2.692485273E0,-1.221694518E-3,1.374406274E-3,-1.221694518E-3,2.207729059E-3
2.694929700E0,0.000000000E0,1.374406274E-3,-1.221694518E-3,1.838893717E-3
2.697375013E0,-1.221694518E-3,1.527118147E-4,-2.443389036E-3,2.736057085E-3
2.699819388E0,1.221694518E-3,-1.068982761E-3,0.000000000E0,1.623348896E-3
2.702263033E0,0.000000000E0,1.527118147E-4,1.221694518E-3,1.231202012E-3
2.704707460E0,-1.221694518E-3,2.596100792E-3,0.000000000E0,2.869194455E-3
2.707152773E0,0.000000000E0,1.374406274E-3,-1.221694518E-3,1.838893717E-3
2.709597148E0,-1.221694518E-3,1.527118147E-4,0.000000000E0,1.231202012E-3
2.712040794E0,0.000000000E0,1.527118147E-4,0.000000000E0,1.527118147E-4
2.714485221E0,-1.221694518E-3,1.527118147E-4,0.000000000E0,1.231202012E-3
2.716930533E0,-2.443389036E-3,2.596100792E-3,-1.221694518E-3,3.768610725E-3
2.719374908E0,1.221694518E-3,1.527118147E-4,2.443389036E-3,2.736057085E-3
2.721818554E0,0.000000000E0,1.374406274E-3,0.000000000E0,1.374406274E-3
2.724262981E0,0.000000000E0,1.374406274E-3,1.221694518E-3,1.838893717E-3
2.726708294E0,0.000000000E0,1.527118147E-4,-1.221694518E-3,1.231202012E-3
2.729152669E0,1.221694518E-3,1.527118147E-4,0.000000000E0,1.231202012E-3
2.731596315E0,0.000000000E0,1.374406274E-3,-1.221694518E-3,1.838893717E-3
2.734040742E0,0.000000000E0,1.527118147E-4,0.000000000E0,1.527118147E-4
2.736486054E0,-1.221694518E-3,1.374406274E-3,1.221694518E-3,2.207729059E-3
2.738930429E0,0.000000000E0,1.527118147E-4,1.221694518E-3,1.231202012E-3
2.741374075E0,0.000000000E0,1.527118147E-4,0.000000000E0,1.527118147E-4
2.743818502E0,0.000000000E0,1.527118147E-4,0.000000000E0,1.527118147E-4
2.746263815E0,0.000000000E0,1.374406274E-3,0.000000000E0,1.374406274E-3
2.748708190E0,0.000000000E0,1.374406274E-3,0.000000000E0,1.374406274E-3
2.751151835E0,0.000000000E0,1.527118147E-4,0.000000000E0,1.527118147E-4
2.753596263E0,-1.221694518E-3,1.527118147E-4,-1.221694518E-3,1.734472798E-3
2.756041575E0,1.221694518E-3,-1.068982761E-3,0.000000000E0,1.623348896E-3
2.758485950E0,0.000000000E0,-1.068982761E-3,-1.221694518E-3,1.623348896E-3
2.760929596E0,1.221694518E-3,-2.290677279E-3,-1.221694518E-3,2.869194554E-3
2.763374023E0,0.000000000E0,-1.068982761E-3,-2.443389036E-3,2.666997211E-3
2.765819335E0,0.000000000E0,1.527118147E-4,1.221694518E-3,1.231202012E-3
2.768263710E0,0.000000000E0,-1.068982761E-3,-1.221694518E-3,1.623348896E-3
2.770707356E0,-1.221694518E-3,3.817795310E-3,0.000000000E0,4.008503277E-3
2.773151783E0,0.000000000E0,1.527118147E-4,-1.221694518E-3,1.231202012E-3
2.775597096E0,-1.221694518E-3,1.527118147E-4,0.000000000E0,1.231202012E-3
2.778041471E0,0.000000000E0,1.374406274E-3,1.221694518E-3,1.838893717E-3
2.780485117E0,0.000000000E0,1.374406274E-3,-1.221694518E-3,1.838893717E-3
2.782929544E0,0.000000000E0,1.527118147E-4,0.000000000E0,1.527118147E-4
2.785374856E0,-1.221694518E-3,1.374406274E-3,0.000000000E0,1.838893717E-3
2.787819231E0,-1.221694518E-3,1.374406274E-3,0.000000000E0,1.838893717E-3
2.790262877E0,0.000000000E0,1.527118147E-4,0.000000000E0,1.527118147E-4
2.792707304E0,-1.221694518E-3,-1.068982761E-3,-1.221694518E-3,2.031698583E-3
2.795152617E0,0.000000000E0,1.374406274E-3,-2.443389036E-3,2.803416235E-3
2.797596992E0,0.000000000E0,1.527118147E-4,-1.221694518E-3,1.231202012E-3
2.800040638E0,-1.221694518E-3,1.527118147E-4,0.000000000E0,1.231202012E-3
2.802485065E0,0.000000000E0,1.374406274E-3,-1.221694518E-3,1.838893717E-3
2.804930377E0,0.000000000E0,1.527118147E-4,-1.221694518E-3,1.231202012E-3
2.807374752E0,1.221694518E-3,-1.068982761E-3,-1.221694518E-3,2.031698583E-3
2.809818398E0,1.221694518E-3,-1.068982761E-3,1.221694518E-3,2.031698583E-3
2.812262825E0,1.221694518E-3,-1.068982761E-3,0.000000000E0,1.623348896E-3
2.814708138E0,0.000000000E0,1.527118147E-4,0.000000000E0,1.527118147E-4
2.817152513E0,0.000000000E0,1.374406274E-3,0.000000000E0,1.374406274E-3
2.819596158E0,1.221694518E-3,-1.068982761E-3,-1.221694518E-3,2.031698583E-3
2.822040585E0,1.221694518E-3,-1.068982761E-3,-1.221694518E-3,2.031698583E-3
2.824485898E0,0.000000000E0,1.374406274E-3,1.221694518E-3,1.838893717E-3
2.826930273E0,0.000000000E0,1.374406274E-3,0.000000000E0,1.374406274E-3
2.829373919E0,0.000000000E0,1.374406274E-3,-2.443389036E-3,2.803416235E-3
2.831818346E0,0.000000000E0,1.374406274E-3,0.000000000E0,1.374406274E-3
2.834263658E0,-1.221694518E-3,1.374406274E-3,0.000000000E0,1.838893717E-3
2.836708033E0,-1.221694518E-3,1.527118147E-4,0.000000000E0,1.231202012E-3
2.839151679E0,0.000000000E0,-1.068982761E-3,-1.221694518E-3,1.623348896E-3
2.841596106E0,-1.221694518E-3,1.527118147E-4,-1.221694518E-3,1.734472798E-3
2.844041419E0,0.000000000E0,1.527118147E-4,0.000000000E0,1.527118147E-4
2.846485794E0,0.000000000E0,2.596100792E-3,0.000000000E0,2.596100792E-3
2.848929440E0,-1.221694518E-3,1.374406274E-3,-1.221694518E-3,2.207729059E-3
2.851373867E0,0.000000000E0,1.374406274E-3,-1.221694518E-3,1.838893717E-3
2.853819179E0,1.221694518E-3,1.527118147E-4,0.000000000E0,1.231202012E-3
2.856263554E0,0.000000000E0,1.527118147E-4,-1.221694518E-3,1.231202012E-3
2.858707200E0,-1.221694518E-3,1.527118147E-4,0.000000000E0,1.231202012E-3
2.861151627E0,0.000000000E0,-1.068982761E-3,1.221694518E-3,1.623348896E-3
2.863596888E0,-1.221694518E-3,1.527118147E-4,-1.221694518E-3,1.734472798E-3
2.866041315E0,0.000000000E0,1.527118147E-4,-1.221694518E-3,1.231202012E-3
2.868484960E0,-1.221694518E-3,1.374406274E-3,-1.221694518E-3,2.207729059E-3
2.870929388E0,0.000000000E0,1.527118147E-4,-1.221694518E-3,1.231202012E-3
2.873374700E0,0.000000000E0,1.527118147E-4,0.000000000E0,1.527118147E-4
2.875819075E0,0.000000000E0,1.374406274E-3,0.000000000E0,1.374406274E-3
2.878262721E0,-1.221694518E-3,1.527118147E-4,-1.221694518E-3,1.734472798E-3
2.880707148E0,-1.221694518E-3,-1.068982761E-3,0.000000000E0,1.623348896E-3
2.883152460E0,0.000000000E0,1.527118147E-4,-1.221694518E-3,1.231202012E-3
2.885596835E0,0.000000000E0,1.527118147E-4,1.221694518E-3,1.231202012E-3
2.888040481E0,-1.221694518E-3,1.374406274E-3,0.000000000E0,1.838893717E-3
2.890484908E0,-2.443389036E-3,1.374406274E-3,-1.221694518E-3,3.058051681E-3
2.892930169E0,-2.443389036E-3,1.374406274E-3,0.000000000E0,2.803416235E-3
2.895374596E0,-1.221694518E-3,1.374406274E-3,1.221694518E-3,2.207729059E-3
2.897818242E0,-1.221694518E-3,1.374406274E-3,1.221694518E-3,2.207729059E-3
2.900262669E0,-1.221694518E-3,1.527118147E-4,0.000000000E0,1.231202012E-3
2.902707929E0,0.000000000E0,1.374406274E-3,1.221694518E-3,1.838893717E-3
2.905152356E0,0.000000000E0,1.374406274E-3,0.000000000E0,1.374406274E-3
2.907596002E0,1.221694518E-3,1.527118147E-4,-1.221694518E-3,1.734472798E-3
2.910040429E0,0.000000000E0,-1.068982761E-3,0.000000000E0,1.068982761E-3
2.912485742E0,-1.221694518E-3,1.527118147E-4,0.000000000E0,1.231202012E-3
2.914930117E0,-1.221694518E-3,1.527118147E-4,-2.443389036E-3,2.736057085E-3
2.917373763E0,-1.221694518E-3,1.527118147E-4,-3.665083554E-3,3.866354336E-3
2.919818190E0,-1.221694518E-3,-1.068982761E-3,0.000000000E0,1.623348896E-3
2.922263450E0,-1.221694518E-3,1.527118147E-4,-2.443389036E-3,2.736057085E-3
2.924707877E0,0.000000000E0,1.527118147E-4,-2.443389036E-3,2.448156629E-3
2.927151523E0,0.000000000E0,1.527118147E-4,0.000000000E0,1.527118147E-4
2.929595950E0,0.000000000E0,1.374406274E-3,-1.221694518E-3,1.838893717E-3
2.932041210E0,0.000000000E0,1.374406274E-3,0.000000000E0,1.374406274E-3
2.934485638E0,-1.221694518E-3,1.374406274E-3,1.221694518E-3,2.207729059E-3
2.936929283E0,-1.221694518E-3,1.374406274E-3,-1.221694518E-3,2.207729059E-3
2.939373710E0,-1.221694518E-3,1.527118147E-4,0.000000000E0,1.231202012E-3
2.941818971E0,-1.221694518E-3,1.374406274E-3,1.221694518E-3,2.207729059E-3
2.944263398E0,0.000000000E0,1.374406274E-3,0.000000000E0,1.374406274E-3
2.946707044E0,-1.221694518E-3,1.527118147E-4,0.000000000E0,1.231202012E-3
2.949151471E0,0.000000000E0,1.527118147E-4,-1.221694518E-3,1.231202012E-3
2.951596731E0,-1.221694518E-3,2.596100792E-3,-1.221694518E-3,3.118463454E-3
2.954041158E0,0.000000000E0,1.527118147E-4,-1.221694518E-3,1.231202012E-3
2.956484804E0,0.000000000E0,1.527118147E-4,-1.221694518E-3,1.231202012E-3
2.958929231E0,-1.221694518E-3,1.527118147E-4,-1.221694518E-3,1.734472798E-3
2.961374492E0,0.000000000E0,1.527118147E-4,-2.443389036E-3,2.448156629E-3
2.963818919E0,-1.221694518E-3,1.527118147E-4,-1.221694518E-3,1.734472798E-3
2.966262565E0,0.000000000E0,-2.290677279E-3,-3.665083554E-3,4.322041167E-3
2.968706992E0,1.221694518E-3,-2.290677279E-3,0.000000000E0,2.596100902E-3
2.971152252E0,0.000000000E0,1.374406274E-3,1.221694518E-3,1.838893717E-3
2.973596679E0,-1.221694518E-3,1.374406274E-3,0.000000000E0,1.838893717E-3
2.976040325E0,0.000000000E0,1.527118147E-4,0.000000000E0,1.527118147E-4
2.978484752E0,-2.443389036E-3,1.527118147E-4,1.221694518E-3,2.736057085E-3
2.980930013E0,-1.221694518E-3,2.596100792E-3,0.000000000E0,2.869194455E-3
2.983374440E0,0.000000000E0,1.527118147E-4,0.000000000E0,1.527118147E-4
2.985818085E0,0.000000000E0,1.527118147E-4,-1.221694518E-3,1.231202012E-3
2.988262513E0,1.221694518E-3,-1.068982761E-3,0.000000000E0,1.623348896E-3
2.990707773E0,0.000000000E0,1.527118147E-4,3.665083554E-3,3.668263670E-3
2.993152200E0,0.000000000E0,-1.068982761E-3,1.221694518E-3,1.623348896E-3
2.995595846E0,1.221694518E-3,1.374406274E-3,0.000000000E0,1.838893717E-3
2.998040273E0,0.000000000E0,1.527118147E-4,-1.221694518E-3,1.231202012E-3
3.000485533E0,1.221694518E-3,1.527118147E-4,2.443389036E-3,2.736057085E-3
3.002929960E0,0.000000000E0,1.374406274E-3,1.221694518E-3,1.838893717E-3
3.005373606E0,0.000000000E0,1.527118147E-4,-2.443389036E-3,2.448156629E-3
3.007818033E0,0.000000000E0,1.527118147E-4,-2.443389036E-3,2.448156629E-3
3.010263294E0,0.000000000E0,-1.068982761E-3,1.221694518E-3,1.623348896E-3
3.012707721E0,-1.221694518E-3,-1.068982761E-3,1.221694518E-3,2.031698583E-3
3.015151367E0,-1.221694518E-3,1.527118147E-4,0.000000000E0,1.231202012E-3
3.017595794E0,-1.221694518E-3,-1.068982761E-3,0.000000000E0,1.623348896E-3
3.020041054E0,0.000000000E0,1.374406274E-3,-1.221694518E-3,1.838893717E-3
3.022485429E0,0.000000000E0,1.374406274E-3,0.000000000E0,1.374406274E-3
3.024929127E0,0.000000000E0,1.527118147E-4,0.000000000E0,1.527118147E-4
3.027373554E0,0.000000000E0,-1.068982761E-3,-1.221694518E-3,1.623348896E-3
3.029818815E0,-1.221694518E-3,1.527118147E-4,-2.443389036E-3,2.736057085E-3
3.032263242E0,0.000000000E0,1.527118147E-4,-1.221694518E-3,1.231202012E-3
3.034706888E0,-1.221694518E-3,1.527118147E-4,-1.221694518E-3,1.734472798E-3
3.037151315E0,-1.221694518E-3,1.374406274E-3,0.000000000E0,1.838893717E-3
3.039596575E0,-1.221694518E-3,1.527118147E-4,0.000000000E0,1.231202012E-3
3.042041002E0,0.000000000E0,1.527118147E-4,0.000000000E0,1.527118147E-4
3.044484596E0,0.000000000E0,1.374406274E-3,-1.221694518E-3,1.838893717E-3
3.046929127E0,-1.221694518E-3,-1.068982761E-3,-1.221694518E-3,2.031698583E-3
3.049374335E0,-1.221694518E-3,1.527118147E-4,-2.443389036E-3,2.736057085E-3
3.051818763E0,-1.221694518E-3,1.527118147E-4,-1.221694518E-3,1.734472798E-3
3.054262356E0,-1.221694518E-3,1.527118147E-4,0.000000000E0,1.231202012E-3
3.056706888E0,-1.221694518E-3,1.374406274E-3,1.221694518E-3,2.207729059E-3
3.059152096E0,1.221694518E-3,-1.068982761E-3,0.000000000E0,1.623348896E-3
3.061596471E0,0.000000000E0,1.527118147E-4,2.443389036E-3,2.448156629E-3
3.064040169E0,0.000000000E0,1.374406274E-3,1.221694518E-3,1.838893717E-3
3.066484596E0,0.000000000E0,1.527118147E-4,-1.221694518E-3,1.231202012E-3
3.068929856E0,-1.221694518E-3,1.527118147E-4,-2.443389036E-3,2.736057085E-3
3.071374231E0,1.221694518E-3,1.527118147E-4,0.000000000E0,1.231202012E-3
3.073817929E0,1.221694518E-3,-1.068982761E-3,0.000000000E0,1.623348896E-3
3.076262356E0,-1.221694518E-3,1.527118147E-4,-1.221694518E-3,1.734472798E-3
3.078707617E0,-1.221694518E-3,1.374406274E-3,0.000000000E0,1.838893717E-3
3.081151992E0,0.000000000E0,1.527118147E-4,-1.221694518E-3,1.231202012E-3
3.083595638E0,0.000000000E0,-1.068982761E-3,0.000000000E0,1.068982761E-3
3.086040169E0,0.000000000E0,1.527118147E-4,-1.221694518E-3,1.231202012E-3
3.088485377E0,-1.221694518E-3,1.527118147E-4,0.000000000E0,1.231202012E-3
3.090929752E0,0.000000000E0,1.374406274E-3,-1.221694518E-3,1.838893717E-3
3.093373398E0,-1.221694518E-3,2.596100792E-3,1.221694518E-3,3.118463454E-3
3.095817929E0,0.000000000E0,1.374406274E-3,0.000000000E0,1.374406274E-3
3.098263138E0,0.000000000E0,1.527118147E-4,1.221694518E-3,1.231202012E-3
3.100707513E0,0.000000000E0,-1.068982761E-3,2.443389036E-3,2.666997211E-3
3.103151158E0,0.000000000E0,1.527118147E-4,0.000000000E0,1.527118147E-4
3.105595690E0,0.000000000E0,1.527118147E-4,-1.221694518E-3,1.231202012E-3
3.108040898E0,-1.221694518E-3,1.374406274E-3,0.000000000E0,1.838893717E-3
3.110485273E0,-1.221694518E-3,1.374406274E-3,-1.221694518E-3,2.207729059E-3
3.112928919E0,-1.221694518E-3,1.527118147E-4,-1.221694518E-3,1.734472798E-3
3.115373450E0,0.000000000E0,-2.290677279E-3,-2.443389036E-3,3.349231610E-3
3.117818658E0,1.221694518E-3,-1.068982761E-3,1.221694518E-3,2.031698583E-3
3.120263033E0,0.000000000E0,1.527118147E-4,0.000000000E0,1.527118147E-4
3.122706679E0,0.000000000E0,1.374406274E-3,2.443389036E-3,2.803416235E-3
3.125151210E0,0.000000000E0,1.527118147E-4,0.000000000E0,1.527118147E-4
3.127596419E0,-1.221694518E-3,1.374406274E-3,0.000000000E0,1.838893717E-3
3.130040794E0,-1.221694518E-3,1.527118147E-4,0.000000000E0,1.231202012E-3
3.132484492E0,-1.221694518E-3,-1.068982761E-3,-2.443389036E-3,2.933498188E-3
3.134928919E0,0.000000000E0,1.374406274E-3,0.000000000E0,1.374406274E-3
3.137374179E0,0.000000000E0,1.374406274E-3,0.000000000E0,1.374406274E-3
3.139818554E0,-1.221694518E-3,1.527118147E-4,-2.443389036E-3,2.736057085E-3
3.142262200E0,-1.221694518E-3,1.527118147E-4,0.000000000E0,1.231202012E-3
3.144706731E0,-1.221694518E-3,-1.068982761E-3,1.221694518E-3,2.031698583E-3
3.147151940E0,-1.221694518E-3,1.527118147E-4,-1.221694518E-3,1.734472798E-3
3.149596315E0,-2.443389036E-3,1.527118147E-4,-3.665083554E-3,4.407528597E-3
3.152039960E0,-1.221694518E-3,1.527118147E-4,-1.221694518E-3,1.734472798E-3
3.154484492E0,-1.221694518E-3,1.527118147E-4,1.221694518E-3,1.734472798E-3
3.156929700E0,-1.221694518E-3,1.527118147E-4,0.000000000E0,1.231202012E-3
3.159374075E0,0.000000000E0,1.527118147E-4,0.000000000E0,1.527118147E-4
3.161817721E0,-1.221694518E-3,1.374406274E-3,-2.443389036E-3,3.058051681E-3
3.164262252E0,0.000000000E0,1.527118147E-4,0.000000000E0,1.527118147E-4
3.166707460E0,0.000000000E0,1.374406274E-3,0.000000000E0,1.374406274E-3
3.169151835E0,0.000000000E0,1.527118147E-4,-1.221694518E-3,1.231202012E-3
3.171595481E0,0.000000000E0,-1.068982761E-3,0.000000000E0,1.068982761E-3
3.174040013E0,0.000000000E0,1.527118147E-4,0.000000000E0,1.527118147E-4
3.176485221E0,0.000000000E0,-1.068982761E-3,-1.221694518E-3,1.623348896E-3
3.178929596E0,0.000000000E0,1.527118147E-4,1.221694518E-3,1.231202012E-3
3.181373242E0,-1.221694518E-3,1.374406274E-3,1.221694518E-3,2.207729059E-3
3.183817773E0,0.000000000E0,1.374406274E-3,0.000000000E0,1.374406274E-3
3.186262981E0,1.221694518E-3,1.374406274E-3,-1.221694518E-3,2.207729059E-3
3.188707356E0,0.000000000E0,-1.068982761E-3,0.000000000E0,1.068982761E-3
3.191151002E0,0.000000000E0,1.527118147E-4,1.221694518E-3,1.231202012E-3
3.193595429E0,-1.221694518E-3,1.374406274E-3,-1.221694518E-3,2.207729059E-3
3.196040742E0,0.000000000E0,1.374406274E-3,-2.443389036E-3,2.803416235E-3
3.198485117E0,0.000000000E0,1.374406274E-3,1.221694518E-3,1.838893717E-3
3.200928763E0,0.000000000E0,1.374406274E-3,-1.221694518E-3,1.838893717E-3
3.203373294E0,0.000000000E0,1.527118147E-4,0.000000000E0,1.527118147E-4
3.205818502E0,0.000000000E0,1.374406274E-3,-1.221694518E-3,1.838893717E-3
3.208262877E0,0.000000000E0,1.527118147E-4,2.443389036E-3,2.448156629E-3
3.210706523E0,1.221694518E-3,1.527118147E-4,1.221694518E-3,1.734472798E-3
3.213150950E0,0.000000000E0,1.374406274E-3,0.000000000E0,1.374406274E-3
3.215596263E0,0.000000000E0,1.527118147E-4,1.221694518E-3,1.231202012E-3
3.218040638E0,0.000000000E0,1.527118147E-4,2.443389036E-3,2.448156629E-3
3.220484283E0,0.000000000E0,1.527118147E-4,3.665083554E-3,3.668263670E-3
3.222928815E0,-1.221694518E-3,-1.068982761E-3,2.443389036E-3,2.933498188E-3
3.225374023E0,0.000000000E0,-1.068982761E-3,-1.221694518E-3,1.623348896E-3
3.227818398E0,0.000000000E0,-2.290677279E-3,1.221694518E-3,2.596100902E-3
3.230262044E0,-1.221694518E-3,1.374406274E-3,0.000000000E0,1.838893717E-3
3.232706471E0,-1.221694518E-3,1.374406274E-3,0.000000000E0,1.838893717E-3
3.235151783E0,0.000000000E0,1.374406274E-3,0.000000000E0,1.374406274E-3
3.237596158E0,0.000000000E0,-1.068982761E-3,0.000000000E0,1.068982761E-3
3.240039804E0,0.000000000E0,-1.068982761E-3,0.000000000E0,1.068982761E-3
3.242484231E0,-1.221694518E-3,1.527118147E-4,-1.221694518E-3,1.734472798E-3
3.244929544E0,0.000000000E0,1.527118147E-4,-1.221694518E-3,1.231202012E-3
3.247373919E0,2.443389036E-3,1.374406274E-3,0.000000000E0,2.803416235E-3
3.249817565E0,-1.221694518E-3,1.527118147E-4,0.000000000E0,1.231202012E-3
3.252262096E0,0.000000000E0,1.527118147E-4,0.000000000E0,1.527118147E-4
3.254707304E0,1.221694518E-3,-2.290677279E-3,-1.221694518E-3,2.869194554E-3
3.257151679E0,0.000000000E0,-1.068982761E-3,0.000000000E0,1.068982761E-3
3.259595325E0,-1.221694518E-3,1.527118147E-4,0.000000000E0,1.231202012E-3
3.262039752E0,-1.221694518E-3,-1.068982761E-3,0.000000000E0,1.623348896E-3
3.264485065E0,0.000000000E0,-1.068982761E-3,0.000000000E0,1.068982761E-3
3.266929440E0,0.000000000E0,-1.068982761E-3,2.443389036E-3,2.666997211E-3
3.269373085E0,-1.221694518E-3,1.374406274E-3,1.221694518E-3,2.207729059E-3
3.271817513E0,0.000000000E0,1.374406274E-3,0.000000000E0,1.374406274E-3
3.274262825E0,0.000000000E0,-1.068982761E-3,-2.443389036E-3,2.666997211E-3
3.276707200E0,1.221694518E-3,-1.068982761E-3,0.000000000E0,1.623348896E-3
3.279150846E0,-1.221694518E-3,2.596100792E-3,1.221694518E-3,3.118463454E-3
3.281595273E0,-1.221694518E-3,1.527118147E-4,0.000000000E0,1.231202012E-3
3.284040585E0,-1.221694518E-3,-1.068982761E-3,1.221694518E-3,2.031698583E-3
3.286484960E0,-1.221694518E-3,1.527118147E-4,0.000000000E0,1.231202012E-3
3.288928606E0,0.000000000E0,-1.068982761E-3,1.221694518E-3,1.623348896E-3
3.291373033E0,1.221694518E-3,1.527118147E-4,-1.221694518E-3,1.734472798E-3
3.293818346E0,0.000000000E0,1.374406274E-3,1.221694518E-3,1.838893717E-3
3.296262721E0,0.000000000E0,1.374406274E-3,1.221694518E-3,1.838893717E-3
3.298706367E0,0.000000000E0,1.527118147E-4,1.221694518E-3,1.231202012E-3
3.301150794E0,0.000000000E0,1.527118147E-4,-1.221694518E-3,1.231202012E-3
3.303596106E0,-1.221694518E-3,1.374406274E-3,0.000000000E0,1.838893717E-3
3.306040481E0,1.221694518E-3,-1.068982761E-3,-2.443389036E-3,2.933498188E-3
3.308484127E0,-1.221694518E-3,1.374406274E-3,0.000000000E0,1.838893717E-3
3.310928554E0,-1.221694518E-3,1.527118147E-4,-1.221694518E-3,1.734472798E-3
3.313373867E0,0.000000000E0,1.527118147E-4,1.221694518E-3,1.231202012E-3
3.315818242E0,-2.443389036E-3,1.374406274E-3,-1.221694518E-3,3.058051681E-3
3.318261888E0,-1.221694518E-3,1.527118147E-4,-1.221694518E-3,1.734472798E-3
3.320706315E0,-1.221694518E-3,1.374406274E-3,-2.443389036E-3,3.058051681E-3
3.323151627E0,-1.221694518E-3,1.527118147E-4,0.000000000E0,1.231202012E-3
3.325596002E0,-1.221694518E-3,1.527118147E-4,0.000000000E0,1.231202012E-3
3.328039648E0,1.221694518E-3,1.527118147E-4,-1.221694518E-3,1.734472798E-3
3.330484075E0,0.000000000E0,1.527118147E-4,1.221694518E-3,1.231202012E-3
3.332929388E0,-1.221694518E-3,1.527118147E-4,0.000000000E0,1.231202012E-3
3.335373763E0,-1.221694518E-3,1.374406274E-3,1.221694518E-3,2.207729059E-3
3.337817408E0,0.000000000E0,1.527118147E-4,0.000000000E0,1.527118147E-4
3.340261835E0,0.000000000E0,-1.068982761E-3,1.221694518E-3,1.623348896E-3
3.342707148E0,0.000000000E0,1.374406274E-3,0.000000000E0,1.374406274E-3
3.345151523E0,0.000000000E0,1.374406274E-3,-2.443389036E-3,2.803416235E-3
3.347595169E0,0.000000000E0,1.374406274E-3,0.000000000E0,1.374406274E-3
3.350039596E0,0.000000000E0,1.527118147E-4,0.000000000E0,1.527118147E-4
3.352484908E0,0.000000000E0,1.527118147E-4,0.000000000E0,1.527118147E-4
3.354929283E0,-1.221694518E-3,1.527118147E-4,-1.221694518E-3,1.734472798E-3
3.357372929E0,-1.221694518E-3,1.374406274E-3,0.000000000E0,1.838893717E-3
3.359817356E0,1.221694518E-3,1.527118147E-4,-1.221694518E-3,1.734472798E-3
3.362262669E0,1.221694518E-3,1.374406274E-3,0.000000000E0,1.838893717E-3
3.364707044E0,0.000000000E0,1.527118147E-4,0.000000000E0,1.527118147E-4
3.367150690E0,0.000000000E0,1.527118147E-4,-1.221694518E-3,1.231202012E-3
3.369595117E0,-1.221694518E-3,1.527118147E-4,-1.221694518E-3,1.734472798E-3
3.372040429E0,0.000000000E0,-1.068982761E-3,0.000000000E0,1.068982761E-3
3.374484804E0,1.221694518E-3,-2.290677279E-3,-1.221694518E-3,2.869194554E-3
3.376928450E0,-1.221694518E-3,1.527118147E-4,-1.221694518E-3,1.734472798E-3
3.379372877E0,0.000000000E0,1.374406274E-3,-1.221694518E-3,1.838893717E-3
3.381818190E0,1.221694518E-3,1.527118147E-4,0.000000000E0,1.231202012E-3
3.384262565E0,0.000000000E0,1.527118147E-4,-1.221694518E-3,1.231202012E-3
3.386706210E0,-1.221694518E-3,-1.068982761E-3,1.221694518E-3,2.031698583E-3
3.389150638E0,0.000000000E0,1.374406274E-3,1.221694518E-3,1.838893717E-3
3.391595950E0,0.000000000E0,1.374406274E-3,0.000000000E0,1.374406274E-3
3.394040325E0,0.000000000E0,1.527118147E-4,0.000000000E0,1.527118147E-4
3.396483971E0,0.000000000E0,1.374406274E-3,0.000000000E0,1.374406274E-3
3.398928398E0,0.000000000E0,1.527118147E-4,0.000000000E0,1.527118147E-4
3.401373710E0,0.000000000E0,-1.068982761E-3,0.000000000E0,1.068982761E-3
3.403818085E0,-1.221694518E-3,1.527118147E-4,1.221694518E-3,1.734472798E-3
3.406261731E0,0.000000000E0,1.527118147E-4,0.000000000E0,1.527118147E-4
3.408706158E0,0.000000000E0,-2.290677279E-3,0.000000000E0,2.290677279E-3
3.411151471E0,-1.221694518E-3,1.527118147E-4,0.000000000E0,1.231202012E-3
3.413595846E0,0.000000000E0,1.374406274E-3,0.000000000E0,1.374406274E-3
3.416039492E0,-1.221694518E-3,1.527118147E-4,-1.221694518E-3,1.734472798E-3
3.418483919E0,0.000000000E0,1.527118147E-4,0.000000000E0,1.527118147E-4
3.420929231E0,0.000000000E0,1.527118147E-4,1.221694518E-3,1.231202012E-3
3.423373606E0,0.000000000E0,1.527118147E-4,1.221694518E-3,1.231202012E-3
3.425817252E0,0.000000000E0,1.527118147E-4,0.000000000E0,1.527118147E-4
3.428261679E0,-1.221694518E-3,1.374406274E-3,-1.221694518E-3,2.207729059E-3
3.430706992E0,-1.221694518E-3,1.527118147E-4,0.000000000E0,1.231202012E-3
3.433151367E0,0.000000000E0,1.527118147E-4,1.221694518E-3,1.231202012E-3
3.435595013E0,1.221694518E-3,1.527118147E-4,0.000000000E0,1.231202012E-3
3.438039440E0,0.000000000E0,1.527118147E-4,1.221694518E-3,1.231202012E-3
3.440484700E0,0.000000000E0,1.527118147E-4,0.000000000E0,1.527118147E-4
3.442929127E0,-1.221694518E-3,1.527118147E-4,0.000000000E0,1.231202012E-3
3.445372773E0,0.000000000E0,1.374406274E-3,0.000000000E0,1.374406274E-3
3.447817200E0,0.000000000E0,2.596100792E-3,-1.221694518E-3,2.869194455E-3
3.450262460E0,-1.221694518E-3,1.527118147E-4,0.000000000E0,1.231202012E-3
3.452706888E0,-1.221694518E-3,1.527118147E-4,1.221694518E-3,1.734472798E-3
3.455150533E0,-1.221694518E-3,1.527118147E-4,-1.221694518E-3,1.734472798E-3
3.457594960E0,-1.221694518E-3,2.596100792E-3,0.000000000E0,2.869194455E-3
3.460040221E0,0.000000000E0,-1.068982761E-3,1.221694518E-3,1.623348896E-3
3.462484648E0,0.000000000E0,-1.068982761E-3,-1.221694518E-3,1.623348896E-3
3.464928294E0,1.221694518E-3,1.374406274E-3,1.221694518E-3,2.207729059E-3
3.467372721E0,0.000000000E0,1.527118147E-4,-1.221694518E-3,1.231202012E-3
3.469817981E0,-1.221694518E-3,1.374406274E-3,-1.221694518E-3,2.207729059E-3
3.472262408E0,-2.443389036E-3,1.527118147E-4,-1.221694518E-3,2.736057085E-3
3.474706054E0,0.000000000E0,1.527118147E-4,0.000000000E0,1.527118147E-4
3.477150481E0,1.221694518E-3,-1.068982761E-3,0.000000000E0,1.623348896E-3
3.479595742E0,-1.221694518E-3,2.596100792E-3,1.221694518E-3,3.118463454E-3
3.482040169E0,1.221694518E-3,-1.068982761E-3,2.443389036E-3,2.933498188E-3
3.484483815E0,-1.221694518E-3,1.527118147E-4,0.000000000E0,1.231202012E-3
3.486928242E0,-1.221694518E-3,1.374406274E-3,0.000000000E0,1.838893717E-3
3.489373502E0,0.000000000E0,1.374406274E-3,0.000000000E0,1.374406274E-3
3.491817929E0,0.000000000E0,1.527118147E-4,2.443389036E-3,2.448156629E-3
3.494261575E0,0.000000000E0,1.374406274E-3,1.221694518E-3,1.838893717E-3
3.496706002E0,0.000000000E0,1.374406274E-3,0.000000000E0,1.374406274E-3
3.499151263E0,0.000000000E0,1.527118147E-4,-1.221694518E-3,1.231202012E-3
3.501595638E0,-1.221694518E-3,-1.068982761E-3,-1.221694518E-3,2.031698583E-3
3.504039335E0,0.000000000E0,-1.068982761E-3,-1.221694518E-3,1.623348896E-3
3.506483763E0,1.221694518E-3,-1.068982761E-3,-1.221694518E-3,2.031698583E-3
3.508929023E0,1.221694518E-3,1.527118147E-4,1.221694518E-3,1.734472798E-3
3.511373450E0,-2.443389036E-3,1.527118147E-4,0.000000000E0,2.448156629E-3
3.513817096E0,-1.221694518E-3,1.374406274E-3,0.000000000E0,1.838893717E-3
3.516261523E0,-1.221694518E-3,1.527118147E-4,1.221694518E-3,1.734472798E-3
3.518706783E0,-1.221694518E-3,-1.068982761E-3,1.221694518E-3,2.031698583E-3
3.521151210E0,-1.221694518E-3,-1.068982761E-3,0.000000000E0,1.623348896E-3
3.523594856E0,0.000000000E0,-1.068982761E-3,0.000000000E0,1.068982761E-3
3.526039283E0,-1.221694518E-3,1.374406274E-3,0.000000000E0,1.838893717E-3
3.528484544E0,0.000000000E0,1.527118147E-4,1.221694518E-3,1.231202012E-3
3.530928971E0,-1.221694518E-3,1.374406274E-3,1.221694518E-3,2.207729059E-3
3.533372617E0,-1.221694518E-3,1.374406274E-3,-1.221694518E-3,2.207729059E-3
3.535817044E0,0.000000000E0,-1.068982761E-3,0.000000000E0,1.068982761E-3
3.538262304E0,0.000000000E0,1.527118147E-4,-2.443389036E-3,2.448156629E-3
3.540706679E0,0.000000000E0,1.527118147E-4,1.221694518E-3,1.231202012E-3
3.543150325E0,0.000000000E0,1.374406274E-3,0.000000000E0,1.374406274E-3
3.545594856E0,-2.443389036E-3,2.596100792E-3,0.000000000E0,3.565093169E-3
3.548040065E0,0.000000000E0,1.527118147E-4,-1.221694518E-3,1.231202012E-3
3.550484440E0,0.000000000E0,-1.068982761E-3,-2.443389036E-3,2.666997211E-3
3.552928085E0,0.000000000E0,-1.068982761E-3,1.221694518E-3,1.623348896E-3
3.555372617E0,0.000000000E0,1.374406274E-3,2.443389036E-3,2.803416235E-3
3.557817825E0,-1.221694518E-3,1.527118147E-4,-1.221694518E-3,1.734472798E-3
3.560262200E0,0.000000000E0,1.374406274E-3,0.000000000E0,1.374406274E-3
3.562705846E0,-1.221694518E-3,1.527118147E-4,0.000000000E0,1.231202012E-3
3.565150377E0,0.000000000E0,1.527118147E-4,-1.221694518E-3,1.231202012E-3
3.567595585E0,0.000000000E0,1.527118147E-4,-1.221694518E-3,1.231202012E-3
3.570039960E0,-1.221694518E-3,1.527118147E-4,0.000000000E0,1.231202012E-3
3.572483606E0,-1.221694518E-3,1.374406274E-3,0.000000000E0,1.838893717E-3
3.574928138E0,1.221694518E-3,1.527118147E-4,0.000000000E0,1.231202012E-3
3.577373346E0,0.000000000E0,1.527118147E-4,0.000000000E0,1.527118147E-4
3.579817721E0,1.221694518E-3,-1.068982761E-3,0.000000000E0,1.623348896E-3
3.582261367E0,0.000000000E0,-1.068982761E-3,1.221694518E-3,1.623348896E-3
3.584705898E0,-1.221694518E-3,1.527118147E-4,0.000000000E0,1.231202012E-3
3.587151106E0,1.221694518E-3,1.527118147E-4,0.000000000E0,1.231202012E-3
3.589595481E0,0.000000000E0,3.817795310E-3,0.000000000E0,3.817795310E-3
3.592039127E0,0.000000000E0,1.527118147E-4,0.000000000E0,1.527118147E-4
3.594483658E0,0.000000000E0,1.527118147E-4,0.000000000E0,1.527118147E-4
3.596928867E0,0.000000000E0,1.527118147E-4,0.000000000E0,1.527118147E-4
3.599373242E0,1.221694518E-3,-1.068982761E-3,-1.221694518E-3,2.031698583E-3
3.601816888E0,-1.221694518E-3,1.527118147E-4,-3.665083554E-3,3.866354336E-3
3.604261419E0,-1.221694518E-3,1.527118147E-4,0.000000000E0,1.231202012E-3
3.606706627E0,-1.221694518E-3,-1.068982761E-3,1.221694518E-3,2.031698583E-3
3.609151002E0,-1.221694518E-3,1.374406274E-3,1.221694518E-3,2.207729059E-3
3.611594648E0,-1.221694518E-3,1.527118147E-4,0.000000000E0,1.231202012E-3
3.614039179E0,0.000000000E0,1.527118147E-4,-2.443389036E-3,2.448156629E-3
3.616484388E0,0.000000000E0,1.374406274E-3,-1.221694518E-3,1.838893717E-3
3.618928763E0,-1.221694518E-3,-1.068982761E-3,0.000000000E0,1.623348896E-3
3.621372408E0,-2.443389036E-3,1.374406274E-3,-1.221694518E-3,3.058051681E-3
3.623816835E0,0.000000000E0,1.527118147E-4,0.000000000E0,1.527118147E-4
3.626262148E0,0.000000000E0,1.527118147E-4,0.000000000E0,1.527118147E-4
3.628706523E0,-2.443389036E-3,1.374406274E-3,1.221694518E-3,3.058051681E-3
3.631150169E0,0.000000000E0,1.527118147E-4,0.000000000E0,1.527118147E-4
3.633594596E0,0.000000000E0,1.527118147E-4,1.221694518E-3,1.231202012E-3
3.636039908E0,-1.221694518E-3,-1.068982761E-3,1.221694518E-3,2.031698583E-3
3.638484283E0,0.000000000E0,1.527118147E-4,0.000000000E0,1.527118147E-4
3.640927929E0,0.000000000E0,-1.068982761E-3,-1.221694518E-3,1.623348896E-3
3.643372356E0,0.000000000E0,1.374406274E-3,-2.443389036E-3,2.803416235E-3
3.645817669E0,0.000000000E0,1.374406274E-3,-1.221694518E-3,1.838893717E-3
3.648262044E0,0.000000000E0,1.527118147E-4,-1.221694518E-3,1.231202012E-3
3.650705690E0,0.000000000E0,1.527118147E-4,0.000000000E0,1.527118147E-4
3.653150117E0,0.000000000E0,1.527118147E-4,-1.221694518E-3,1.231202012E-3
3.655595429E0,0.000000000E0,1.527118147E-4,0.000000000E0,1.527118147E-4
3.658039804E0,-1.221694518E-3,-1.068982761E-3,-1.221694518E-3,2.031698583E-3
3.660483450E0,-1.221694518E-3,1.527118147E-4,-1.221694518E-3,1.734472798E-3
3.662927877E0,1.221694518E-3,1.527118147E-4,0.000000000E0,1.231202012E-3
3.665373190E0,0.000000000E0,1.527118147E-4,0.000000000E0,1.527118147E-4
3.667817565E0,1.221694518E-3,1.527118147E-4,0.000000000E0,1.231202012E-3
3.670261210E0,0.000000000E0,1.527118147E-4,0.000000000E0,1.527118147E-4
3.672705638E0,0.000000000E0,1.527118147E-4,-1.221694518E-3,1.231202012E-3
3.675150950E0,0.000000000E0,1.527118147E-4,0.000000000E0,1.527118147E-4
3.677595325E0,-1.221694518E-3,1.527118147E-4,0.000000000E0,1.231202012E-3
3.680038971E0,-1.221694518E-3,1.374406274E-3,0.000000000E0,1.838893717E-3
3.682483398E0,-1.221694518E-3,1.374406274E-3,1.221694518E-3,2.207729059E-3
3.684928710E0,0.000000000E0,1.374406274E-3,1.221694518E-3,1.838893717E-3
3.687373085E0,-1.221694518E-3,1.374406274E-3,1.221694518E-3,2.207729059E-3
3.689816731E0,1.221694518E-3,-1.068982761E-3,1.221694518E-3,2.031698583E-3
3.692261158E0,-1.221694518E-3,1.374406274E-3,0.000000000E0,1.838893717E-3
3.694706471E0,-2.443389036E-3,1.527118147E-4,0.000000000E0,2.448156629E-3
3.697150846E0,-2.443389036E-3,1.374406274E-3,0.000000000E0,2.803416235E-3
3.699594492E0,0.000000000E0,1.527118147E-4,-1.221694518E-3,1.231202012E-3
3.702038919E0,0.000000000E0,1.527118147E-4,1.221694518E-3,1.231202012E-3
3.704484231E0,0.000000000E0,1.527118147E-4,0.000000000E0,1.527118147E-4
3.706928606E0,1.221694518E-3,-1.068982761E-3,-1.221694518E-3,2.031698583E-3
3.709372252E0,1.221694518E-3,-1.068982761E-3,-1.221694518E-3,2.031698583E-3
3.711816679E0,0.000000000E0,-1.068982761E-3,1.221694518E-3,1.623348896E-3
3.714261992E0,0.000000000E0,-1.068982761E-3,0.000000000E0,1.068982761E-3
3.716706367E0,0.000000000E0,2.596100792E-3,-1.221694518E-3,2.869194455E-3
3.719150013E0,0.000000000E0,1.527118147E-4,0.000000000E0,1.527118147E-4
3.721594440E0,0.000000000E0,1.374406274E-3,2.443389036E-3,2.803416235E-3
3.724039752E0,0.000000000E0,1.527118147E-4,-1.221694518E-3,1.231202012E-3
3.726484127E0,0.000000000E0,1.527118147E-4,-1.221694518E-3,1.231202012E-3
3.728927773E0,0.000000000E0,1.527118147E-4,0.000000000E0,1.527118147E-4
3.731372200E0,-1.221694518E-3,1.527118147E-4,-2.443389036E-3,2.736057085E-3
3.733817513E0,-1.221694518E-3,1.527118147E-4,-2.443389036E-3,2.736057085E-3
3.736261888E0,-2.443389036E-3,2.596100792E-3,-1.221694518E-3,3.768610725E-3
3.738705533E0,0.000000000E0,1.527118147E-4,0.000000000E0,1.527118147E-4
3.741149960E0,1.221694518E-3,-1.068982761E-3,-1.221694518E-3,2.031698583E-3
3.743595273E0,-1.221694518E-3,1.374406274E-3,-2.443389036E-3,3.058051681E-3
3.746039648E0,0.000000000E0,1.527118147E-4,0.000000000E0,1.527118147E-4
3.748483294E0,-1.221694518E-3,-1.068982761E-3,-2.443389036E-3,2.933498188E-3
3.750927721E0,0.000000000E0,1.527118147E-4,0.000000000E0,1.527118147E-4
3.753373033E0,0.000000000E0,1.527118147E-4,-2.443389036E-3,2.448156629E-3
3.755817408E0,-1.221694518E-3,1.527118147E-4,-1.221694518E-3,1.734472798E-3
3.758261054E0,1.221694518E-3,1.527118147E-4,0.000000000E0,1.231202012E-3
3.760705481E0,0.000000000E0,1.527118147E-4,1.221694518E-3,1.231202012E-3
3.763150794E0,0.000000000E0,1.374406274E-3,0.000000000E0,1.374406274E-3
3.765595169E0,0.000000000E0,1.527118147E-4,0.000000000E0,1.527118147E-4
3.768038815E0,0.000000000E0,2.596100792E-3,2.443389036E-3,3.565093169E-3
3.770483242E0,0.000000000E0,1.527118147E-4,1.221694518E-3,1.231202012E-3
3.772928502E0,0.000000000E0,2.596100792E-3,0.000000000E0,2.596100792E-3
3.775372929E0,0.000000000E0,1.527118147E-4,1.221694518E-3,1.231202012E-3
3.777816575E0,0.000000000E0,1.527118147E-4,-1.221694518E-3,1.231202012E-3
3.780261002E0,0.000000000E0,1.527118147E-4,-1.221694518E-3,1.231202012E-3
3.782706263E0,-1.221694518E-3,1.374406274E-3,-2.443389036E-3,3.058051681E-3
3.785150690E0,-1.221694518E-3,1.527118147E-4,-1.221694518E-3,1.734472798E-3
3.787594335E0,0.000000000E0,-1.068982761E-3,0.000000000E0,1.068982761E-3
3.790038763E0,0.000000000E0,-1.068982761E-3,-1.221694518E-3,1.623348896E-3
3.792484075E0,0.000000000E0,-1.068982761E-3,0.000000000E0,1.068982761E-3
3.794928450E0,0.000000000E0,1.527118147E-4,-1.221694518E-3,1.231202012E-3
3.797372096E0,-1.221694518E-3,1.374406274E-3,-1.221694518E-3,2.207729059E-3
3.799816523E0,-1.221694518E-3,1.527118147E-4,0.000000000E0,1.231202012E-3
3.802261783E0,-2.443389036E-3,1.374406274E-3,0.000000000E0,2.803416235E-3
3.804706210E0,0.000000000E0,1.527118147E-4,-1.221694518E-3,1.231202012E-3
3.807149856E0,0.000000000E0,1.527118147E-4,-1.221694518E-3,1.231202012E-3
3.809594283E0,-1.221694518E-3,1.527118147E-4,0.000000000E0,1.231202012E-3
3.812039544E0,-2.443389036E-3,2.596100792E-3,-2.443389036E-3,4.322041102E-3
3.814483971E0,-1.221694518E-3,-1.068982761E-3,-1.221694518E-3,2.031698583E-3
3.816927617E0,0.000000000E0,1.527118147E-4,-1.221694518E-3,1.231202012E-3
3.819372044E0,0.000000000E0,-1.068982761E-3,-1.221694518E-3,1.623348896E-3
3.821817304E0,0.000000000E0,-1.068982761E-3,-1.221694518E-3,1.623348896E-3
3.824261731E0,-1.221694518E-3,1.527118147E-4,-1.221694518E-3,1.734472798E-3
3.826705377E0,-2.443389036E-3,1.374406274E-3,-2.443389036E-3,3.718775681E-3
3.829149804E0,-1.221694518E-3,-1.068982761E-3,0.000000000E0,1.623348896E-3
3.831595065E0,0.000000000E0,1.527118147E-4,0.000000000E0,1.527118147E-4
3.834039440E0,0.000000000E0,1.374406274E-3,0.000000000E0,1.374406274E-3
3.836483138E0,0.000000000E0,-1.068982761E-3,0.000000000E0,1.068982761E-3
3.838927565E0,-1.221694518E-3,1.527118147E-4,0.000000000E0,1.231202012E-3
3.841372825E0,0.000000000E0,1.527118147E-4,0.000000000E0,1.527118147E-4
3.843817200E0,0.000000000E0,1.374406274E-3,0.000000000E0,1.374406274E-3
3.846260898E0,-1.221694518E-3,-1.068982761E-3,1.221694518E-3,2.031698583E-3
3.848705325E0,0.000000000E0,-2.290677279E-3,0.000000000E0,2.290677279E-3
3.851150585E0,0.000000000E0,1.527118147E-4,0.000000000E0,1.527118147E-4
3.853595013E0,0.000000000E0,-1.068982761E-3,0.000000000E0,1.068982761E-3
3.856038606E0,0.000000000E0,1.374406274E-3,0.000000000E0,1.374406274E-3
3.858483138E0,0.000000000E0,1.374406274E-3,0.000000000E0,1.374406274E-3
3.860928346E0,-1.221694518E-3,1.527118147E-4,-1.221694518E-3,1.734472798E-3
3.863372721E0,-1.221694518E-3,1.374406274E-3,0.000000000E0,1.838893717E-3
3.865816367E0,0.000000000E0,-1.068982761E-3,-1.221694518E-3,1.623348896E-3
3.868260898E0,-1.221694518E-3,1.527118147E-4,-2.443389036E-3,2.736057085E-3
3.870706106E0,1.221694518E-3,-1.068982761E-3,0.000000000E0,1.623348896E-3
3.873150481E0,0.000000000E0,1.527118147E-4,-1.221694518E-3,1.231202012E-3
3.875594127E0,0.000000000E0,1.527118147E-4,-1.221694518E-3,1.231202012E-3
3.878038658E0,-1.221694518E-3,1.527118147E-4,-2.443389036E-3,2.736057085E-3
3.880483867E0,-1.221694518E-3,1.374406274E-3,0.000000000E0,1.838893717E-3
3.882928242E0,0.000000000E0,1.527118147E-4,0.000000000E0,1.527118147E-4
3.885371888E0,0.000000000E0,1.374406274E-3,0.000000000E0,1.374406274E-3
3.887816419E0,0.000000000E0,-1.068982761E-3,-1.221694518E-3,1.623348896E-3
3.890261627E0,0.000000000E0,1.374406274E-3,0.000000000E0,1.374406274E-3
3.892706002E0,0.000000000E0,1.374406274E-3,-1.221694518E-3,1.838893717E-3
3.895149648E0,1.221694518E-3,1.527118147E-4,1.221694518E-3,1.734472798E-3
3.897594179E0,0.000000000E0,1.527118147E-4,2.443389036E-3,2.448156629E-3
3.900039388E0,0.000000000E0,1.374406274E-3,0.000000000E0,1.374406274E-3
3.902483763E0,1.221694518E-3,1.527118147E-4,0.000000000E0,1.231202012E-3
3.904927408E0,0.000000000E0,1.374406274E-3,0.000000000E0,1.374406274E-3
3.907371835E0,-1.221694518E-3,1.527118147E-4,-1.221694518E-3,1.734472798E-3
3.909817148E0,-1.221694518E-3,-1.068982761E-3,-2.443389036E-3,2.933498188E-3
3.912261523E0,-1.221694518E-3,1.527118147E-4,1.221694518E-3,1.734472798E-3
3.914705169E0,-1.221694518E-3,1.374406274E-3,0.000000000E0,1.838893717E-3
3.917149700E0,1.221694518E-3,1.374406274E-3,0.000000000E0,1.838893717E-3
3.919594908E0,0.000000000E0,-2.290677279E-3,-2.443389036E-3,3.349231610E-3
3.922039283E0,0.000000000E0,1.527118147E-4,0.000000000E0,1.527118147E-4
3.924482929E0,-1.221694518E-3,1.374406274E-3,1.221694518E-3,2.207729059E-3
3.926927356E0,0.000000000E0,2.596100792E-3,-1.221694518E-3,2.869194455E-3
3.929372669E0,0.000000000E0,2.596100792E-3,1.221694518E-3,2.869194455E-3
3.931817044E0,0.000000000E0,1.527118147E-4,1.221694518E-3,1.231202012E-3
3.934260690E0,-1.221694518E-3,1.527118147E-4,1.221694518E-3,1.734472798E-3
3.936705117E0,-1.221694518E-3,1.374406274E-3,0.000000000E0,1.838893717E-3
3.939150429E0,0.000000000E0,1.527118147E-4,1.221694518E-3,1.231202012E-3
3.941594804E0,0.000000000E0,1.527118147E-4,0.000000000E0,1.527118147E-4
3.944038450E0,0.000000000E0,1.374406274E-3,0.000000000E0,1.374406274E-3
3.946482877E0,0.000000000E0,1.527118147E-4,1.221694518E-3,1.231202012E-3
3.948928190E0,0.000000000E0,1.527118147E-4,2.443389036E-3,2.448156629E-3
3.951372565E0,0.000000000E0,1.527118147E-4,1.221694518E-3,1.231202012E-3
3.953816210E0,0.000000000E0,1.527118147E-4,1.221694518E-3,1.231202012E-3
3.956260638E0,0.000000000E0,1.527118147E-4,1.221694518E-3,1.231202012E-3
3.958705950E0,-2.443389036E-3,1.527118147E-4,0.000000000E0,2.448156629E-3
3.961150325E0,0.000000000E0,1.527118147E-4,0.000000000E0,1.527118147E-4
3.963593971E0,0.000000000E0,1.374406274E-3,0.000000000E0,1.374406274E-3
3.966038398E0,2.443389036E-3,-1.068982761E-3,0.000000000E0,2.666997211E-3
3.968483710E0,0.000000000E0,1.527118147E-4,0.000000000E0,1.527118147E-4
3.970928085E0,-1.221694518E-3,1.374406274E-3,-1.221694518E-3,2.207729059E-3
3.973371731E0,0.000000000E0,1.527118147E-4,0.000000000E0,1.527118147E-4
3.975816158E0,-1.221694518E-3,1.527118147E-4,0.000000000E0,1.231202012E-3
3.978261471E0,1.221694518E-3,1.527118147E-4,-1.221694518E-3,1.734472798E-3
3.980705846E0,0.000000000E0,1.527118147E-4,0.000000000E0,1.527118147E-4
