"Time (s)","Acceleration x (m/s^2)","Acceleration y (m/s^2)","Acceleration z (m/s^2)"
2.241693700E-2,-2.243271172E-1,-1.196411327E-1,9.907182693E0
2.484219700E-2,-2.291127741E-1,-1.172483116E-1,9.921540260E0
2.726745800E-2,-2.219343036E-1,-1.124626622E-1,9.957432747E0
2.969271800E-2,-2.123630047E-1,-1.220339537E-1,9.988538742E0
3.211797900E-2,-2.195414752E-1,-1.076770201E-1,9.983753204E0
3.454198900E-2,-2.195414752E-1,-1.124626622E-1,9.981360435E0
3.696626000E-2,-2.195414752E-1,-1.292124242E-1,9.926325798E0
3.943896800E-2,-2.434697002E-1,-1.172483116E-1,9.888040543E0
4.191297900E-2,-2.362912297E-1,-1.148554832E-1,9.859326363E0
4.434610400E-2,-2.386840582E-1,-1.316052526E-1,9.828220367E0
4.677157200E-2,-2.195414752E-1,-9.092725813E-2,9.833005905E0
4.919698900E-2,-2.482553422E-1,-1.100698411E-1,9.828220367E0
5.162261400E-2,-2.530409992E-1,-8.614161611E-2,9.801898956E0
5.404813500E-2,-2.147558331E-1,-1.028913707E-1,9.811470032E0
5.647370800E-2,-2.291127741E-1,-1.004985496E-1,9.801898956E0
5.889933300E-2,-2.338984162E-1,-9.810572863E-2,9.813862801E0
6.132506200E-2,-2.362912297E-1,-1.124626622E-1,9.840184212E0
6.375089500E-2,-2.386840582E-1,-1.076770201E-1,9.835398674E0
6.617678100E-2,-2.171486616E-1,-9.571290761E-2,9.861719131E0
6.860511400E-2,-2.530409992E-1,-8.853443712E-2,9.844969749E0
7.102870800E-2,-2.267199457E-1,-9.092725813E-2,9.859326363E0
7.345469700E-2,-2.578266263E-1,-1.100698411E-1,9.868897438E0
7.588068700E-2,-2.362912297E-1,-1.124626622E-1,9.868897438E0
7.830662400E-2,-2.458625287E-1,-1.148554832E-1,9.861719131E0
8.073261400E-2,-2.338984162E-1,-1.076770201E-1,9.878469467E0
8.315860400E-2,-2.315055877E-1,-1.268195957E-1,9.883255005E0
8.558459300E-2,-2.338984162E-1,-1.076770201E-1,9.878469467E0
8.801053100E-2,-2.482553422E-1,-1.124626622E-1,9.892826080E0
9.043652000E-2,-2.267199457E-1,-1.028913707E-1,9.864111900E0
9.286251000E-2,-2.386840582E-1,-9.571290761E-2,9.880862236E0
9.528844700E-2,-2.386840582E-1,-8.853443712E-2,9.880862236E0
9.771443700E-2,-2.338984162E-1,-1.172483116E-1,9.871291161E0
1.001404270E-1,-2.482553422E-1,-1.052841991E-1,9.892826080E0
1.025664160E-1,-2.578266263E-1,-9.571290761E-2,9.892826080E0
1.049923540E-1,-2.362912297E-1,-1.028913707E-1,9.856933594E0
1.074183430E-1,-2.410768867E-1,-1.004985496E-1,9.835398674E0
1.098443330E-1,-2.386840582E-1,-8.853443712E-2,9.847362518E0
1.122702700E-1,-2.338984162E-1,-9.332008660E-2,9.859326363E0
1.146962600E-1,-2.147558331E-1,-1.028913707E-1,9.847362518E0
1.171222490E-1,-2.386840582E-1,-1.028913707E-1,9.844969749E0
1.195481870E-1,-2.147558331E-1,-1.004985496E-1,9.840184212E0
1.219741770E-1,-2.267199457E-1,-1.100698411E-1,9.837791443E0
1.244001660E-1,-2.506481707E-1,-1.196411327E-1,9.861719131E0
1.268261560E-1,-2.362912297E-1,-1.100698411E-1,9.866504669E0
1.292520930E-1,-2.171486616E-1,-1.148554832E-1,9.878469467E0
1.316780830E-1,-2.578266263E-1,-1.028913707E-1,9.871291161E0
1.341040720E-1,-2.673979402E-1,-1.100698411E-1,9.888040543E0
1.365300100E-1,-2.315055877E-1,-1.124626622E-1,9.883255005E0
1.389559990E-1,-2.243271172E-1,-1.004985496E-1,9.876076698E0
1.413819890E-1,-2.386840582E-1,-1.268195957E-1,9.873683929E0
1.438079790E-1,-2.123630047E-1,-1.220339537E-1,9.859326363E0
1.462339160E-1,-2.458625287E-1,-1.220339537E-1,9.856933594E0
1.486599060E-1,-2.410768867E-1,-1.172483116E-1,9.864111900E0
1.510858950E-1,-2.291127741E-1,-1.100698411E-1,9.849755287E0
1.535118330E-1,-2.123630047E-1,-1.172483116E-1,9.840184212E0
1.559378220E-1,-2.386840582E-1,-1.028913707E-1,9.840184212E0
1.583638120E-1,-2.530409992E-1,-8.135596663E-2,9.866504669E0
1.607898020E-1,-2.219343036E-1,-1.172483116E-1,9.856933594E0
1.632157390E-1,-2.315055877E-1,-8.374879509E-2,9.866504669E0
1.656417290E-1,-2.219343036E-1,-1.172483116E-1,9.871291161E0
1.680677180E-1,-2.147558331E-1,-1.028913707E-1,9.873683929E0
1.704936560E-1,-2.362912297E-1,-9.810572863E-2,9.866504669E0
1.729196450E-1,-2.219343036E-1,-9.332008660E-2,9.885647774E0
1.753456350E-1,-2.386840582E-1,-8.614161611E-2,9.885647774E0
1.777716240E-1,-2.338984162E-1,-9.332008660E-2,9.878469467E0
1.801975620E-1,-2.243271172E-1,-1.124626622E-1,9.876076698E0
1.826235520E-1,-2.530409992E-1,-1.196411327E-1,9.856933594E0
1.850495410E-1,-2.482553422E-1,-1.076770201E-1,9.864111900E0
1.874755310E-1,-2.626122832E-1,-1.028913707E-1,9.866504669E0
1.899014680E-1,-2.099701911E-1,-7.657032460E-2,9.861719131E0
1.923274580E-1,-2.386840582E-1,-8.135596663E-2,9.866504669E0
1.947534470E-1,-2.506481707E-1,-1.268195957E-1,9.866504669E0
1.971793850E-1,-2.386840582E-1,-1.148554832E-1,9.868897438E0
1.996053740E-1,-2.386840582E-1,-1.244267747E-1,9.883255005E0
2.020313640E-1,-2.386840582E-1,-1.028913707E-1,9.856933594E0
2.044573020E-1,-2.386840582E-1,-1.100698411E-1,9.873683929E0
2.068832910E-1,-2.458625287E-1,-1.052841991E-1,9.856933594E0
2.093092810E-1,-2.410768867E-1,-1.196411327E-1,9.871291161E0
2.117352700E-1,-2.219343036E-1,-1.052841991E-1,9.861719131E0
2.141612080E-1,-2.673979402E-1,-9.332008660E-2,9.842576981E0
2.165871970E-1,-2.195414752E-1,-1.028913707E-1,9.885647774E0
2.190131870E-1,-2.291127741E-1,-1.244267747E-1,9.866504669E0
2.214391240E-1,-2.243271172E-1,-1.028913707E-1,9.856933594E0
2.238651140E-1,-2.362912297E-1,-1.292124242E-1,9.864111900E0
2.262911040E-1,-2.410768867E-1,-1.076770201E-1,9.868897438E0
2.287170930E-1,-2.506481707E-1,-1.124626622E-1,9.871291161E0
2.311430310E-1,-2.506481707E-1,-1.076770201E-1,9.868897438E0
2.335690200E-1,-2.362912297E-1,-1.220339537E-1,9.868897438E0
2.359950100E-1,-2.267199457E-1,-1.124626622E-1,9.880862236E0
2.384209470E-1,-2.386840582E-1,-9.571290761E-2,9.880862236E0
2.408469370E-1,-2.315055877E-1,-1.052841991E-1,9.873683929E0
2.432729270E-1,-2.362912297E-1,-1.100698411E-1,9.866504669E0
2.456989160E-1,-2.506481707E-1,-9.810572863E-2,9.861719131E0
2.481248540E-1,-2.434697002E-1,-1.124626622E-1,9.888040543E0
2.505508430E-1,-2.315055877E-1,-1.244267747E-1,9.864111900E0
2.529768330E-1,-2.315055877E-1,-9.810572863E-2,9.864111900E0
2.554028220E-1,-2.195414752E-1,-1.028913707E-1,9.864111900E0
2.578287600E-1,-2.482553422E-1,-8.853443712E-2,9.861719131E0
2.602547490E-1,-2.554338276E-1,-1.004985496E-1,9.873683929E0
2.626807390E-1,-2.530409992E-1,-1.124626622E-1,9.878469467E0
2.651066770E-1,-2.482553422E-1,-1.124626622E-1,9.876076698E0
2.675326660E-1,-2.219343036E-1,-1.196411327E-1,9.888040543E0
2.699586560E-1,-2.386840582E-1,-9.810572863E-2,9.873683929E0
2.723846450E-1,-2.410768867E-1,-1.196411327E-1,9.873683929E0
2.748105830E-1,-2.338984162E-1,-9.571290761E-2,9.861719131E0
2.772365720E-1,-2.362912297E-1,-1.052841991E-1,9.864111900E0
2.796625620E-1,-2.338984162E-1,-1.052841991E-1,9.868897438E0
2.820884990E-1,-2.458625287E-1,-8.853443712E-2,9.868897438E0
2.845144890E-1,-2.434697002E-1,-9.810572863E-2,9.854540825E0
2.869404790E-1,-2.027917206E-1,-1.052841991E-1,9.871291161E0
2.893664680E-1,-2.315055877E-1,-1.124626622E-1,9.854540825E0
2.917924060E-1,-2.267199457E-1,-1.244267747E-1,9.859326363E0
2.942183950E-1,-2.386840582E-1,-1.124626622E-1,9.868897438E0
2.966443850E-1,-2.602194548E-1,-1.028913707E-1,9.885647774E0
2.990703220E-1,-2.219343036E-1,-1.004985496E-1,9.885647774E0
3.014963120E-1,-2.315055877E-1,-1.148554832E-1,9.876076698E0
3.039223020E-1,-2.243271172E-1,-1.052841991E-1,9.866504669E0
3.063482910E-1,-2.338984162E-1,-1.124626622E-1,9.859326363E0
3.087742290E-1,-2.362912297E-1,-1.076770201E-1,9.868897438E0
3.112002180E-1,-2.362912297E-1,-9.810572863E-2,9.859326363E0
3.136262080E-1,-2.410768867E-1,-1.124626622E-1,9.859326363E0
3.160521970E-1,-2.338984162E-1,-1.100698411E-1,9.854540825E0
3.184781350E-1,-2.482553422E-1,-1.124626622E-1,9.871291161E0
3.209041240E-1,-2.147558331E-1,-9.571290761E-2,9.868897438E0
3.233301140E-1,-2.386840582E-1,-1.004985496E-1,9.878469467E0
3.257560520E-1,-2.458625287E-1,-1.148554832E-1,9.873683929E0
3.281820410E-1,-2.338984162E-1,-1.196411327E-1,9.885647774E0
3.306080310E-1,-2.338984162E-1,-1.339980662E-1,9.885647774E0
3.330340200E-1,-2.243271172E-1,-1.028913707E-1,9.892826080E0
3.354599580E-1,-2.410768867E-1,-1.004985496E-1,9.856933594E0
3.378859470E-1,-2.506481707E-1,-1.028913707E-1,9.871291161E0
3.403119370E-1,-2.338984162E-1,-1.028913707E-1,9.868897438E0
3.427379270E-1,-2.530409992E-1,-1.052841991E-1,9.873683929E0
3.451638640E-1,-2.362912297E-1,-9.332008660E-2,9.868897438E0
3.475898540E-1,-2.291127741E-1,-1.124626622E-1,9.885647774E0
3.500158430E-1,-2.362912297E-1,-8.374879509E-2,9.864111900E0
3.524417810E-1,-2.434697002E-1,-1.076770201E-1,9.854540825E0
3.548677700E-1,-2.410768867E-1,-1.363908947E-1,9.876076698E0
3.572937600E-1,-1.980060786E-1,-1.124626622E-1,9.861719131E0
3.597197490E-1,-2.219343036E-1,-1.196411327E-1,9.864111900E0
3.621456870E-1,-2.291127741E-1,-1.124626622E-1,9.852148056E0
3.645716770E-1,-2.506481707E-1,-1.100698411E-1,9.861719131E0
3.669976660E-1,-2.362912297E-1,-9.810572863E-2,9.878469467E0
3.694236560E-1,-2.147558331E-1,-1.028913707E-1,9.873683929E0
3.718495930E-1,-2.410768867E-1,-1.220339537E-1,9.861719131E0
3.742755830E-1,-2.386840582E-1,-1.124626622E-1,9.856933594E0
3.767015720E-1,-2.243271172E-1,-1.124626622E-1,9.871291161E0
3.791275620E-1,-2.362912297E-1,-1.316052526E-1,9.871291161E0
3.815534990E-1,-2.267199457E-1,-9.092725813E-2,9.876076698E0
3.839794890E-1,-2.506481707E-1,-1.196411327E-1,9.868897438E0
3.864054790E-1,-2.458625287E-1,-1.004985496E-1,9.866504669E0
3.888314160E-1,-2.650051117E-1,-1.028913707E-1,9.892826080E0
3.912574060E-1,-2.506481707E-1,-1.316052526E-1,9.885647774E0
3.936833950E-1,-2.291127741E-1,-1.172483116E-1,9.871291161E0
3.961093850E-1,-2.219343036E-1,-1.004985496E-1,9.876076698E0
3.985353220E-1,-2.602194548E-1,-8.853443712E-2,9.866504669E0
4.009613120E-1,-2.530409992E-1,-1.268195957E-1,9.883255005E0
4.033873020E-1,-2.434697002E-1,-9.332008660E-2,9.885647774E0
4.058132910E-1,-2.386840582E-1,-1.124626622E-1,9.876076698E0
4.082392290E-1,-2.243271172E-1,-1.004985496E-1,9.876076698E0
4.106652180E-1,-2.195414752E-1,-8.853443712E-2,9.871291161E0
4.130912080E-1,-2.243271172E-1,-8.374879509E-2,9.873683929E0
4.155171450E-1,-2.338984162E-1,-1.148554832E-1,9.871291161E0
4.179431350E-1,-2.673979402E-1,-9.332008660E-2,9.876076698E0
4.203691240E-1,-2.506481707E-1,-1.220339537E-1,9.854540825E0
4.227951140E-1,-2.434697002E-1,-1.172483116E-1,9.880862236E0
4.252210520E-1,-2.338984162E-1,-1.076770201E-1,9.871291161E0
4.276470410E-1,-2.315055877E-1,-1.148554832E-1,9.864111900E0
4.300730310E-1,-2.195414752E-1,-1.076770201E-1,9.873683929E0
4.324990200E-1,-2.434697002E-1,-1.220339537E-1,9.871291161E0
4.349249580E-1,-2.362912297E-1,-1.268195957E-1,9.849755287E0
4.373509470E-1,-2.410768867E-1,-1.004985496E-1,9.878469467E0
4.397769370E-1,-2.578266263E-1,-1.124626622E-1,9.871291161E0
4.422029270E-1,-2.291127741E-1,-1.004985496E-1,9.880862236E0
4.446288640E-1,-2.338984162E-1,-1.028913707E-1,9.873683929E0
4.470548540E-1,-2.530409992E-1,-9.332008660E-2,9.873683929E0
4.494808430E-1,-2.530409992E-1,-1.052841991E-1,9.866504669E0
4.519067810E-1,-2.338984162E-1,-1.004985496E-1,9.856933594E0
4.543327700E-1,-2.291127741E-1,-8.374879509E-2,9.876076698E0
4.567587600E-1,-2.291127741E-1,-7.657032460E-2,9.885647774E0
4.591847490E-1,-2.291127741E-1,-9.571290761E-2,9.868897438E0
4.616106870E-1,-2.219343036E-1,-1.220339537E-1,9.885647774E0
4.640366770E-1,-2.338984162E-1,-1.076770201E-1,9.864111900E0
4.664626660E-1,-2.530409992E-1,-1.124626622E-1,9.854540825E0
4.688886560E-1,-2.362912297E-1,-1.052841991E-1,9.883255005E0
4.713146450E-1,-2.386840582E-1,-1.196411327E-1,9.861719131E0
4.737405830E-1,-2.003988922E-1,-1.172483116E-1,9.844969749E0
4.761665720E-1,-2.243271172E-1,-1.244267747E-1,9.871291161E0
4.785925620E-1,-2.075773627E-1,-1.172483116E-1,9.895218849E0
4.810184990E-1,-2.458625287E-1,-1.124626622E-1,9.873683929E0
4.834444890E-1,-2.291127741E-1,-1.268195957E-1,9.868897438E0
4.858704790E-1,-2.338984162E-1,-1.004985496E-1,9.878469467E0
4.882964680E-1,-2.267199457E-1,-1.004985496E-1,9.876076698E0
4.907224060E-1,-2.434697002E-1,-1.100698411E-1,9.871291161E0
4.931483950E-1,-2.362912297E-1,-1.124626622E-1,9.866504669E0
4.955743850E-1,-2.362912297E-1,-1.124626622E-1,9.873683929E0
4.980003220E-1,-2.458625287E-1,-1.004985496E-1,9.888040543E0
5.004263120E-1,-2.530409992E-1,-1.004985496E-1,9.876076698E0
5.028523020E-1,-2.123630047E-1,-9.332008660E-2,9.856933594E0
5.052782910E-1,-2.506481707E-1,-9.571290761E-2,9.861719131E0
5.077042290E-1,-2.171486616E-1,-9.810572863E-2,9.873683929E0
5.101302180E-1,-2.195414752E-1,-1.268195957E-1,9.888040543E0
5.125562080E-1,-2.195414752E-1,-1.220339537E-1,9.868897438E0
5.149821970E-1,-2.243271172E-1,-9.810572863E-2,9.873683929E0
5.174081350E-1,-2.434697002E-1,-1.052841991E-1,9.864111900E0
5.198341240E-1,-2.386840582E-1,-1.124626622E-1,9.873683929E0
5.222601140E-1,-2.315055877E-1,-7.657032460E-2,9.873683929E0
5.246861040E-1,-2.219343036E-1,-9.092725813E-2,9.861719131E0
5.271120410E-1,-2.195414752E-1,-1.220339537E-1,9.856933594E0
5.295380310E-1,-2.554338276E-1,-1.100698411E-1,9.876076698E0
5.319640200E-1,-2.147558331E-1,-8.853443712E-2,9.883255005E0
5.343900100E-1,-2.291127741E-1,-1.100698411E-1,9.873683929E0
5.368159470E-1,-2.602194548E-1,-1.220339537E-1,9.868897438E0
5.392419370E-1,-2.458625287E-1,-9.332008660E-2,9.861719131E0
5.416679270E-1,-2.386840582E-1,-1.148554832E-1,9.861719131E0
5.440939160E-1,-2.315055877E-1,-1.316052526E-1,9.880862236E0
5.465198540E-1,-2.506481707E-1,-1.148554832E-1,9.871291161E0
5.489458430E-1,-2.434697002E-1,-1.172483116E-1,9.859326363E0
5.513718330E-1,-2.434697002E-1,-9.332008660E-2,9.871291161E0
5.537977700E-1,-2.267199457E-1,-1.124626622E-1,9.880862236E0
5.562237600E-1,-2.362912297E-1,-1.100698411E-1,9.864111900E0
5.586497490E-1,-2.386840582E-1,-9.810572863E-2,9.861719131E0
5.610757390E-1,-2.075773627E-1,-9.092725813E-2,9.883255005E0
5.635017290E-1,-2.410768867E-1,-9.810572863E-2,9.864111900E0
5.659276660E-1,-2.434697002E-1,-8.135596663E-2,9.871291161E0
5.683536560E-1,-2.410768867E-1,-1.004985496E-1,9.871291161E0
5.707796450E-1,-2.027917206E-1,-9.332008660E-2,9.871291161E0
5.732055830E-1,-2.099701911E-1,-8.853443712E-2,9.861719131E0
5.756315720E-1,-2.410768867E-1,-9.332008660E-2,9.866504669E0
5.780575620E-1,-2.458625287E-1,-1.220339537E-1,9.876076698E0
5.804835520E-1,-2.434697002E-1,-1.076770201E-1,9.852148056E0
5.829094890E-1,-2.506481707E-1,-1.028913707E-1,9.864111900E0
5.853354790E-1,-2.410768867E-1,-1.100698411E-1,9.859326363E0
5.877614680E-1,-2.291127741E-1,-1.004985496E-1,9.868897438E0
5.901874580E-1,-2.219343036E-1,-1.100698411E-1,9.864111900E0
5.926134470E-1,-2.434697002E-1,-1.268195957E-1,9.885647774E0
5.950393850E-1,-2.386840582E-1,-1.124626622E-1,9.885647774E0
5.974653740E-1,-2.458625287E-1,-9.332008660E-2,9.873683929E0
5.998913640E-1,-2.386840582E-1,-1.292124242E-1,9.890433311E0
6.023173020E-1,-2.243271172E-1,-1.339980662E-1,9.868897438E0
6.047432910E-1,-2.171486616E-1,-1.220339537E-1,9.878469467E0
6.071692810E-1,-2.315055877E-1,-1.172483116E-1,9.852148056E0
6.095952700E-1,-2.386840582E-1,-1.172483116E-1,9.864111900E0
6.120212080E-1,-2.458625287E-1,-1.100698411E-1,9.878469467E0
6.144471970E-1,-2.482553422E-1,-9.092725813E-2,9.861719131E0
6.168731870E-1,-2.458625287E-1,-9.571290761E-2,9.844969749E0
6.192991770E-1,-2.195414752E-1,-1.100698411E-1,9.876076698E0
6.217251140E-1,-2.291127741E-1,-1.052841991E-1,9.900004387E0
6.241511040E-1,-2.219343036E-1,-1.124626622E-1,9.890433311E0
6.265770930E-1,-2.482553422E-1,-1.124626622E-1,9.876076698E0
6.290030830E-1,-2.243271172E-1,-1.124626622E-1,9.871291161E0
6.314290200E-1,-2.267199457E-1,-9.571290761E-2,9.859326363E0
6.338550100E-1,-2.338984162E-1,-1.028913707E-1,9.844969749E0
6.362809990E-1,-2.386840582E-1,-1.100698411E-1,9.864111900E0
6.387069890E-1,-2.171486616E-1,-9.571290761E-2,9.861719131E0
6.411329270E-1,-2.458625287E-1,-1.076770201E-1,9.861719131E0
6.435589160E-1,-2.434697002E-1,-8.853443712E-2,9.866504669E0
6.459849060E-1,-2.458625287E-1,-1.124626622E-1,9.880862236E0
6.484108950E-1,-2.362912297E-1,-1.148554832E-1,9.871291161E0
6.508368330E-1,-2.769692242E-1,-9.332008660E-2,9.868897438E0
6.532628220E-1,-2.458625287E-1,-1.220339537E-1,9.864111900E0
6.556888120E-1,-2.267199457E-1,-1.124626622E-1,9.871291161E0
6.581148020E-1,-2.267199457E-1,-9.571290761E-2,9.876076698E0
6.605407390E-1,-2.291127741E-1,-1.196411327E-1,9.864111900E0
6.629667290E-1,-2.362912297E-1,-1.244267747E-1,9.866504669E0
6.653927180E-1,-2.243271172E-1,-1.244267747E-1,9.880862236E0
6.678187080E-1,-2.362912297E-1,-1.196411327E-1,9.880862236E0
6.702446450E-1,-2.386840582E-1,-1.100698411E-1,9.876076698E0
6.726706350E-1,-2.434697002E-1,-1.028913707E-1,9.876076698E0
6.750966240E-1,-2.195414752E-1,-1.172483116E-1,9.885647774E0
6.775226140E-1,-2.410768867E-1,-1.148554832E-1,9.868897438E0
6.799485520E-1,-2.338984162E-1,-1.052841991E-1,9.868897438E0
6.823745410E-1,-2.338984162E-1,-1.148554832E-1,9.888040543E0
6.848005310E-1,-2.506481707E-1,-1.244267747E-1,9.878469467E0
6.872265200E-1,-2.434697002E-1,-1.339980662E-1,9.883255005E0
6.896524580E-1,-2.410768867E-1,-1.172483116E-1,9.864111900E0
6.920784470E-1,-2.267199457E-1,-9.810572863E-2,9.861719131E0
6.945044370E-1,-2.291127741E-1,-1.052841991E-1,9.888040543E0
6.969303740E-1,-2.195414752E-1,-1.172483116E-1,9.876076698E0
6.993563640E-1,-2.338984162E-1,-1.124626622E-1,9.864111900E0
7.017823540E-1,-2.386840582E-1,-1.124626622E-1,9.873683929E0
7.042083430E-1,-2.506481707E-1,-1.220339537E-1,9.871291161E0
7.066342810E-1,-2.219343036E-1,-1.076770201E-1,9.861719131E0
7.090602700E-1,-2.291127741E-1,-1.004985496E-1,9.880862236E0
7.114862600E-1,-2.267199457E-1,-1.124626622E-1,9.880862236E0
7.139122490E-1,-2.338984162E-1,-1.028913707E-1,9.878469467E0
7.163382390E-1,-2.386840582E-1,-1.124626622E-1,9.876076698E0
7.187641770E-1,-2.243271172E-1,-1.268195957E-1,9.864111900E0
7.211901660E-1,-2.386840582E-1,-1.148554832E-1,9.868897438E0
7.236161560E-1,-2.482553422E-1,-1.124626622E-1,9.883255005E0
7.260421450E-1,-2.315055877E-1,-1.148554832E-1,9.861719131E0
7.284680830E-1,-2.338984162E-1,-9.571290761E-2,9.883255005E0
7.308940720E-1,-2.171486616E-1,-1.004985496E-1,9.866504669E0
7.333200620E-1,-2.410768867E-1,-1.220339537E-1,9.856933594E0
7.357460520E-1,-2.291127741E-1,-1.148554832E-1,9.876076698E0
7.381719890E-1,-2.434697002E-1,-1.028913707E-1,9.878469467E0
7.405979790E-1,-2.267199457E-1,-9.332008660E-2,9.873683929E0
7.430239680E-1,-2.434697002E-1,-1.124626622E-1,9.871291161E0
7.454499580E-1,-2.410768867E-1,-1.172483116E-1,9.878469467E0
7.478758950E-1,-2.147558331E-1,-1.052841991E-1,9.885647774E0
7.503018850E-1,-2.243271172E-1,-1.076770201E-1,9.883255005E0
7.527278740E-1,-2.410768867E-1,-1.172483116E-1,9.890433311E0
7.551538640E-1,-2.362912297E-1,-1.196411327E-1,9.873683929E0
7.575798020E-1,-2.482553422E-1,-1.196411327E-1,9.861719131E0
7.600057910E-1,-2.315055877E-1,-9.810572863E-2,9.888040543E0
7.624317810E-1,-2.386840582E-1,-1.124626622E-1,9.878469467E0
7.648577700E-1,-2.338984162E-1,-1.076770201E-1,9.895218849E0
7.672837080E-1,-2.338984162E-1,-1.196411327E-1,9.871291161E0
7.697096970E-1,-2.410768867E-1,-7.178468257E-2,9.861719131E0
7.721356870E-1,-2.291127741E-1,-8.853443712E-2,9.885647774E0
7.745616770E-1,-2.362912297E-1,-9.092725813E-2,9.871291161E0
7.769876140E-1,-2.386840582E-1,-1.052841991E-1,9.880862236E0
7.794136040E-1,-2.386840582E-1,-1.004985496E-1,9.892826080E0
7.818395930E-1,-2.458625287E-1,-9.571290761E-2,9.871291161E0
7.842655830E-1,-2.434697002E-1,-1.148554832E-1,9.895218849E0
7.866915200E-1,-2.626122832E-1,-1.004985496E-1,9.866504669E0
7.891175100E-1,-2.721835673E-1,-1.148554832E-1,9.861719131E0
7.915434990E-1,-2.602194548E-1,-1.363908947E-1,9.878469467E0
7.939694890E-1,-2.602194548E-1,-1.148554832E-1,9.868897438E0
7.963954270E-1,-2.267199457E-1,-1.052841991E-1,9.880862236E0
7.988214160E-1,-2.362912297E-1,-9.332008660E-2,9.897611618E0
8.012474060E-1,-2.195414752E-1,-9.571290761E-2,9.878469467E0
8.036733950E-1,-2.410768867E-1,-9.571290761E-2,9.873683929E0
8.060993330E-1,-2.338984162E-1,-1.220339537E-1,9.871291161E0
8.085253220E-1,-2.386840582E-1,-1.220339537E-1,9.866504669E0
8.109513120E-1,-2.267199457E-1,-1.052841991E-1,9.873683929E0
8.133773020E-1,-2.458625287E-1,-1.076770201E-1,9.878469467E0
8.158032390E-1,-2.721835673E-1,-1.244267747E-1,9.871291161E0
8.182292290E-1,-2.721835673E-1,-1.052841991E-1,9.888040543E0
8.206552180E-1,-2.315055877E-1,-1.148554832E-1,9.878469467E0
8.230812080E-1,-2.147558331E-1,-1.220339537E-1,9.876076698E0
8.255071450E-1,-2.123630047E-1,-1.124626622E-1,9.861719131E0
8.279331350E-1,-2.410768867E-1,-1.172483116E-1,9.876076698E0
8.303591240E-1,-2.291127741E-1,-1.004985496E-1,9.868897438E0
8.327851140E-1,-2.506481707E-1,-1.076770201E-1,9.871291161E0
8.352110520E-1,-2.458625287E-1,-1.220339537E-1,9.888040543E0
8.376370410E-1,-2.338984162E-1,-1.076770201E-1,9.878469467E0
8.400630310E-1,-2.219343036E-1,-1.268195957E-1,9.873683929E0
8.424890200E-1,-2.362912297E-1,-1.172483116E-1,9.880862236E0
8.449149580E-1,-2.171486616E-1,-1.172483116E-1,9.868897438E0
8.473409470E-1,-2.434697002E-1,-1.076770201E-1,9.876076698E0
8.497669370E-1,-2.673979402E-1,-1.052841991E-1,9.885647774E0
8.521929270E-1,-2.673979402E-1,-1.292124242E-1,9.885647774E0
8.546188640E-1,-2.506481707E-1,-1.028913707E-1,9.883255005E0
8.570448540E-1,-2.338984162E-1,-1.244267747E-1,9.885647774E0
8.594708430E-1,-2.386840582E-1,-1.172483116E-1,9.878469467E0
8.618968330E-1,-2.434697002E-1,-1.004985496E-1,9.885647774E0
8.643228220E-1,-2.291127741E-1,-9.092725813E-2,9.880862236E0
8.667487600E-1,-2.458625287E-1,-1.196411327E-1,9.866504669E0
8.691747490E-1,-2.147558331E-1,-1.196411327E-1,9.864111900E0
8.716007390E-1,-2.075773627E-1,-1.124626622E-1,9.868897438E0
8.740267290E-1,-2.386840582E-1,-1.052841991E-1,9.880862236E0
8.764526660E-1,-2.243271172E-1,-1.004985496E-1,9.880862236E0
8.788786560E-1,-2.386840582E-1,-9.571290761E-2,9.864111900E0
8.813046450E-1,-2.386840582E-1,-8.135596663E-2,9.866504669E0
8.837306350E-1,-2.506481707E-1,-1.052841991E-1,9.888040543E0
8.861565720E-1,-2.338984162E-1,-1.004985496E-1,9.868897438E0
8.885825620E-1,-2.362912297E-1,-1.220339537E-1,9.871291161E0
8.910085520E-1,-2.554338276E-1,-1.172483116E-1,9.854540825E0
8.934345410E-1,-2.338984162E-1,-1.196411327E-1,9.876076698E0
8.958604790E-1,-2.482553422E-1,-1.124626622E-1,9.873683929E0
8.982864680E-1,-2.482553422E-1,-1.172483116E-1,9.883255005E0
9.007124580E-1,-2.315055877E-1,-8.374879509E-2,9.890433311E0
9.031384470E-1,-2.434697002E-1,-1.172483116E-1,9.895218849E0
9.055643850E-1,-2.410768867E-1,-1.244267747E-1,9.880862236E0
9.079903740E-1,-2.410768867E-1,-1.220339537E-1,9.883255005E0
9.104163640E-1,-2.315055877E-1,-1.316052526E-1,9.885647774E0
9.128423540E-1,-2.338984162E-1,-1.052841991E-1,9.861719131E0
9.152682910E-1,-2.410768867E-1,-1.028913707E-1,9.880862236E0
9.176942810E-1,-2.410768867E-1,-1.100698411E-1,9.876076698E0
9.201202700E-1,-2.315055877E-1,-1.220339537E-1,9.864111900E0
9.225462600E-1,-2.362912297E-1,-1.124626622E-1,9.885647774E0
9.249721970E-1,-2.362912297E-1,-1.100698411E-1,9.890433311E0
9.273981870E-1,-2.458625287E-1,-9.332008660E-2,9.878469467E0
9.298241770E-1,-2.243271172E-1,-1.004985496E-1,9.892826080E0
9.322501660E-1,-2.243271172E-1,-1.220339537E-1,9.880862236E0
9.346761040E-1,-2.386840582E-1,-1.052841991E-1,9.868897438E0
9.371020930E-1,-2.362912297E-1,-1.124626622E-1,9.885647774E0
9.395280830E-1,-2.410768867E-1,-1.124626622E-1,9.888040543E0
9.419540720E-1,-2.195414752E-1,-1.100698411E-1,9.883255005E0
9.443800620E-1,-2.195414752E-1,-1.124626622E-1,9.880862236E0
9.468059990E-1,-2.291127741E-1,-1.172483116E-1,9.876076698E0
9.492319890E-1,-2.362912297E-1,-1.172483116E-1,9.890433311E0
9.516579790E-1,-2.434697002E-1,-1.172483116E-1,9.892826080E0
9.540839680E-1,-2.315055877E-1,-1.196411327E-1,9.890433311E0
9.565099060E-1,-2.578266263E-1,-1.124626622E-1,9.888040543E0
9.589358950E-1,-2.338984162E-1,-1.124626622E-1,9.871291161E0
9.613618850E-1,-2.386840582E-1,-9.571290761E-2,9.878469467E0
9.637878740E-1,-2.458625287E-1,-9.810572863E-2,9.871291161E0
9.662138120E-1,-2.410768867E-1,-1.076770201E-1,9.883255005E0
9.686398020E-1,-2.410768867E-1,-1.292124242E-1,9.856933594E0
9.710657910E-1,-2.267199457E-1,-1.244267747E-1,9.866504669E0
9.734917810E-1,-2.410768867E-1,-1.124626622E-1,9.890433311E0
9.759177700E-1,-2.410768867E-1,-1.100698411E-1,9.895218849E0
9.783437080E-1,-2.338984162E-1,-1.100698411E-1,9.885647774E0
9.807696970E-1,-2.506481707E-1,-1.076770201E-1,9.876076698E0
9.831956870E-1,-2.243271172E-1,-9.810572863E-2,9.876076698E0
9.856216240E-1,-2.219343036E-1,-1.052841991E-1,9.871291161E0
9.880476140E-1,-2.243271172E-1,-1.148554832E-1,9.880862236E0
9.904736040E-1,-2.410768867E-1,-9.092725813E-2,9.880862236E0
9.928995930E-1,-2.219343036E-1,-1.076770201E-1,9.878469467E0
9.953255310E-1,-2.530409992E-1,-1.268195957E-1,9.895218849E0
9.977515200E-1,-2.267199457E-1,-1.124626622E-1,9.902397156E0
1.000177510E0,-2.315055877E-1,-1.124626622E-1,9.849755287E0
1.002603499E0,-2.291127741E-1,-1.268195957E-1,9.866504669E0
1.005029489E0,-2.434697002E-1,-1.028913707E-1,9.895218849E0
1.007455427E0,-2.482553422E-1,-8.374879509E-2,9.880862236E0
1.009881416E0,-2.386840582E-1,-1.220339537E-1,9.868897438E0
1.012307406E0,-2.315055877E-1,-9.092725813E-2,9.883255005E0
1.014733395E0,-2.243271172E-1,-1.148554832E-1,9.873683929E0
1.017159333E0,-2.410768867E-1,-1.028913707E-1,9.868897438E0
1.019585322E0,-2.267199457E-1,-1.076770201E-1,9.873683929E0
1.022011312E0,-2.434697002E-1,-1.076770201E-1,9.866504669E0
1.024437302E0,-2.434697002E-1,-1.148554832E-1,9.885647774E0
1.026863239E0,-2.123630047E-1,-1.124626622E-1,9.888040543E0
1.029289229E0,-2.291127741E-1,-1.316052526E-1,9.876076698E0
1.031715218E0,-2.051845491E-1,-1.100698411E-1,9.880862236E0
1.034141208E0,-2.386840582E-1,-9.810572863E-2,9.885647774E0
1.036567145E0,-2.410768867E-1,-1.028913707E-1,9.900004387E0
1.038993135E0,-2.386840582E-1,-8.614161611E-2,9.876076698E0
1.041419124E0,-2.386840582E-1,-1.004985496E-1,9.873683929E0
1.043845114E0,-2.291127741E-1,-1.148554832E-1,9.888040543E0
1.046271104E0,-2.362912297E-1,-1.148554832E-1,9.868897438E0
1.048697041E0,-2.410768867E-1,-1.292124242E-1,9.868897438E0
1.051123031E0,-2.338984162E-1,-1.172483116E-1,9.859326363E0
1.053549020E0,-2.386840582E-1,-1.268195957E-1,9.880862236E0
1.055975010E0,-2.506481707E-1,-1.052841991E-1,9.866504669E0
1.058400947E0,-2.267199457E-1,-1.052841991E-1,9.885647774E0
1.060826937E0,-2.506481707E-1,-1.196411327E-1,9.871291161E0
1.063252927E0,-2.338984162E-1,-1.100698411E-1,9.873683929E0
1.065678916E0,-2.362912297E-1,-9.092725813E-2,9.880862236E0
1.068104854E0,-2.267199457E-1,-1.076770201E-1,9.864111900E0
1.070530843E0,-2.219343036E-1,-1.028913707E-1,9.873683929E0
1.072956833E0,-2.482553422E-1,-1.220339537E-1,9.900004387E0
1.075382822E0,-2.458625287E-1,-9.810572863E-2,9.900004387E0
1.077808760E0,-2.386840582E-1,-1.004985496E-1,9.888040543E0
1.080234749E0,-2.315055877E-1,-1.004985496E-1,9.892826080E0
1.082660739E0,-2.267199457E-1,-1.220339537E-1,9.885647774E0
1.085086729E0,-2.434697002E-1,-1.196411327E-1,9.878469467E0
1.087512718E0,-2.386840582E-1,-1.220339537E-1,9.878469467E0
1.089938656E0,-2.458625287E-1,-1.148554832E-1,9.878469467E0
1.092364645E0,-2.434697002E-1,-1.292124242E-1,9.895218849E0
1.094790635E0,-2.554338276E-1,-1.220339537E-1,9.880862236E0
1.097216624E0,-2.338984162E-1,-1.124626622E-1,9.873683929E0
1.099642562E0,-2.171486616E-1,-9.810572863E-2,9.904789925E0
1.102068552E0,-2.291127741E-1,-1.052841991E-1,9.873683929E0
1.104494541E0,-2.219343036E-1,-1.052841991E-1,9.866504669E0
1.106920531E0,-2.506481707E-1,-1.028913707E-1,9.868897438E0
1.109346468E0,-2.458625287E-1,-1.172483116E-1,9.861719131E0
1.111772458E0,-2.482553422E-1,-1.196411327E-1,9.897611618E0
1.114198447E0,-2.386840582E-1,-1.076770201E-1,9.878469467E0
1.116624437E0,-2.219343036E-1,-1.148554832E-1,9.883255005E0
1.119050427E0,-2.434697002E-1,-1.076770201E-1,9.885647774E0
1.121476364E0,-2.291127741E-1,-1.100698411E-1,9.876076698E0
1.123902354E0,-2.482553422E-1,-1.220339537E-1,9.873683929E0
1.126328343E0,-2.434697002E-1,-1.004985496E-1,9.866504669E0
1.128754281E0,-2.434697002E-1,-9.810572863E-2,9.864111900E0
1.131180270E0,-2.362912297E-1,-1.052841991E-1,9.883255005E0
1.133606260E0,-2.410768867E-1,-9.810572863E-2,9.878469467E0
1.136032249E0,-2.147558331E-1,-1.124626622E-1,9.880862236E0
1.138458239E0,-2.410768867E-1,-1.196411327E-1,9.866504669E0
1.140884177E0,-2.291127741E-1,-1.052841991E-1,9.880862236E0
1.143310166E0,-2.386840582E-1,-1.076770201E-1,9.871291161E0
1.145736156E0,-2.291127741E-1,-1.076770201E-1,9.854540825E0
1.148162145E0,-2.243271172E-1,-1.196411327E-1,9.883255005E0
1.150588083E0,-2.123630047E-1,-1.028913707E-1,9.868897438E0
1.153014072E0,-2.243271172E-1,-1.100698411E-1,9.866504669E0
1.155440062E0,-2.219343036E-1,-1.100698411E-1,9.871291161E0
1.157866052E0,-2.243271172E-1,-9.332008660E-2,9.885647774E0
1.160291989E0,-2.434697002E-1,-9.092725813E-2,9.861719131E0
1.162717979E0,-2.482553422E-1,-1.052841991E-1,9.868897438E0
1.165143968E0,-2.482553422E-1,-1.028913707E-1,9.868897438E0
1.167569958E0,-2.482553422E-1,-1.028913707E-1,9.868897438E0
1.169995947E0,-2.362912297E-1,-1.100698411E-1,9.885647774E0
1.172421885E0,-2.362912297E-1,-9.332008660E-2,9.864111900E0
1.174847874E0,-2.386840582E-1,-1.124626622E-1,9.878469467E0
1.177273864E0,-2.243271172E-1,-1.076770201E-1,9.892826080E0
1.179699854E0,-2.482553422E-1,-1.004985496E-1,9.864111900E0
1.182125791E0,-2.338984162E-1,-1.172483116E-1,9.868897438E0
1.184551781E0,-2.315055877E-1,-1.028913707E-1,9.871291161E0
1.186977770E0,-2.673979402E-1,-1.100698411E-1,9.890433311E0
1.189403760E0,-2.386840582E-1,-9.332008660E-2,9.859326363E0
1.191829697E0,-2.195414752E-1,-9.332008660E-2,9.878469467E0
1.194255687E0,-2.338984162E-1,-1.124626622E-1,9.880862236E0
1.196681677E0,-2.338984162E-1,-1.028913707E-1,9.895218849E0
1.199107666E0,-2.578266263E-1,-1.052841991E-1,9.880862236E0
1.201533656E0,-2.506481707E-1,-9.571290761E-2,9.890433311E0
1.203959593E0,-2.267199457E-1,-1.052841991E-1,9.885647774E0
1.206385583E0,-2.386840582E-1,-8.614161611E-2,9.902397156E0
1.208811572E0,-2.243271172E-1,-1.124626622E-1,9.895218849E0
1.211237562E0,-2.602194548E-1,-1.004985496E-1,9.885647774E0
1.213663499E0,-2.410768867E-1,-1.363908947E-1,9.885647774E0
1.216089489E0,-2.338984162E-1,-1.148554832E-1,9.890433311E0
1.218515479E0,-2.315055877E-1,-1.148554832E-1,9.873683929E0
1.220941468E0,-2.458625287E-1,-1.220339537E-1,9.883255005E0
1.223367458E0,-2.434697002E-1,-1.076770201E-1,9.878469467E0
1.225793395E0,-2.458625287E-1,-1.124626622E-1,9.861719131E0
1.228219385E0,-2.434697002E-1,-9.332008660E-2,9.878469467E0
1.230645374E0,-2.219343036E-1,-8.853443712E-2,9.880862236E0
1.233071364E0,-2.147558331E-1,-1.148554832E-1,9.883255005E0
1.235497302E0,-2.434697002E-1,-1.124626622E-1,9.866504669E0
1.237923291E0,-2.291127741E-1,-1.076770201E-1,9.866504669E0
1.240349281E0,-2.338984162E-1,-8.853443712E-2,9.871291161E0
1.242775270E0,-2.602194548E-1,-9.571290761E-2,9.866504669E0
1.245201208E0,-2.458625287E-1,-1.172483116E-1,9.878469467E0
1.247627197E0,-2.578266263E-1,-1.100698411E-1,9.868897438E0
1.250053187E0,-2.386840582E-1,-1.292124242E-1,9.871291161E0
1.252479177E0,-2.362912297E-1,-1.196411327E-1,9.859326363E0
1.254905114E0,-2.243271172E-1,-9.571290761E-2,9.878469467E0
1.257331104E0,-2.434697002E-1,-1.148554832E-1,9.861719131E0
1.259757093E0,-2.243271172E-1,-1.100698411E-1,9.873683929E0
1.262183083E0,-2.458625287E-1,-9.810572863E-2,9.897611618E0
1.264609072E0,-2.195414752E-1,-1.124626622E-1,9.897611618E0
1.267035010E0,-2.267199457E-1,-1.124626622E-1,9.878469467E0
1.269460999E0,-2.267199457E-1,-1.004985496E-1,9.878469467E0
1.271886989E0,-2.362912297E-1,-9.332008660E-2,9.895218849E0
1.274312979E0,-2.362912297E-1,-1.004985496E-1,9.885647774E0
1.276738916E0,-2.243271172E-1,-1.052841991E-1,9.895218849E0
1.279164906E0,-2.458625287E-1,-1.052841991E-1,9.885647774E0
1.281590895E0,-2.362912297E-1,-9.332008660E-2,9.876076698E0
1.284016885E0,-2.362912297E-1,-1.100698411E-1,9.871291161E0
1.286442822E0,-2.338984162E-1,-1.220339537E-1,9.849755287E0
1.288868812E0,-2.315055877E-1,-1.076770201E-1,9.888040543E0
1.291294802E0,-2.434697002E-1,-1.100698411E-1,9.878469467E0
1.293720791E0,-2.434697002E-1,-1.124626622E-1,9.871291161E0
1.296146781E0,-2.434697002E-1,-8.614161611E-2,9.876076698E0
1.298572718E0,-2.386840582E-1,-1.028913707E-1,9.871291161E0
1.300998708E0,-2.530409992E-1,-9.810572863E-2,9.864111900E0
1.303424697E0,-2.626122832E-1,-9.571290761E-2,9.859326363E0
1.305850687E0,-2.338984162E-1,-1.244267747E-1,9.871291161E0
1.308276624E0,-2.267199457E-1,-9.571290761E-2,9.876076698E0
1.310702614E0,-2.554338276E-1,-8.853443712E-2,9.880862236E0
1.313128604E0,-2.386840582E-1,-1.028913707E-1,9.888040543E0
1.315554593E0,-2.338984162E-1,-7.896314561E-2,9.892826080E0
1.317980531E0,-2.458625287E-1,-1.172483116E-1,9.878469467E0
1.320406520E0,-2.554338276E-1,-9.571290761E-2,9.876076698E0
1.322832510E0,-2.506481707E-1,-9.810572863E-2,9.859326363E0
1.325258499E0,-2.482553422E-1,-1.172483116E-1,9.878469467E0
1.327684437E0,-2.315055877E-1,-9.092725813E-2,9.880862236E0
1.330110427E0,-2.434697002E-1,-8.135596663E-2,9.854540825E0
1.332536416E0,-2.243271172E-1,-1.052841991E-1,9.880862236E0
1.334962406E0,-2.171486616E-1,-1.100698411E-1,9.890433311E0
1.337388395E0,-2.219343036E-1,-1.004985496E-1,9.883255005E0
1.339814333E0,-2.291127741E-1,-8.853443712E-2,9.856933594E0
1.342240322E0,-2.243271172E-1,-1.076770201E-1,9.873683929E0
1.344666312E0,-2.291127741E-1,-1.052841991E-1,9.878469467E0
1.347092302E0,-2.315055877E-1,-1.004985496E-1,9.880862236E0
1.349518291E0,-2.291127741E-1,-1.004985496E-1,9.880862236E0
1.351944229E0,-2.291127741E-1,-1.052841991E-1,9.883255005E0
1.354370218E0,-2.291127741E-1,-1.004985496E-1,9.880862236E0
1.356796208E0,-2.530409992E-1,-9.810572863E-2,9.880862236E0
1.359222197E0,-2.243271172E-1,-1.004985496E-1,9.861719131E0
1.361648135E0,-2.554338276E-1,-1.004985496E-1,9.895218849E0
1.364074124E0,-2.458625287E-1,-9.332008660E-2,9.885647774E0
1.366500114E0,-2.338984162E-1,-8.135596663E-2,9.883255005E0
1.368926104E0,-2.458625287E-1,-1.076770201E-1,9.883255005E0
1.371352041E0,-2.291127741E-1,-1.124626622E-1,9.888040543E0
1.373778031E0,-2.338984162E-1,-1.052841991E-1,9.880862236E0
1.376204020E0,-2.291127741E-1,-1.268195957E-1,9.883255005E0
1.378630010E0,-2.219343036E-1,-1.148554832E-1,9.885647774E0
1.381055947E0,-2.482553422E-1,-8.853443712E-2,9.876076698E0
1.383481937E0,-2.482553422E-1,-1.148554832E-1,9.868897438E0
1.385907927E0,-2.362912297E-1,-1.172483116E-1,9.859326363E0
1.388333916E0,-2.315055877E-1,-1.268195957E-1,9.871291161E0
1.390759906E0,-2.410768867E-1,-1.244267747E-1,9.880862236E0
1.393185843E0,-2.243271172E-1,-9.332008660E-2,9.878469467E0
1.395611833E0,-2.458625287E-1,-1.148554832E-1,9.880862236E0
1.398037822E0,-2.458625287E-1,-1.100698411E-1,9.868897438E0
1.400463812E0,-2.602194548E-1,-1.076770201E-1,9.880862236E0
1.402889802E0,-2.434697002E-1,-9.332008660E-2,9.885647774E0
1.405315739E0,-2.386840582E-1,-1.148554832E-1,9.873683929E0
1.407741729E0,-2.458625287E-1,-9.810572863E-2,9.873683929E0
1.410167718E0,-2.362912297E-1,-8.374879509E-2,9.871291161E0
1.412593708E0,-2.482553422E-1,-9.810572863E-2,9.854540825E0
1.415019645E0,-2.219343036E-1,-8.614161611E-2,9.868897438E0
1.417445635E0,-2.338984162E-1,-1.004985496E-1,9.873683929E0
1.419871624E0,-2.530409992E-1,-7.896314561E-2,9.861719131E0
1.422297614E0,-2.195414752E-1,-7.178468257E-2,9.885647774E0
1.424723552E0,-2.195414752E-1,-8.135596663E-2,9.885647774E0
1.427149541E0,-2.410768867E-1,-1.124626622E-1,9.878469467E0
1.429575531E0,-2.315055877E-1,-1.124626622E-1,9.868897438E0
1.432001520E0,-2.482553422E-1,-1.268195957E-1,9.885647774E0
1.434427458E0,-2.195414752E-1,-1.100698411E-1,9.868897438E0
1.436853447E0,-2.075773627E-1,-1.172483116E-1,9.864111900E0
1.439279437E0,-2.386840582E-1,-1.100698411E-1,9.861719131E0
1.441705427E0,-2.410768867E-1,-1.220339537E-1,9.888040543E0
1.444131416E0,-2.410768867E-1,-9.810572863E-2,9.878469467E0
1.446557354E0,-2.506481707E-1,-1.172483116E-1,9.876076698E0
1.448983343E0,-2.291127741E-1,-1.004985496E-1,9.878469467E0
1.451409333E0,-2.315055877E-1,-9.571290761E-2,9.890433311E0
1.453835322E0,-2.195414752E-1,-1.172483116E-1,9.873683929E0
1.456261260E0,-2.506481707E-1,-1.268195957E-1,9.876076698E0
1.458687249E0,-2.147558331E-1,-1.004985496E-1,9.873683929E0
1.461113239E0,-2.578266263E-1,-1.076770201E-1,9.871291161E0
1.463539229E0,-2.243271172E-1,-1.244267747E-1,9.883255005E0
1.465965218E0,-2.362912297E-1,-1.028913707E-1,9.902397156E0
1.468391156E0,-2.386840582E-1,-9.092725813E-2,9.878469467E0
1.470817145E0,-2.458625287E-1,-1.004985496E-1,9.883255005E0
1.473243135E0,-2.362912297E-1,-1.268195957E-1,9.880862236E0
1.475669124E0,-2.386840582E-1,-1.148554832E-1,9.878469467E0
1.478095062E0,-2.195414752E-1,-9.332008660E-2,9.880862236E0
1.480521052E0,-2.315055877E-1,-1.292124242E-1,9.897611618E0
1.482947041E0,-2.362912297E-1,-1.124626622E-1,9.885647774E0
1.485373031E0,-2.386840582E-1,-1.052841991E-1,9.880862236E0
1.487799020E0,-2.267199457E-1,-9.810572863E-2,9.880862236E0
1.490224958E0,-2.458625287E-1,-1.052841991E-1,9.885647774E0
1.492650947E0,-2.291127741E-1,-1.004985496E-1,9.878469467E0
1.495076937E0,-2.482553422E-1,-1.124626622E-1,9.852148056E0
1.497502927E0,-2.410768867E-1,-1.172483116E-1,9.859326363E0
1.499928864E0,-2.410768867E-1,-1.292124242E-1,9.916754723E0
1.502354854E0,-2.386840582E-1,-1.220339537E-1,9.864111900E0
1.504780843E0,-2.410768867E-1,-1.100698411E-1,9.873683929E0
1.507206833E0,-2.410768867E-1,-1.220339537E-1,9.866504669E0
1.509632822E0,-2.362912297E-1,-8.374879509E-2,9.856933594E0
1.512058760E0,-2.147558331E-1,-9.332008660E-2,9.888040543E0
1.514484749E0,-2.482553422E-1,-8.853443712E-2,9.871291161E0
1.516910739E0,-2.315055877E-1,-1.172483116E-1,9.873683929E0
1.519336729E0,-2.506481707E-1,-1.004985496E-1,9.876076698E0
1.521762666E0,-2.267199457E-1,-1.076770201E-1,9.871291161E0
1.524188656E0,-2.267199457E-1,-9.571290761E-2,9.878469467E0
1.526614645E0,-2.338984162E-1,-8.853443712E-2,9.880862236E0
1.529040635E0,-2.315055877E-1,-1.268195957E-1,9.885647774E0
1.531466572E0,-2.219343036E-1,-1.124626622E-1,9.876076698E0
1.533892562E0,-2.243271172E-1,-1.148554832E-1,9.904789925E0
1.536318552E0,-2.243271172E-1,-1.172483116E-1,9.892826080E0
1.538744541E0,-2.075773627E-1,-1.028913707E-1,9.883255005E0
1.541170479E0,-2.506481707E-1,-1.100698411E-1,9.873683929E0
1.543596468E0,-2.410768867E-1,-1.244267747E-1,9.868897438E0
1.546022458E0,-2.338984162E-1,-1.052841991E-1,9.878469467E0
1.548448447E0,-2.410768867E-1,-1.148554832E-1,9.892826080E0
1.550874437E0,-2.386840582E-1,-9.571290761E-2,9.878469467E0
1.553300374E0,-2.482553422E-1,-1.004985496E-1,9.895218849E0
1.555726364E0,-2.578266263E-1,-1.076770201E-1,9.888040543E0
1.558152354E0,-2.147558331E-1,-1.028913707E-1,9.871291161E0
1.560578343E0,-2.530409992E-1,-1.028913707E-1,9.883255005E0
1.563004281E0,-2.362912297E-1,-1.148554832E-1,9.900004387E0
1.565430270E0,-2.338984162E-1,-1.100698411E-1,9.864111900E0
1.567856260E0,-2.338984162E-1,-1.004985496E-1,9.871291161E0
1.570282249E0,-2.267199457E-1,-1.220339537E-1,9.871291161E0
1.572708239E0,-2.171486616E-1,-1.076770201E-1,9.868897438E0
1.575134177E0,-2.458625287E-1,-1.004985496E-1,9.885647774E0
1.577560166E0,-2.315055877E-1,-8.614161611E-2,9.897611618E0
1.579986156E0,-2.482553422E-1,-1.076770201E-1,9.866504669E0
1.582412145E0,-2.410768867E-1,-9.571290761E-2,9.890433311E0
1.584838083E0,-2.291127741E-1,-1.124626622E-1,9.871291161E0
1.587264072E0,-2.506481707E-1,-1.292124242E-1,9.873683929E0
1.589690062E0,-2.243271172E-1,-1.100698411E-1,9.883255005E0
1.592116052E0,-2.410768867E-1,-9.332008660E-2,9.861719131E0
1.594541989E0,-2.362912297E-1,-1.004985496E-1,9.878469467E0
1.596967979E0,-2.506481707E-1,-1.172483116E-1,9.871291161E0
1.599393968E0,-2.219343036E-1,-1.124626622E-1,9.880862236E0
1.601819958E0,-2.243271172E-1,-8.614161611E-2,9.883255005E0
1.604245947E0,-2.291127741E-1,-1.196411327E-1,9.880862236E0
1.606671885E0,-2.362912297E-1,-9.810572863E-2,9.871291161E0
1.609097874E0,-2.362912297E-1,-1.052841991E-1,9.864111900E0
1.611523864E0,-2.315055877E-1,-1.172483116E-1,9.876076698E0
1.613949854E0,-2.386840582E-1,-1.292124242E-1,9.892826080E0
1.616375843E0,-2.410768867E-1,-1.052841991E-1,9.900004387E0
1.618801781E0,-2.434697002E-1,-8.135596663E-2,9.866504669E0
1.621227770E0,-2.386840582E-1,-9.092725813E-2,9.883255005E0
1.623653760E0,-2.458625287E-1,-1.004985496E-1,9.880862236E0
1.626079749E0,-2.338984162E-1,-1.172483116E-1,9.876076698E0
1.628505687E0,-2.362912297E-1,-1.172483116E-1,9.876076698E0
1.630931677E0,-2.338984162E-1,-8.853443712E-2,9.866504669E0
1.633357666E0,-2.410768867E-1,-1.028913707E-1,9.864111900E0
1.635783656E0,-2.362912297E-1,-9.571290761E-2,9.871291161E0
1.638209593E0,-2.602194548E-1,-1.100698411E-1,9.866504669E0
1.640635583E0,-2.410768867E-1,-1.004985496E-1,9.883255005E0
1.643061572E0,-2.315055877E-1,-1.124626622E-1,9.880862236E0
1.645487562E0,-2.243271172E-1,-1.076770201E-1,9.883255005E0
1.647913499E0,-2.673979402E-1,-1.052841991E-1,9.873683929E0
1.650339489E0,-2.721835673E-1,-8.614161611E-2,9.883255005E0
1.652765479E0,-2.410768867E-1,-1.220339537E-1,9.868897438E0
1.655191468E0,-2.338984162E-1,-9.571290761E-2,9.871291161E0
1.657617458E0,-2.578266263E-1,-8.374879509E-2,9.873683929E0
1.660043395E0,-2.602194548E-1,-8.853443712E-2,9.876076698E0
1.662469385E0,-2.410768867E-1,-1.316052526E-1,9.883255005E0
1.664895374E0,-2.315055877E-1,-9.810572863E-2,9.868897438E0
1.667321364E0,-2.051845491E-1,-1.124626622E-1,9.871291161E0
1.669747302E0,-2.386840582E-1,-9.332008660E-2,9.890433311E0
1.672173291E0,-2.362912297E-1,-1.459621787E-1,9.900004387E0
1.674599281E0,-2.291127741E-1,-1.220339537E-1,9.876076698E0
1.677025270E0,-2.291127741E-1,-9.332008660E-2,9.895218849E0
1.679451260E0,-2.338984162E-1,-9.571290761E-2,9.895218849E0
1.681877197E0,-2.219343036E-1,-1.076770201E-1,9.888040543E0
1.684303187E0,-2.338984162E-1,-1.196411327E-1,9.876076698E0
1.686729177E0,-2.338984162E-1,-9.810572863E-2,9.880862236E0
1.689155166E0,-2.362912297E-1,-1.172483116E-1,9.885647774E0
1.691581156E0,-2.267199457E-1,-1.196411327E-1,9.871291161E0
1.694007093E0,-2.219343036E-1,-1.028913707E-1,9.892826080E0
1.696433083E0,-2.578266263E-1,-1.052841991E-1,9.883255005E0
1.698859072E0,-2.530409992E-1,-1.172483116E-1,9.883255005E0
1.701285062E0,-2.530409992E-1,-1.172483116E-1,9.880862236E0
1.703710999E0,-2.386840582E-1,-1.124626622E-1,9.890433311E0
1.706136989E0,-2.362912297E-1,-1.172483116E-1,9.859326363E0
1.708562979E0,-2.458625287E-1,-8.614161611E-2,9.880862236E0
1.710988968E0,-2.291127741E-1,-9.810572863E-2,9.883255005E0
1.713414958E0,-2.338984162E-1,-1.052841991E-1,9.885647774E0
1.715840895E0,-2.291127741E-1,-9.092725813E-2,9.878469467E0
1.718266885E0,-2.362912297E-1,-8.853443712E-2,9.871291161E0
1.720692874E0,-2.626122832E-1,-1.028913707E-1,9.888040543E0
1.723118864E0,-2.315055877E-1,-1.004985496E-1,9.868897438E0
1.725544802E0,-2.291127741E-1,-9.332008660E-2,9.873683929E0
1.727970791E0,-2.410768867E-1,-1.004985496E-1,9.880862236E0
1.730396781E0,-2.338984162E-1,-8.614161611E-2,9.878469467E0
1.732822770E0,-2.482553422E-1,-1.172483116E-1,9.878469467E0
1.735248760E0,-2.219343036E-1,-1.076770201E-1,9.880862236E0
1.737674697E0,-2.219343036E-1,-1.124626622E-1,9.883255005E0
1.740100687E0,-2.458625287E-1,-1.076770201E-1,9.895218849E0
1.742526677E0,-2.626122832E-1,-1.124626622E-1,9.888040543E0
1.744952666E0,-2.291127741E-1,-9.092725813E-2,9.883255005E0
1.747378604E0,-2.434697002E-1,-1.028913707E-1,9.878469467E0
1.749804593E0,-2.315055877E-1,-1.172483116E-1,9.909575462E0
1.752230583E0,-2.219343036E-1,-1.148554832E-1,9.900004387E0
1.754656572E0,-2.267199457E-1,-1.387837082E-1,9.888040543E0
1.757082562E0,-2.219343036E-1,-1.076770201E-1,9.868897438E0
1.759508499E0,-2.482553422E-1,-9.092725813E-2,9.895218849E0
1.761934489E0,-2.434697002E-1,-1.100698411E-1,9.880862236E0
1.764360479E0,-2.434697002E-1,-7.178468257E-2,9.897611618E0
1.766786468E0,-2.578266263E-1,-1.052841991E-1,9.868897438E0
1.769212406E0,-2.147558331E-1,-1.076770201E-1,9.890433311E0
1.771638395E0,-2.386840582E-1,-1.004985496E-1,9.895218849E0
1.774064385E0,-2.458625287E-1,-1.172483116E-1,9.876076698E0
1.776490374E0,-2.434697002E-1,-1.076770201E-1,9.895218849E0
1.778916312E0,-2.434697002E-1,-9.571290761E-2,9.876076698E0
1.781342302E0,-2.219343036E-1,-1.052841991E-1,9.888040543E0
1.783768291E0,-2.315055877E-1,-1.124626622E-1,9.888040543E0
1.786194281E0,-2.482553422E-1,-8.853443712E-2,9.873683929E0
1.788620270E0,-2.219343036E-1,-9.810572863E-2,9.888040543E0
1.791046208E0,-2.243271172E-1,-1.124626622E-1,9.876076698E0
1.793472197E0,-2.482553422E-1,-1.076770201E-1,9.868897438E0
1.795898187E0,-2.362912297E-1,-1.172483116E-1,9.876076698E0
1.798324177E0,-2.506481707E-1,-1.076770201E-1,9.885647774E0
1.800750114E0,-2.362912297E-1,-1.244267747E-1,9.900004387E0
1.803176104E0,-2.362912297E-1,-1.028913707E-1,9.897611618E0
1.805602093E0,-2.458625287E-1,-1.172483116E-1,9.895218849E0
1.808028083E0,-2.243271172E-1,-1.124626622E-1,9.890433311E0
1.810454072E0,-2.410768867E-1,-1.244267747E-1,9.885647774E0
1.812880010E0,-2.458625287E-1,-1.316052526E-1,9.892826080E0
1.815305999E0,-2.291127741E-1,-1.124626622E-1,9.878469467E0
1.817731989E0,-2.554338276E-1,-1.244267747E-1,9.866504669E0
1.820157979E0,-2.410768867E-1,-1.268195957E-1,9.873683929E0
1.822583916E0,-2.482553422E-1,-1.220339537E-1,9.880862236E0
1.825009906E0,-2.458625287E-1,-1.339980662E-1,9.883255005E0
1.827435895E0,-2.219343036E-1,-1.100698411E-1,9.859326363E0
1.829861885E0,-2.171486616E-1,-1.124626622E-1,9.868897438E0
1.832287874E0,-2.219343036E-1,-8.853443712E-2,9.876076698E0
1.834713812E0,-2.410768867E-1,-1.076770201E-1,9.883255005E0
1.837139802E0,-2.410768867E-1,-9.810572863E-2,9.883255005E0
1.839565791E0,-2.410768867E-1,-1.196411327E-1,9.876076698E0
1.841991781E0,-2.434697002E-1,-8.853443712E-2,9.888040543E0
1.844417718E0,-2.626122832E-1,-1.100698411E-1,9.883255005E0
1.846843708E0,-2.530409992E-1,-1.124626622E-1,9.859326363E0
1.849269697E0,-2.410768867E-1,-1.124626622E-1,9.883255005E0
1.851695687E0,-2.291127741E-1,-1.004985496E-1,9.909575462E0
1.854121677E0,-2.362912297E-1,-9.332008660E-2,9.876076698E0
1.856547614E0,-2.338984162E-1,-1.172483116E-1,9.885647774E0
1.858973604E0,-2.219343036E-1,-1.172483116E-1,9.883255005E0
1.861399593E0,-2.315055877E-1,-1.100698411E-1,9.883255005E0
1.863825583E0,-2.362912297E-1,-1.316052526E-1,9.883255005E0
1.866251520E0,-2.434697002E-1,-9.332008660E-2,9.871291161E0
1.868677510E0,-2.362912297E-1,-1.196411327E-1,9.873683929E0
1.871103499E0,-2.410768867E-1,-1.076770201E-1,9.868897438E0
1.873529489E0,-2.434697002E-1,-1.196411327E-1,9.864111900E0
1.875955479E0,-2.195414752E-1,-1.076770201E-1,9.873683929E0
1.878381416E0,-2.458625287E-1,-1.052841991E-1,9.854540825E0
1.880807406E0,-2.338984162E-1,-1.220339537E-1,9.866504669E0
1.883233395E0,-2.315055877E-1,-1.004985496E-1,9.878469467E0
1.885659385E0,-2.195414752E-1,-9.810572863E-2,9.883255005E0
1.888085322E0,-2.362912297E-1,-9.571290761E-2,9.880862236E0
1.890511312E0,-2.147558331E-1,-1.100698411E-1,9.871291161E0
1.892937302E0,-2.362912297E-1,-9.571290761E-2,9.892826080E0
1.895363291E0,-2.482553422E-1,-1.100698411E-1,9.868897438E0
1.897789281E0,-2.315055877E-1,-1.004985496E-1,9.873683929E0
1.900215218E0,-2.362912297E-1,-9.332008660E-2,9.883255005E0
1.902641208E0,-2.219343036E-1,-1.196411327E-1,9.873683929E0
1.905067197E0,-2.075773627E-1,-1.124626622E-1,9.883255005E0
1.907493187E0,-2.386840582E-1,-9.092725813E-2,9.868897438E0
1.909919177E0,-2.458625287E-1,-1.148554832E-1,9.880862236E0
1.912345114E0,-2.219343036E-1,-1.196411327E-1,9.876076698E0
1.914771104E0,-2.315055877E-1,-1.052841991E-1,9.895218849E0
1.917197093E0,-2.243271172E-1,-1.076770201E-1,9.885647774E0
1.919623083E0,-2.482553422E-1,-1.028913707E-1,9.883255005E0
1.922049020E0,-2.673979402E-1,-1.220339537E-1,9.885647774E0
1.924475010E0,-2.362912297E-1,-1.004985496E-1,9.880862236E0
1.926900999E0,-2.243271172E-1,-9.810572863E-2,9.876076698E0
1.929326989E0,-2.315055877E-1,-1.172483116E-1,9.892826080E0
1.931752927E0,-2.362912297E-1,-1.076770201E-1,9.883255005E0
1.934178916E0,-2.482553422E-1,-1.124626622E-1,9.890433311E0
1.936604906E0,-2.410768867E-1,-1.028913707E-1,9.883255005E0
1.939030895E0,-2.147558331E-1,-1.076770201E-1,9.878469467E0
1.941456885E0,-2.362912297E-1,-1.196411327E-1,9.880862236E0
1.943882822E0,-2.315055877E-1,-1.172483116E-1,9.873683929E0
1.946308812E0,-2.243271172E-1,-1.004985496E-1,9.880862236E0
1.948734802E0,-2.410768867E-1,-9.810572863E-2,9.859326363E0
1.951160791E0,-2.578266263E-1,-1.004985496E-1,9.885647774E0
1.953586781E0,-2.171486616E-1,-1.004985496E-1,9.900004387E0
1.956012718E0,-2.410768867E-1,-9.332008660E-2,9.854540825E0
1.958438708E0,-2.267199457E-1,-1.124626622E-1,9.878469467E0
1.960864697E0,-2.530409992E-1,-1.052841991E-1,9.885647774E0
1.963290687E0,-2.315055877E-1,-9.092725813E-2,9.880862236E0
1.965716624E0,-2.291127741E-1,-1.028913707E-1,9.861719131E0
1.968142614E0,-2.650051117E-1,-1.172483116E-1,9.892826080E0
1.970568604E0,-2.578266263E-1,-1.411765367E-1,9.895218849E0
1.972994593E0,-2.434697002E-1,-1.148554832E-1,9.876076698E0
1.975420583E0,-2.219343036E-1,-1.363908947E-1,9.873683929E0
1.977846520E0,-2.362912297E-1,-1.244267747E-1,9.876076698E0
1.980272510E0,-2.458625287E-1,-1.028913707E-1,9.885647774E0
1.982698499E0,-2.554338276E-1,-1.076770201E-1,9.895218849E0
1.985124489E0,-2.530409992E-1,-9.571290761E-2,9.873683929E0
1.987550427E0,-2.243271172E-1,-1.076770201E-1,9.878469467E0
1.989976416E0,-2.410768867E-1,-1.124626622E-1,9.868897438E0
1.992402406E0,-2.386840582E-1,-9.571290761E-2,9.866504669E0
1.994828395E0,-2.410768867E-1,-1.172483116E-1,9.878469467E0
1.997254385E0,-2.506481707E-1,-1.172483116E-1,9.871291161E0
1.999680322E0,-2.602194548E-1,-1.268195957E-1,9.878469467E0
2.002106312E0,-2.338984162E-1,-1.148554832E-1,9.880862236E0
2.004532302E0,-2.434697002E-1,-1.244267747E-1,9.878469467E0
2.006958291E0,-2.338984162E-1,-1.124626622E-1,9.883255005E0
2.009384229E0,-2.051845491E-1,-9.810572863E-2,9.864111900E0
2.011810218E0,-2.362912297E-1,-9.332008660E-2,9.856933594E0
2.014236208E0,-2.482553422E-1,-1.124626622E-1,9.883255005E0
2.016662197E0,-2.554338276E-1,-9.571290761E-2,9.868897438E0
2.019088187E0,-2.482553422E-1,-1.076770201E-1,9.876076698E0
2.021514124E0,-2.267199457E-1,-1.076770201E-1,9.890433311E0
2.023940114E0,-2.458625287E-1,-8.853443712E-2,9.885647774E0
2.026366104E0,-2.315055877E-1,-1.076770201E-1,9.895218849E0
2.028792093E0,-2.506481707E-1,-1.004985496E-1,9.876076698E0
2.031218031E0,-2.506481707E-1,-1.268195957E-1,9.864111900E0
2.033644020E0,-2.386840582E-1,-1.196411327E-1,9.888040543E0
2.036070010E0,-2.530409992E-1,-1.148554832E-1,9.885647774E0
2.038495999E0,-2.554338276E-1,-1.339980662E-1,9.866504669E0
2.040921989E0,-2.147558331E-1,-1.363908947E-1,9.866504669E0
2.043347927E0,-2.530409992E-1,-1.220339537E-1,9.876076698E0
2.045773916E0,-2.315055877E-1,-1.292124242E-1,9.885647774E0
2.048199906E0,-2.434697002E-1,-1.244267747E-1,9.868897438E0
2.050625895E0,-2.075773627E-1,-1.148554832E-1,9.868897438E0
2.053051833E0,-2.338984162E-1,-9.332008660E-2,9.902397156E0
2.055477822E0,-2.530409992E-1,-8.374879509E-2,9.871291161E0
2.057903812E0,-2.338984162E-1,-1.100698411E-1,9.888040543E0
2.060329802E0,-2.338984162E-1,-1.100698411E-1,9.876076698E0
2.062755791E0,-2.362912297E-1,-8.853443712E-2,9.866504669E0
2.065181729E0,-2.338984162E-1,-1.004985496E-1,9.871291161E0
2.067607718E0,-2.243271172E-1,-1.052841991E-1,9.856933594E0
2.070033708E0,-2.315055877E-1,-8.853443712E-2,9.880862236E0
2.072459697E0,-2.219343036E-1,-9.571290761E-2,9.864111900E0
2.074885687E0,-2.482553422E-1,-1.316052526E-1,9.876076698E0
2.077311624E0,-2.554338276E-1,-1.339980662E-1,9.868897438E0
2.079737614E0,-2.315055877E-1,-1.028913707E-1,9.871291161E0
2.082163604E0,-2.099701911E-1,-1.339980662E-1,9.883255005E0
2.084589593E0,-2.506481707E-1,-1.028913707E-1,9.880862236E0
2.087015531E0,-2.482553422E-1,-1.244267747E-1,9.866504669E0
2.089441520E0,-2.434697002E-1,-1.052841991E-1,9.888040543E0
2.091867510E0,-2.434697002E-1,-1.172483116E-1,9.866504669E0
2.094293499E0,-2.338984162E-1,-1.124626622E-1,9.885647774E0
2.096719489E0,-2.434697002E-1,-1.124626622E-1,9.880862236E0
2.099145427E0,-2.195414752E-1,-1.076770201E-1,9.871291161E0
2.101571416E0,-2.291127741E-1,-9.810572863E-2,9.885647774E0
2.103997406E0,-2.147558331E-1,-1.124626622E-1,9.895218849E0
2.106423395E0,-2.506481707E-1,-1.028913707E-1,9.890433311E0
2.108849333E0,-2.410768867E-1,-1.100698411E-1,9.885647774E0
2.111275322E0,-2.530409992E-1,-8.614161611E-2,9.873683929E0
2.113701312E0,-2.315055877E-1,-1.004985496E-1,9.888040543E0
2.116127302E0,-2.219343036E-1,-1.028913707E-1,9.880862236E0
2.118553291E0,-2.195414752E-1,-9.810572863E-2,9.880862236E0
2.120979229E0,-2.386840582E-1,-9.571290761E-2,9.878469467E0
2.123405218E0,-2.482553422E-1,-1.004985496E-1,9.885647774E0
2.125831208E0,-2.458625287E-1,-9.332008660E-2,9.873683929E0
2.128257197E0,-2.219343036E-1,-1.124626622E-1,9.876076698E0
2.130683187E0,-2.578266263E-1,-1.220339537E-1,9.895218849E0
2.133109124E0,-2.219343036E-1,-9.810572863E-2,9.871291161E0
2.135535114E0,-2.482553422E-1,-1.076770201E-1,9.873683929E0
2.137961104E0,-2.171486616E-1,-1.100698411E-1,9.876076698E0
2.140387093E0,-2.243271172E-1,-1.220339537E-1,9.890433311E0
2.142813031E0,-2.243271172E-1,-9.810572863E-2,9.890433311E0
2.145239020E0,-2.267199457E-1,-1.196411327E-1,9.897611618E0
2.147665010E0,-2.530409992E-1,-1.004985496E-1,9.900004387E0
2.150090999E0,-2.530409992E-1,-1.028913707E-1,9.888040543E0
2.152516989E0,-2.315055877E-1,-1.052841991E-1,9.880862236E0
2.154942927E0,-2.386840582E-1,-1.028913707E-1,9.888040543E0
2.157368916E0,-2.626122832E-1,-8.853443712E-2,9.871291161E0
2.159794906E0,-2.219343036E-1,-1.100698411E-1,9.890433311E0
2.162220895E0,-2.315055877E-1,-1.196411327E-1,9.866504669E0
2.164646833E0,-2.267199457E-1,-1.052841991E-1,9.868897438E0
2.167072822E0,-2.099701911E-1,-1.052841991E-1,9.852148056E0
2.169498812E0,-2.578266263E-1,-1.076770201E-1,9.873683929E0
2.171924802E0,-2.554338276E-1,-1.196411327E-1,9.890433311E0
2.174350791E0,-2.386840582E-1,-1.124626622E-1,9.880862236E0
2.176776729E0,-2.410768867E-1,-1.124626622E-1,9.878469467E0
2.179202718E0,-2.530409992E-1,-9.571290761E-2,9.883255005E0
2.181628708E0,-2.291127741E-1,-1.339980662E-1,9.878469467E0
2.184054697E0,-2.434697002E-1,-1.100698411E-1,9.885647774E0
2.186480635E0,-2.338984162E-1,-1.292124242E-1,9.873683929E0
2.188906624E0,-2.602194548E-1,-1.052841991E-1,9.864111900E0
2.191332614E0,-2.602194548E-1,-1.220339537E-1,9.866504669E0
2.193758604E0,-2.434697002E-1,-1.196411327E-1,9.904789925E0
2.196184593E0,-2.482553422E-1,-1.004985496E-1,9.895218849E0
2.198610531E0,-2.219343036E-1,-1.004985496E-1,9.859326363E0
2.201036520E0,-2.530409992E-1,-1.124626622E-1,9.859326363E0
2.203462510E0,-2.267199457E-1,-1.076770201E-1,9.892826080E0
2.205888499E0,-2.482553422E-1,-1.076770201E-1,9.892826080E0
2.208314437E0,-2.554338276E-1,-9.571290761E-2,9.880862236E0
2.210740427E0,-2.338984162E-1,-1.052841991E-1,9.876076698E0
2.213166416E0,-2.386840582E-1,-1.052841991E-1,9.890433311E0
2.215592406E0,-2.338984162E-1,-1.363908947E-1,9.883255005E0
2.218018395E0,-2.386840582E-1,-1.268195957E-1,9.868897438E0
2.220444333E0,-2.434697002E-1,-1.028913707E-1,9.868897438E0
2.222870322E0,-2.434697002E-1,-1.220339537E-1,9.871291161E0
2.225296312E0,-2.530409992E-1,-1.292124242E-1,9.873683929E0
2.227722302E0,-2.386840582E-1,-1.196411327E-1,9.876076698E0
2.230148239E0,-2.506481707E-1,-1.172483116E-1,9.871291161E0
2.232574229E0,-2.410768867E-1,-9.332008660E-2,9.888040543E0
2.235000218E0,-2.362912297E-1,-1.148554832E-1,9.878469467E0
2.237426208E0,-2.291127741E-1,-1.028913707E-1,9.864111900E0
2.239852197E0,-2.267199457E-1,-8.614161611E-2,9.873683929E0
2.242278135E0,-2.195414752E-1,-1.148554832E-1,9.861719131E0
2.244704124E0,-2.315055877E-1,-1.052841991E-1,9.871291161E0
2.247130114E0,-2.243271172E-1,-9.332008660E-2,9.880862236E0
2.249556104E0,-2.410768867E-1,-1.148554832E-1,9.880862236E0
2.251982093E0,-2.362912297E-1,-9.092725813E-2,9.878469467E0
2.254408031E0,-2.410768867E-1,-1.052841991E-1,9.880862236E0
2.256834020E0,-2.315055877E-1,-1.148554832E-1,9.900004387E0
2.259260010E0,-2.482553422E-1,-1.148554832E-1,9.900004387E0
2.261685999E0,-2.195414752E-1,-1.148554832E-1,9.885647774E0
2.264111989E0,-2.291127741E-1,-9.571290761E-2,9.897611618E0
2.266537927E0,-2.458625287E-1,-1.124626622E-1,9.878469467E0
2.268963916E0,-2.338984162E-1,-9.332008660E-2,9.878469467E0
2.271389906E0,-2.650051117E-1,-1.100698411E-1,9.864111900E0
2.273815895E0,-2.243271172E-1,-1.052841991E-1,9.878469467E0
2.276241833E0,-2.482553422E-1,-1.148554832E-1,9.883255005E0
2.278667822E0,-2.530409992E-1,-1.124626622E-1,9.878469467E0
2.281093812E0,-2.338984162E-1,-9.810572863E-2,9.900004387E0
2.283519802E0,-2.195414752E-1,-1.172483116E-1,9.888040543E0
2.285945791E0,-2.530409992E-1,-8.135596663E-2,9.876076698E0
2.288371729E0,-2.362912297E-1,-1.052841991E-1,9.864111900E0
2.290797718E0,-2.458625287E-1,-1.052841991E-1,9.883255005E0
2.293223708E0,-2.530409992E-1,-9.092725813E-2,9.892826080E0
2.295649697E0,-2.482553422E-1,-1.292124242E-1,9.883255005E0
2.298075635E0,-2.482553422E-1,-1.196411327E-1,9.885647774E0
2.300501624E0,-2.506481707E-1,-1.148554832E-1,9.871291161E0
2.302927614E0,-2.362912297E-1,-1.028913707E-1,9.885647774E0
2.305353604E0,-2.267199457E-1,-1.244267747E-1,9.873683929E0
2.307779593E0,-2.315055877E-1,-1.124626622E-1,9.883255005E0
2.310205531E0,-2.410768867E-1,-1.148554832E-1,9.885647774E0
2.312631520E0,-2.338984162E-1,-9.092725813E-2,9.876076698E0
2.315057510E0,-2.506481707E-1,-1.124626622E-1,9.883255005E0
2.317483499E0,-2.458625287E-1,-9.571290761E-2,9.883255005E0
2.319909437E0,-2.291127741E-1,-9.571290761E-2,9.878469467E0
2.322335427E0,-2.267199457E-1,-1.052841991E-1,9.876076698E0
2.324761416E0,-2.219343036E-1,-9.571290761E-2,9.868897438E0
2.327187406E0,-2.315055877E-1,-1.052841991E-1,9.876076698E0
2.329613395E0,-2.386840582E-1,-9.810572863E-2,9.878469467E0
2.332039333E0,-2.410768867E-1,-1.339980662E-1,9.880862236E0
2.334465322E0,-2.482553422E-1,-1.220339537E-1,9.883255005E0
2.336891312E0,-2.458625287E-1,-1.100698411E-1,9.880862236E0
2.339317302E0,-2.338984162E-1,-1.028913707E-1,9.880862236E0
2.341743291E0,-2.123630047E-1,-1.052841991E-1,9.892826080E0
2.344169229E0,-2.315055877E-1,-1.028913707E-1,9.864111900E0
2.346595218E0,-2.338984162E-1,-1.052841991E-1,9.880862236E0
2.349021208E0,-2.386840582E-1,-9.332008660E-2,9.904789925E0
2.351447197E0,-2.291127741E-1,-1.076770201E-1,9.878469467E0
2.353873135E0,-2.267199457E-1,-9.332008660E-2,9.897611618E0
2.356299124E0,-2.219343036E-1,-1.100698411E-1,9.880862236E0
2.358725114E0,-2.267199457E-1,-9.092725813E-2,9.892826080E0
2.361151104E0,-2.697907388E-1,-1.196411327E-1,9.866504669E0
2.363577041E0,-2.315055877E-1,-1.244267747E-1,9.868897438E0
2.366003031E0,-2.291127741E-1,-1.100698411E-1,9.868897438E0
2.368429020E0,-2.506481707E-1,-1.052841991E-1,9.873683929E0
2.370855010E0,-2.338984162E-1,-1.028913707E-1,9.876076698E0
2.373280999E0,-2.243271172E-1,-1.172483116E-1,9.883255005E0
2.375706937E0,-2.291127741E-1,-1.148554832E-1,9.888040543E0
2.378132927E0,-2.291127741E-1,-1.220339537E-1,9.852148056E0
2.380558916E0,-2.602194548E-1,-1.220339537E-1,9.880862236E0
2.382984906E0,-2.243271172E-1,-1.100698411E-1,9.880862236E0
2.385410895E0,-2.291127741E-1,-1.148554832E-1,9.883255005E0
2.387836833E0,-2.410768867E-1,-1.244267747E-1,9.890433311E0
2.390262822E0,-2.530409992E-1,-1.268195957E-1,9.880862236E0
2.392688812E0,-2.338984162E-1,-1.220339537E-1,9.878469467E0
2.395114802E0,-2.506481707E-1,-1.196411327E-1,9.888040543E0
2.397540791E0,-2.410768867E-1,-1.411765367E-1,9.866504669E0
2.399966729E0,-2.291127741E-1,-1.220339537E-1,9.888040543E0
2.402392718E0,-2.219343036E-1,-9.810572863E-2,9.890433311E0
2.404818708E0,-2.315055877E-1,-1.220339537E-1,9.866504669E0
2.407244697E0,-2.410768867E-1,-1.196411327E-1,9.890433311E0
2.409670635E0,-2.386840582E-1,-1.196411327E-1,9.895218849E0
2.412096624E0,-2.315055877E-1,-1.052841991E-1,9.895218849E0
2.414522614E0,-2.362912297E-1,-1.124626622E-1,9.876076698E0
2.416948604E0,-2.506481707E-1,-1.220339537E-1,9.859326363E0
2.419374593E0,-2.530409992E-1,-1.268195957E-1,9.866504669E0
2.421800531E0,-2.554338276E-1,-1.292124242E-1,9.890433311E0
2.424226520E0,-2.458625287E-1,-1.244267747E-1,9.888040543E0
2.426652510E0,-2.362912297E-1,-1.004985496E-1,9.883255005E0
2.429078499E0,-2.554338276E-1,-1.100698411E-1,9.861719131E0
2.431504489E0,-2.386840582E-1,-1.076770201E-1,9.864111900E0
2.433930427E0,-2.434697002E-1,-1.124626622E-1,9.880862236E0
2.436356416E0,-2.147558331E-1,-9.332008660E-2,9.885647774E0
2.438782406E0,-2.267199457E-1,-9.810572863E-2,9.868897438E0
2.441208395E0,-2.267199457E-1,-1.196411327E-1,9.876076698E0
2.443634333E0,-2.219343036E-1,-1.172483116E-1,9.878469467E0
2.446060322E0,-2.458625287E-1,-1.124626622E-1,9.861719131E0
2.448486312E0,-2.315055877E-1,-1.004985496E-1,9.878469467E0
2.450912302E0,-2.506481707E-1,-7.657032460E-2,9.876076698E0
2.453338291E0,-2.458625287E-1,-1.076770201E-1,9.878469467E0
2.455764229E0,-2.362912297E-1,-1.124626622E-1,9.883255005E0
2.458190218E0,-2.578266263E-1,-1.076770201E-1,9.892826080E0
2.460616208E0,-2.386840582E-1,-1.076770201E-1,9.888040543E0
2.463042197E0,-2.410768867E-1,-1.172483116E-1,9.890433311E0
2.465468135E0,-2.386840582E-1,-9.810572863E-2,9.900004387E0
2.467894124E0,-2.147558331E-1,-1.100698411E-1,9.883255005E0
2.470320114E0,-2.458625287E-1,-1.004985496E-1,9.878469467E0
2.472746104E0,-2.506481707E-1,-1.292124242E-1,9.885647774E0
2.475172093E0,-2.482553422E-1,-1.028913707E-1,9.880862236E0
2.477598031E0,-2.482553422E-1,-1.028913707E-1,9.871291161E0
2.480024020E0,-2.315055877E-1,-1.100698411E-1,9.895218849E0
2.482450010E0,-2.291127741E-1,-9.332008660E-2,9.890433311E0
2.484875999E0,-2.243271172E-1,-1.148554832E-1,9.880862236E0
2.487301989E0,-2.267199457E-1,-1.100698411E-1,9.873683929E0
2.489727927E0,-2.291127741E-1,-1.100698411E-1,9.880862236E0
2.492153916E0,-2.315055877E-1,-1.172483116E-1,9.890433311E0
2.494579906E0,-2.458625287E-1,-1.076770201E-1,9.883255005E0
2.497005895E0,-2.267199457E-1,-1.316052526E-1,9.878469467E0
2.499431833E0,-2.434697002E-1,-1.220339537E-1,9.890433311E0
2.501857822E0,-2.338984162E-1,-9.571290761E-2,9.873683929E0
2.504283812E0,-2.386840582E-1,-1.316052526E-1,9.868897438E0
2.506709802E0,-2.315055877E-1,-1.339980662E-1,9.880862236E0
2.509135791E0,-2.171486616E-1,-1.148554832E-1,9.885647774E0
2.511561729E0,-2.243271172E-1,-1.004985496E-1,9.885647774E0
2.513987718E0,-2.291127741E-1,-1.244267747E-1,9.890433311E0
2.516413708E0,-2.410768867E-1,-9.092725813E-2,9.880862236E0
2.518839697E0,-2.530409992E-1,-9.810572863E-2,9.883255005E0
2.521265635E0,-2.338984162E-1,-1.052841991E-1,9.878469467E0
2.523691624E0,-2.338984162E-1,-1.004985496E-1,9.876076698E0
2.526117614E0,-2.434697002E-1,-1.052841991E-1,9.876076698E0
2.528543604E0,-2.243271172E-1,-1.100698411E-1,9.880862236E0
2.530969541E0,-2.362912297E-1,-1.172483116E-1,9.868897438E0
2.533395531E0,-2.291127741E-1,-9.810572863E-2,9.852148056E0
2.535821520E0,-2.338984162E-1,-1.100698411E-1,9.885647774E0
2.538247510E0,-2.362912297E-1,-1.268195957E-1,9.876076698E0
2.540673499E0,-2.267199457E-1,-1.004985496E-1,9.868897438E0
2.543099437E0,-2.482553422E-1,-8.853443712E-2,9.861719131E0
2.545525427E0,-2.338984162E-1,-9.092725813E-2,9.876076698E0
2.547951416E0,-2.482553422E-1,-1.220339537E-1,9.885647774E0
2.550377406E0,-2.721835673E-1,-1.100698411E-1,9.876076698E0
2.552803395E0,-2.434697002E-1,-1.076770201E-1,9.873683929E0
2.555229333E0,-2.626122832E-1,-1.076770201E-1,9.873683929E0
2.557655322E0,-2.482553422E-1,-1.124626622E-1,9.873683929E0
2.560081312E0,-2.267199457E-1,-1.100698411E-1,9.897611618E0
2.562507302E0,-2.362912297E-1,-1.100698411E-1,9.866504669E0
2.564933291E0,-2.434697002E-1,-1.004985496E-1,9.895218849E0
2.567359229E0,-2.075773627E-1,-1.028913707E-1,9.883255005E0
2.569785218E0,-2.386840582E-1,-1.004985496E-1,9.883255005E0
2.572211208E0,-2.315055877E-1,-1.100698411E-1,9.883255005E0
2.574637197E0,-2.243271172E-1,-1.052841991E-1,9.888040543E0
2.577063135E0,-2.243271172E-1,-9.571290761E-2,9.876076698E0
2.579489124E0,-2.434697002E-1,-1.004985496E-1,9.900004387E0
2.581915114E0,-2.291127741E-1,-9.810572863E-2,9.895218849E0
2.584341104E0,-2.458625287E-1,-1.196411327E-1,9.890433311E0
2.586767093E0,-2.386840582E-1,-9.092725813E-2,9.871291161E0
2.589193031E0,-2.267199457E-1,-1.052841991E-1,9.885647774E0
2.591619020E0,-2.267199457E-1,-1.100698411E-1,9.883255005E0
2.594045010E0,-2.171486616E-1,-9.092725813E-2,9.895218849E0
2.596470999E0,-2.315055877E-1,-1.028913707E-1,9.880862236E0
2.598896989E0,-2.315055877E-1,-1.004985496E-1,9.866504669E0
2.601322927E0,-2.195414752E-1,-1.004985496E-1,9.907182693E0
2.603748916E0,-2.243271172E-1,-1.172483116E-1,9.866504669E0
2.606174906E0,-2.267199457E-1,-9.332008660E-2,9.878469467E0
2.608600895E0,-2.219343036E-1,-1.148554832E-1,9.873683929E0
2.611026833E0,-2.338984162E-1,-1.124626622E-1,9.871291161E0
2.613452822E0,-2.315055877E-1,-1.052841991E-1,9.900004387E0
2.615878812E0,-2.338984162E-1,-1.148554832E-1,9.900004387E0
2.618304802E0,-2.219343036E-1,-1.124626622E-1,9.878469467E0
2.620730791E0,-2.243271172E-1,-9.810572863E-2,9.878469467E0
2.623156729E0,-2.673979402E-1,-1.124626622E-1,9.895218849E0
2.625582718E0,-2.386840582E-1,-1.124626622E-1,9.878469467E0
2.628008708E0,-2.386840582E-1,-1.004985496E-1,9.888040543E0
2.630434697E0,-2.362912297E-1,-9.332008660E-2,9.888040543E0
2.632860687E0,-2.386840582E-1,-1.124626622E-1,9.876076698E0
2.635286624E0,-2.315055877E-1,-1.052841991E-1,9.890433311E0
2.637712614E0,-2.386840582E-1,-1.004985496E-1,9.866504669E0
2.640138604E0,-2.338984162E-1,-8.853443712E-2,9.880862236E0
2.642564593E0,-2.434697002E-1,-9.571290761E-2,9.871291161E0
2.644990531E0,-2.291127741E-1,-1.076770201E-1,9.849755287E0
2.647416520E0,-2.362912297E-1,-1.004985496E-1,9.861719131E0
2.649842510E0,-2.482553422E-1,-9.810572863E-2,9.883255005E0
2.652268499E0,-2.578266263E-1,-1.268195957E-1,9.871291161E0
2.654694437E0,-2.602194548E-1,-1.004985496E-1,9.888040543E0
2.657120427E0,-2.362912297E-1,-9.810572863E-2,9.892826080E0
2.659546416E0,-2.267199457E-1,-1.028913707E-1,9.864111900E0
2.661972406E0,-2.386840582E-1,-1.004985496E-1,9.895218849E0
2.664398395E0,-2.673979402E-1,-1.100698411E-1,9.880862236E0
2.666824333E0,-2.410768867E-1,-9.092725813E-2,9.880862236E0
2.669250322E0,-2.338984162E-1,-1.004985496E-1,9.868897438E0
2.671676312E0,-2.362912297E-1,-1.148554832E-1,9.878469467E0
2.674102302E0,-2.291127741E-1,-1.100698411E-1,9.900004387E0
2.676528291E0,-2.099701911E-1,-8.374879509E-2,9.892826080E0
2.678954229E0,-2.362912297E-1,-1.004985496E-1,9.868897438E0
2.681380218E0,-2.291127741E-1,-1.220339537E-1,9.880862236E0
2.683806208E0,-2.386840582E-1,-1.124626622E-1,9.883255005E0
2.686232197E0,-2.171486616E-1,-1.148554832E-1,9.871291161E0
2.688658187E0,-2.315055877E-1,-9.571290761E-2,9.873683929E0
2.691084124E0,-2.434697002E-1,-1.004985496E-1,9.871291161E0
2.693510114E0,-2.506481707E-1,-7.657032460E-2,9.888040543E0
2.695936104E0,-2.410768867E-1,-1.052841991E-1,9.868897438E0
2.698362093E0,-2.243271172E-1,-1.052841991E-1,9.876076698E0
2.700788031E0,-2.434697002E-1,-1.196411327E-1,9.868897438E0
2.703214020E0,-2.458625287E-1,-9.810572863E-2,9.876076698E0
2.705640010E0,-2.530409992E-1,-9.571290761E-2,9.878469467E0
2.708065999E0,-2.386840582E-1,-1.052841991E-1,9.876076698E0
2.710491989E0,-2.147558331E-1,-1.076770201E-1,9.885647774E0
2.712917927E0,-2.219343036E-1,-9.332008660E-2,9.900004387E0
2.715343916E0,-2.291127741E-1,-9.332008660E-2,9.907182693E0
2.717769906E0,-2.267199457E-1,-1.124626622E-1,9.866504669E0
2.720195895E0,-2.578266263E-1,-1.148554832E-1,9.876076698E0
2.722621885E0,-2.554338276E-1,-1.028913707E-1,9.880862236E0
2.725047822E0,-2.147558331E-1,-1.172483116E-1,9.871291161E0
2.727473812E0,-2.410768867E-1,-1.124626622E-1,9.878469467E0
2.729899802E0,-2.434697002E-1,-1.148554832E-1,9.873683929E0
2.732325791E0,-2.362912297E-1,-1.028913707E-1,9.876076698E0
2.734751729E0,-2.171486616E-1,-1.172483116E-1,9.883255005E0
2.737177718E0,-2.482553422E-1,-1.196411327E-1,9.871291161E0
2.739603708E0,-2.434697002E-1,-1.387837082E-1,9.868897438E0
2.742029697E0,-2.362912297E-1,-1.220339537E-1,9.895218849E0
2.744455687E0,-2.219343036E-1,-1.076770201E-1,9.878469467E0
2.746881624E0,-2.434697002E-1,-1.004985496E-1,9.890433311E0
2.749307614E0,-2.530409992E-1,-1.004985496E-1,9.895218849E0
2.751733604E0,-2.482553422E-1,-1.124626622E-1,9.878469467E0
2.754159593E0,-2.410768867E-1,-9.332008660E-2,9.892826080E0
2.756585583E0,-2.243271172E-1,-9.571290761E-2,9.888040543E0
2.759011520E0,-2.458625287E-1,-1.220339537E-1,9.890433311E0
2.761437510E0,-2.075773627E-1,-1.196411327E-1,9.897611618E0
2.763863499E0,-2.315055877E-1,-9.810572863E-2,9.909575462E0
2.766289489E0,-2.123630047E-1,-9.810572863E-2,9.880862236E0
2.768715427E0,-2.458625287E-1,-9.332008660E-2,9.876076698E0
2.771141416E0,-2.554338276E-1,-9.571290761E-2,9.876076698E0
2.773567406E0,-2.482553422E-1,-1.196411327E-1,9.880862236E0
2.775993395E0,-2.315055877E-1,-7.657032460E-2,9.888040543E0
2.778419385E0,-2.362912297E-1,-1.004985496E-1,9.885647774E0
2.780845322E0,-2.315055877E-1,-1.052841991E-1,9.873683929E0
2.783271312E0,-2.315055877E-1,-8.853443712E-2,9.871291161E0
2.785697302E0,-2.338984162E-1,-9.332008660E-2,9.878469467E0
2.788123291E0,-2.267199457E-1,-1.172483116E-1,9.859326363E0
2.790549229E0,-2.267199457E-1,-1.052841991E-1,9.871291161E0
2.792975218E0,-2.267199457E-1,-1.220339537E-1,9.892826080E0
2.795401208E0,-2.506481707E-1,-1.172483116E-1,9.885647774E0
2.797827197E0,-2.650051117E-1,-1.196411327E-1,9.883255005E0
2.800253187E0,-2.482553422E-1,-1.148554832E-1,9.880862236E0
2.802679124E0,-2.554338276E-1,-9.332008660E-2,9.883255005E0
2.805105114E0,-2.291127741E-1,-1.076770201E-1,9.888040543E0
2.807531104E0,-2.243271172E-1,-1.244267747E-1,9.888040543E0
2.809957093E0,-2.219343036E-1,-1.148554832E-1,9.878469467E0
2.812383083E0,-2.362912297E-1,-1.052841991E-1,9.878469467E0
2.814809020E0,-2.362912297E-1,-1.100698411E-1,9.861719131E0
2.817235010E0,-2.554338276E-1,-1.268195957E-1,9.883255005E0
2.819660999E0,-2.458625287E-1,-1.268195957E-1,9.873683929E0
2.822086989E0,-2.386840582E-1,-1.387837082E-1,9.878469467E0
2.824512927E0,-2.267199457E-1,-1.339980662E-1,9.895218849E0
2.826938916E0,-2.482553422E-1,-1.052841991E-1,9.883255005E0
2.829364906E0,-2.243271172E-1,-1.124626622E-1,9.880862236E0
2.831790895E0,-2.315055877E-1,-1.148554832E-1,9.888040543E0
2.834216885E0,-2.315055877E-1,-8.614161611E-2,9.878469467E0
2.836642822E0,-2.434697002E-1,-1.076770201E-1,9.900004387E0
2.839068812E0,-2.434697002E-1,-1.172483116E-1,9.868897438E0
2.841494802E0,-2.267199457E-1,-1.148554832E-1,9.880862236E0
2.843920791E0,-2.506481707E-1,-1.316052526E-1,9.878469467E0
2.846346781E0,-2.578266263E-1,-1.028913707E-1,9.873683929E0
2.848772718E0,-2.362912297E-1,-9.332008660E-2,9.885647774E0
2.851198708E0,-2.291127741E-1,-1.052841991E-1,9.885647774E0
2.853624697E0,-2.578266263E-1,-8.853443712E-2,9.885647774E0
2.856050687E0,-2.410768867E-1,-9.571290761E-2,9.876076698E0
2.858476677E0,-2.338984162E-1,-1.028913707E-1,9.876076698E0
2.860902614E0,-2.291127741E-1,-1.172483116E-1,9.876076698E0
2.863328604E0,-2.195414752E-1,-1.196411327E-1,9.885647774E0
2.865754593E0,-2.362912297E-1,-1.124626622E-1,9.871291161E0
2.868180583E0,-2.315055877E-1,-9.092725813E-2,9.871291161E0
2.870606572E0,-2.554338276E-1,-1.100698411E-1,9.878469467E0
2.873032510E0,-2.458625287E-1,-1.076770201E-1,9.895218849E0
2.875458499E0,-2.315055877E-1,-1.100698411E-1,9.873683929E0
2.877884489E0,-2.410768867E-1,-1.244267747E-1,9.861719131E0
2.880310479E0,-2.530409992E-1,-1.172483116E-1,9.880862236E0
2.882736416E0,-2.434697002E-1,-1.124626622E-1,9.876076698E0
2.885162406E0,-2.362912297E-1,-1.052841991E-1,9.880862236E0
2.887588395E0,-2.338984162E-1,-1.028913707E-1,9.880862236E0
2.890014385E0,-2.195414752E-1,-1.028913707E-1,9.883255005E0
2.892440322E0,-2.482553422E-1,-1.004985496E-1,9.871291161E0
2.894866312E0,-2.267199457E-1,-1.004985496E-1,9.880862236E0
2.897292302E0,-2.027917206E-1,-9.571290761E-2,9.866504669E0
2.899718291E0,-2.267199457E-1,-1.100698411E-1,9.878469467E0
2.902144281E0,-2.386840582E-1,-1.244267747E-1,9.880862236E0
2.904570218E0,-2.386840582E-1,-1.196411327E-1,9.890433311E0
2.906996208E0,-2.530409992E-1,-1.124626622E-1,9.890433311E0
2.909422197E0,-2.410768867E-1,-1.052841991E-1,9.873683929E0
2.911848187E0,-2.458625287E-1,-1.196411327E-1,9.866504669E0
2.914274177E0,-2.315055877E-1,-9.092725813E-2,9.888040543E0
2.916700114E0,-2.554338276E-1,-1.052841991E-1,9.873683929E0
2.919126104E0,-2.267199457E-1,-1.052841991E-1,9.873683929E0
2.921552093E0,-2.267199457E-1,-9.092725813E-2,9.892826080E0
2.923978083E0,-2.410768867E-1,-1.076770201E-1,9.885647774E0
2.926404072E0,-2.315055877E-1,-9.810572863E-2,9.868897438E0
2.928830010E0,-2.315055877E-1,-1.172483116E-1,9.880862236E0
2.931255999E0,-2.602194548E-1,-1.220339537E-1,9.864111900E0
2.933681989E0,-2.291127741E-1,-9.571290761E-2,9.871291161E0
2.936107979E0,-2.386840582E-1,-9.810572863E-2,9.883255005E0
2.938533916E0,-2.171486616E-1,-1.172483116E-1,9.883255005E0
2.940959906E0,-2.267199457E-1,-1.100698411E-1,9.883255005E0
2.943385895E0,-2.362912297E-1,-1.028913707E-1,9.890433311E0
2.945811885E0,-2.458625287E-1,-1.196411327E-1,9.902397156E0
2.948237822E0,-2.362912297E-1,-9.810572863E-2,9.892826080E0
2.950663812E0,-2.315055877E-1,-1.244267747E-1,9.873683929E0
2.953089802E0,-2.434697002E-1,-1.172483116E-1,9.878469467E0
2.955515791E0,-2.219343036E-1,-1.004985496E-1,9.876076698E0
2.957941781E0,-2.243271172E-1,-1.244267747E-1,9.880862236E0
2.960367718E0,-2.267199457E-1,-1.196411327E-1,9.871291161E0
2.962793708E0,-2.243271172E-1,-1.196411327E-1,9.883255005E0
2.965219697E0,-2.386840582E-1,-1.076770201E-1,9.883255005E0
2.967645687E0,-2.219343036E-1,-1.028913707E-1,9.895218849E0
2.970071677E0,-2.410768867E-1,-1.124626622E-1,9.888040543E0
2.972497614E0,-2.315055877E-1,-1.052841991E-1,9.866504669E0
2.974923604E0,-2.386840582E-1,-1.052841991E-1,9.895218849E0
2.977349593E0,-2.482553422E-1,-1.268195957E-1,9.888040543E0
2.979775583E0,-2.338984162E-1,-1.052841991E-1,9.880862236E0
2.982201520E0,-2.434697002E-1,-1.172483116E-1,9.864111900E0
2.984627510E0,-2.338984162E-1,-1.244267747E-1,9.876076698E0
2.987053499E0,-2.147558331E-1,-1.220339537E-1,9.866504669E0
2.989479489E0,-2.386840582E-1,-1.028913707E-1,9.885647774E0
2.991905479E0,-2.410768867E-1,-1.076770201E-1,9.876076698E0
2.994331416E0,-2.147558331E-1,-1.052841991E-1,9.888040543E0
2.996757406E0,-2.410768867E-1,-8.135596663E-2,9.883255005E0
2.999183395E0,-2.530409992E-1,-1.124626622E-1,9.868897438E0
3.001609385E0,-2.410768867E-1,-1.028913707E-1,9.880862236E0
3.004035374E0,-2.362912297E-1,-1.196411327E-1,9.902397156E0
3.006461312E0,-1.980060786E-1,-9.092725813E-2,9.885647774E0
3.008887302E0,-2.386840582E-1,-8.853443712E-2,9.880862236E0
3.011313291E0,-2.171486616E-1,-9.810572863E-2,9.871291161E0
3.013739281E0,-2.362912297E-1,-1.028913707E-1,9.864111900E0
3.016165270E0,-2.410768867E-1,-1.244267747E-1,9.866504669E0
3.018591208E0,-2.147558331E-1,-1.052841991E-1,9.885647774E0
3.021017197E0,-2.386840582E-1,-1.076770201E-1,9.900004387E0
3.023443187E0,-2.410768867E-1,-1.100698411E-1,9.883255005E0
3.025869177E0,-2.195414752E-1,-1.004985496E-1,9.890433311E0
3.028295166E0,-2.434697002E-1,-1.028913707E-1,9.878469467E0
3.030721104E0,-2.410768867E-1,-8.614161611E-2,9.878469467E0
3.033147093E0,-2.506481707E-1,-1.268195957E-1,9.892826080E0
3.035573083E0,-2.434697002E-1,-1.172483116E-1,9.876076698E0
3.037999072E0,-2.386840582E-1,-1.172483116E-1,9.873683929E0
3.040425010E0,-2.506481707E-1,-1.172483116E-1,9.888040543E0
3.042850999E0,-2.482553422E-1,-1.028913707E-1,9.878469467E0
3.045276989E0,-2.315055877E-1,-1.076770201E-1,9.878469467E0
3.047702979E0,-2.434697002E-1,-1.028913707E-1,9.885647774E0
3.050128968E0,-2.075773627E-1,-1.076770201E-1,9.847362518E0
3.052554906E0,-2.291127741E-1,-1.220339537E-1,9.895218849E0
3.054980895E0,-2.386840582E-1,-9.810572863E-2,9.880862236E0
3.057406885E0,-2.578266263E-1,-1.220339537E-1,9.868897438E0
3.059832874E0,-2.243271172E-1,-1.292124242E-1,9.866504669E0
3.062258812E0,-2.171486616E-1,-1.100698411E-1,9.868897438E0
3.064684802E0,-2.554338276E-1,-1.052841991E-1,9.876076698E0
3.067110791E0,-2.458625287E-1,-1.148554832E-1,9.885647774E0
3.069536781E0,-2.338984162E-1,-1.028913707E-1,9.866504669E0
3.071962770E0,-2.123630047E-1,-1.220339537E-1,9.890433311E0
3.074388708E0,-2.171486616E-1,-1.004985496E-1,9.885647774E0
3.076814697E0,-2.506481707E-1,-1.196411327E-1,9.890433311E0
3.079240687E0,-2.219343036E-1,-1.076770201E-1,9.885647774E0
3.081666677E0,-2.315055877E-1,-1.004985496E-1,9.871291161E0
3.084092666E0,-2.315055877E-1,-1.076770201E-1,9.885647774E0
3.086518604E0,-2.434697002E-1,-1.220339537E-1,9.892826080E0
3.088944593E0,-2.338984162E-1,-1.339980662E-1,9.897611618E0
3.091370583E0,-2.219343036E-1,-1.004985496E-1,9.885647774E0
3.093796572E0,-2.530409992E-1,-1.292124242E-1,9.878469467E0
3.096222562E0,-2.410768867E-1,-1.244267747E-1,9.871291161E0
3.098648499E0,-2.362912297E-1,-1.052841991E-1,9.883255005E0
3.101074489E0,-2.362912297E-1,-9.810572863E-2,9.876076698E0
3.103500479E0,-2.291127741E-1,-1.220339537E-1,9.876076698E0
3.105926468E0,-2.458625287E-1,-1.220339537E-1,9.859326363E0
3.108352406E0,-2.195414752E-1,-1.004985496E-1,9.868897438E0
3.110778395E0,-2.267199457E-1,-1.196411327E-1,9.878469467E0
3.113204385E0,-2.243271172E-1,-1.028913707E-1,9.880862236E0
3.115630374E0,-2.458625287E-1,-1.172483116E-1,9.885647774E0
3.118056364E0,-2.434697002E-1,-1.028913707E-1,9.890433311E0
3.120482302E0,-2.386840582E-1,-1.148554832E-1,9.876076698E0
3.122908291E0,-2.243271172E-1,-1.268195957E-1,9.900004387E0
3.125334281E0,-2.386840582E-1,-1.052841991E-1,9.876076698E0
3.127760270E0,-2.410768867E-1,-1.076770201E-1,9.868897438E0
3.130186208E0,-2.410768867E-1,-1.004985496E-1,9.873683929E0
3.132612197E0,-2.506481707E-1,-9.810572863E-2,9.895218849E0
3.135038187E0,-2.243271172E-1,-1.052841991E-1,9.885647774E0
3.137464177E0,-2.482553422E-1,-9.092725813E-2,9.885647774E0
3.139890166E0,-2.506481707E-1,-1.220339537E-1,9.883255005E0
3.142316156E0,-2.434697002E-1,-1.076770201E-1,9.880862236E0
3.144742093E0,-2.362912297E-1,-1.076770201E-1,9.878469467E0
3.147168083E0,-2.410768867E-1,-1.100698411E-1,9.885647774E0
3.149594072E0,-2.362912297E-1,-1.100698411E-1,9.892826080E0
3.152020062E0,-2.171486616E-1,-1.076770201E-1,9.895218849E0
3.154445999E0,-2.578266263E-1,-1.148554832E-1,9.873683929E0
3.156871989E0,-2.458625287E-1,-1.148554832E-1,9.861719131E0
3.159297979E0,-2.506481707E-1,-1.052841991E-1,9.873683929E0
3.161723968E0,-2.506481707E-1,-1.220339537E-1,9.890433311E0
3.164149906E0,-2.626122832E-1,-1.268195957E-1,9.871291161E0
3.166575895E0,-2.530409992E-1,-1.148554832E-1,9.852148056E0
3.169001885E0,-2.530409992E-1,-9.571290761E-2,9.876076698E0
3.171427874E0,-2.267199457E-1,-9.092725813E-2,9.871291161E0
3.173853864E0,-2.291127741E-1,-1.004985496E-1,9.883255005E0
3.176279802E0,-2.243271172E-1,-9.810572863E-2,9.885647774E0
3.178705791E0,-2.267199457E-1,-1.172483116E-1,9.864111900E0
3.181131781E0,-2.362912297E-1,-9.810572863E-2,9.859326363E0
3.183557770E0,-2.410768867E-1,-1.100698411E-1,9.885647774E0
3.185983760E0,-2.410768867E-1,-1.196411327E-1,9.890433311E0
3.188409697E0,-2.482553422E-1,-1.172483116E-1,9.878469467E0
3.190835687E0,-2.219343036E-1,-1.172483116E-1,9.878469467E0
3.193261677E0,-2.458625287E-1,-9.810572863E-2,9.873683929E0
3.195687666E0,-2.386840582E-1,-1.148554832E-1,9.883255005E0
3.198113656E0,-2.554338276E-1,-1.196411327E-1,9.856933594E0
3.200539593E0,-2.315055877E-1,-1.148554832E-1,9.888040543E0
3.202965583E0,-2.530409992E-1,-9.092725813E-2,9.907182693E0
3.205391572E0,-2.243271172E-1,-9.092725813E-2,9.883255005E0
3.207817562E0,-2.267199457E-1,-1.124626622E-1,9.902397156E0
3.210243499E0,-2.075773627E-1,-9.332008660E-2,9.871291161E0
3.212669489E0,-2.386840582E-1,-1.148554832E-1,9.883255005E0
3.215095479E0,-2.267199457E-1,-1.028913707E-1,9.878469467E0
3.217521468E0,-2.338984162E-1,-1.339980662E-1,9.871291161E0
3.219947458E0,-2.267199457E-1,-1.076770201E-1,9.892826080E0
3.222373395E0,-2.482553422E-1,-9.332008660E-2,9.885647774E0
3.224799385E0,-2.362912297E-1,-1.076770201E-1,9.888040543E0
3.227225374E0,-2.219343036E-1,-1.052841991E-1,9.883255005E0
3.229651364E0,-2.410768867E-1,-1.148554832E-1,9.883255005E0
3.232077302E0,-2.434697002E-1,-1.220339537E-1,9.897611618E0
3.234503291E0,-2.338984162E-1,-8.614161611E-2,9.883255005E0
3.236929281E0,-2.243271172E-1,-1.052841991E-1,9.873683929E0
3.239355270E0,-2.362912297E-1,-1.148554832E-1,9.890433311E0
3.241781260E0,-2.793620527E-1,-1.339980662E-1,9.883255005E0
3.244207197E0,-2.530409992E-1,-1.148554832E-1,9.876076698E0
3.246633187E0,-2.482553422E-1,-9.810572863E-2,9.880862236E0
3.249059177E0,-2.434697002E-1,-1.292124242E-1,9.878469467E0
3.251485166E0,-2.626122832E-1,-1.076770201E-1,9.866504669E0
3.253911156E0,-2.338984162E-1,-9.810572863E-2,9.885647774E0
3.256337093E0,-2.123630047E-1,-1.100698411E-1,9.888040543E0
3.258763083E0,-2.482553422E-1,-1.028913707E-1,9.868897438E0
3.261189072E0,-2.578266263E-1,-9.332008660E-2,9.888040543E0
3.263615062E0,-2.530409992E-1,-1.148554832E-1,9.878469467E0
3.266040999E0,-2.410768867E-1,-1.316052526E-1,9.878469467E0
3.268466989E0,-2.338984162E-1,-9.810572863E-2,9.878469467E0
3.270892979E0,-2.147558331E-1,-1.220339537E-1,9.866504669E0
3.273318968E0,-2.434697002E-1,-1.148554832E-1,9.883255005E0
3.275744958E0,-2.291127741E-1,-1.172483116E-1,9.866504669E0
3.278170895E0,-2.075773627E-1,-7.896314561E-2,9.876076698E0
3.280596885E0,-2.219343036E-1,-1.124626622E-1,9.876076698E0
3.283022874E0,-2.315055877E-1,-1.268195957E-1,9.883255005E0
3.285448864E0,-2.362912297E-1,-1.244267747E-1,9.866504669E0
3.287874854E0,-2.458625287E-1,-1.148554832E-1,9.876076698E0
3.290300791E0,-2.482553422E-1,-9.810572863E-2,9.880862236E0
3.292726781E0,-2.267199457E-1,-1.172483116E-1,9.878469467E0
3.295152770E0,-2.386840582E-1,-9.571290761E-2,9.876076698E0
3.297578760E0,-2.315055877E-1,-1.028913707E-1,9.854540825E0
3.300004697E0,-2.482553422E-1,-1.124626622E-1,9.888040543E0
3.302430687E0,-2.602194548E-1,-1.100698411E-1,9.890433311E0
3.304856677E0,-2.338984162E-1,-1.100698411E-1,9.892826080E0
3.307282666E0,-2.291127741E-1,-1.124626622E-1,9.871291161E0
3.309708656E0,-2.338984162E-1,-1.196411327E-1,9.873683929E0
3.312134593E0,-2.171486616E-1,-9.571290761E-2,9.888040543E0
3.314560583E0,-2.075773627E-1,-1.100698411E-1,9.873683929E0
3.316986572E0,-2.027917206E-1,-1.196411327E-1,9.861719131E0
3.319412562E0,-2.362912297E-1,-1.100698411E-1,9.883255005E0
3.321838552E0,-2.123630047E-1,-1.052841991E-1,9.911968231E0
3.324264489E0,-2.362912297E-1,-1.076770201E-1,9.871291161E0
3.326690479E0,-2.386840582E-1,-1.076770201E-1,9.866504669E0
3.329116468E0,-2.434697002E-1,-1.124626622E-1,9.895218849E0
3.331542458E0,-2.338984162E-1,-1.076770201E-1,9.876076698E0
3.333968447E0,-2.410768867E-1,-1.316052526E-1,9.883255005E0
3.336394385E0,-2.482553422E-1,-1.052841991E-1,9.885647774E0
3.338820374E0,-2.362912297E-1,-1.148554832E-1,9.900004387E0
3.341246364E0,-2.291127741E-1,-1.220339537E-1,9.888040543E0
3.343672354E0,-2.123630047E-1,-1.100698411E-1,9.880862236E0
3.346098343E0,-2.506481707E-1,-9.571290761E-2,9.883255005E0
3.348524281E0,-2.243271172E-1,-1.244267747E-1,9.876076698E0
3.350950270E0,-2.530409992E-1,-1.100698411E-1,9.866504669E0
3.353376260E0,-2.291127741E-1,-1.028913707E-1,9.856933594E0
3.355802249E0,-2.338984162E-1,-9.092725813E-2,9.883255005E0
3.358228187E0,-2.362912297E-1,-8.614161611E-2,9.873683929E0
3.360654177E0,-2.482553422E-1,-9.810572863E-2,9.864111900E0
3.363080166E0,-2.338984162E-1,-9.332008660E-2,9.883255005E0
3.365506156E0,-2.482553422E-1,-9.092725813E-2,9.900004387E0
3.367932145E0,-2.195414752E-1,-8.614161611E-2,9.871291161E0
3.370358083E0,-2.315055877E-1,-9.332008660E-2,9.876076698E0
3.372784072E0,-2.003988922E-1,-1.100698411E-1,9.871291161E0
3.375210062E0,-2.338984162E-1,-1.028913707E-1,9.871291161E0
3.377636052E0,-2.362912297E-1,-1.004985496E-1,9.878469467E0
3.380061989E0,-2.171486616E-1,-1.148554832E-1,9.866504669E0
3.382487979E0,-2.386840582E-1,-1.052841991E-1,9.878469467E0
3.384913968E0,-2.315055877E-1,-1.172483116E-1,9.880862236E0
3.387339958E0,-2.410768867E-1,-9.810572863E-2,9.883255005E0
3.389765947E0,-2.147558331E-1,-1.124626622E-1,9.888040543E0
3.392191885E0,-2.315055877E-1,-1.052841991E-1,9.888040543E0
3.394617874E0,-2.195414752E-1,-9.810572863E-2,9.861719131E0
3.397043864E0,-2.386840582E-1,-1.172483116E-1,9.871291161E0
3.399469854E0,-2.338984162E-1,-9.571290761E-2,9.868897438E0
3.401895843E0,-2.243271172E-1,-9.571290761E-2,9.892826080E0
3.404321781E0,-2.291127741E-1,-1.004985496E-1,9.888040543E0
3.406747770E0,-2.219343036E-1,-1.244267747E-1,9.878469467E0
3.409173760E0,-2.362912297E-1,-1.220339537E-1,9.873683929E0
3.411599749E0,-2.362912297E-1,-1.148554832E-1,9.883255005E0
3.414025687E0,-2.434697002E-1,-1.004985496E-1,9.890433311E0
3.416451677E0,-2.338984162E-1,-1.052841991E-1,9.871291161E0
3.418877666E0,-2.434697002E-1,-9.332008660E-2,9.876076698E0
3.421303656E0,-2.338984162E-1,-1.076770201E-1,9.878469467E0
3.423729645E0,-2.315055877E-1,-1.124626622E-1,9.890433311E0
3.426155583E0,-2.243271172E-1,-9.092725813E-2,9.892826080E0
3.428581572E0,-2.530409992E-1,-9.810572863E-2,9.888040543E0
3.431007562E0,-2.291127741E-1,-1.172483116E-1,9.892826080E0
3.433433552E0,-2.338984162E-1,-1.004985496E-1,9.866504669E0
3.435859541E0,-2.362912297E-1,-1.076770201E-1,9.888040543E0
3.438285479E0,-2.482553422E-1,-1.052841991E-1,9.868897438E0
3.440711468E0,-2.530409992E-1,-1.220339537E-1,9.876076698E0
3.443137458E0,-2.458625287E-1,-1.148554832E-1,9.873683929E0
3.445563447E0,-2.602194548E-1,-1.100698411E-1,9.859326363E0
3.447989437E0,-2.410768867E-1,-1.052841991E-1,9.859326363E0
3.450415374E0,-2.386840582E-1,-1.004985496E-1,9.871291161E0
3.452841364E0,-2.219343036E-1,-8.614161611E-2,9.883255005E0
3.455267354E0,-2.434697002E-1,-1.196411327E-1,9.895218849E0
3.457693343E0,-2.434697002E-1,-1.076770201E-1,9.895218849E0
3.460119281E0,-2.219343036E-1,-9.571290761E-2,9.883255005E0
3.462545270E0,-2.291127741E-1,-1.268195957E-1,9.866504669E0
3.464971260E0,-2.243271172E-1,-1.052841991E-1,9.873683929E0
3.467397249E0,-2.458625287E-1,-1.172483116E-1,9.866504669E0
3.469823239E0,-2.267199457E-1,-1.052841991E-1,9.873683929E0
3.472249177E0,-2.338984162E-1,-1.148554832E-1,9.890433311E0
3.474675166E0,-2.267199457E-1,-1.004985496E-1,9.880862236E0
3.477101156E0,-2.386840582E-1,-1.052841991E-1,9.897611618E0
3.479527145E0,-2.410768867E-1,-9.810572863E-2,9.878469467E0
3.481953135E0,-2.315055877E-1,-1.124626622E-1,9.897611618E0
3.484379072E0,-2.291127741E-1,-1.100698411E-1,9.878469467E0
3.486805062E0,-2.434697002E-1,-1.028913707E-1,9.873683929E0
3.489231052E0,-2.099701911E-1,-1.124626622E-1,9.885647774E0
3.491657041E0,-2.410768867E-1,-1.220339537E-1,9.878469467E0
3.494083031E0,-2.482553422E-1,-1.076770201E-1,9.885647774E0
3.496508968E0,-2.434697002E-1,-9.571290761E-2,9.892826080E0
3.498934958E0,-2.506481707E-1,-9.810572863E-2,9.895218849E0
3.501360947E0,-2.506481707E-1,-1.076770201E-1,9.888040543E0
3.503786937E0,-2.338984162E-1,-1.148554832E-1,9.866504669E0
3.506212874E0,-2.362912297E-1,-9.571290761E-2,9.900004387E0
3.508638864E0,-2.362912297E-1,-1.052841991E-1,9.878469467E0
3.511064854E0,-2.338984162E-1,-1.100698411E-1,9.871291161E0
3.513490843E0,-2.458625287E-1,-1.339980662E-1,9.868897438E0
3.515916833E0,-2.506481707E-1,-1.196411327E-1,9.871291161E0
3.518342770E0,-2.386840582E-1,-1.028913707E-1,9.883255005E0
3.520768760E0,-2.530409992E-1,-1.100698411E-1,9.888040543E0
3.523194749E0,-2.243271172E-1,-1.076770201E-1,9.868897438E0
3.525620739E0,-2.410768867E-1,-1.148554832E-1,9.876076698E0
3.528046729E0,-2.410768867E-1,-9.571290761E-2,9.873683929E0
3.530472666E0,-2.315055877E-1,-8.853443712E-2,9.861719131E0
3.532898656E0,-2.338984162E-1,-8.614161611E-2,9.880862236E0
3.535324645E0,-2.458625287E-1,-1.028913707E-1,9.880862236E0
3.537750635E0,-2.673979402E-1,-1.100698411E-1,9.876076698E0
3.540176572E0,-2.338984162E-1,-9.332008660E-2,9.864111900E0
3.542602562E0,-2.410768867E-1,-8.135596663E-2,9.868897438E0
3.545028552E0,-2.291127741E-1,-1.244267747E-1,9.890433311E0
3.547454541E0,-2.362912297E-1,-1.100698411E-1,9.883255005E0
3.549880531E0,-2.267199457E-1,-1.100698411E-1,9.897611618E0
3.552306468E0,-2.267199457E-1,-8.853443712E-2,9.892826080E0
3.554732458E0,-2.338984162E-1,-1.076770201E-1,9.871291161E0
3.557158447E0,-2.338984162E-1,-1.196411327E-1,9.885647774E0
3.559584437E0,-2.267199457E-1,-1.268195957E-1,9.885647774E0
3.562010427E0,-2.410768867E-1,-1.100698411E-1,9.885647774E0
3.564436364E0,-2.410768867E-1,-1.052841991E-1,9.880862236E0
3.566862354E0,-2.243271172E-1,-1.124626622E-1,9.885647774E0
3.569288343E0,-2.099701911E-1,-7.896314561E-2,9.897611618E0
3.571714333E0,-2.315055877E-1,-1.076770201E-1,9.873683929E0
3.574140270E0,-2.362912297E-1,-1.124626622E-1,9.885647774E0
3.576566260E0,-2.506481707E-1,-1.100698411E-1,9.885647774E0
3.578992249E0,-2.482553422E-1,-1.148554832E-1,9.897611618E0
3.581418239E0,-2.123630047E-1,-1.172483116E-1,9.890433311E0
3.583844229E0,-2.482553422E-1,-1.004985496E-1,9.871291161E0
3.586270166E0,-2.123630047E-1,-1.172483116E-1,9.897611618E0
3.588696156E0,-2.171486616E-1,-1.100698411E-1,9.909575462E0
3.591122145E0,-2.482553422E-1,-1.196411327E-1,9.878469467E0
3.593548135E0,-2.578266263E-1,-9.571290761E-2,9.890433311E0
3.595974124E0,-2.410768867E-1,-1.076770201E-1,9.895218849E0
3.598400062E0,-2.315055877E-1,-1.052841991E-1,9.895218849E0
3.600826052E0,-2.243271172E-1,-1.100698411E-1,9.895218849E0
3.603252041E0,-2.267199457E-1,-1.124626622E-1,9.890433311E0
3.605678031E0,-2.410768867E-1,-8.853443712E-2,9.876076698E0
3.608103968E0,-2.458625287E-1,-8.614161611E-2,9.866504669E0
3.610529958E0,-2.315055877E-1,-1.100698411E-1,9.861719131E0
3.612955947E0,-2.291127741E-1,-1.028913707E-1,9.880862236E0
3.615381937E0,-2.386840582E-1,-1.076770201E-1,9.878469467E0
3.617807927E0,-2.386840582E-1,-1.004985496E-1,9.885647774E0
3.620233864E0,-2.315055877E-1,-1.292124242E-1,9.876076698E0
3.622659854E0,-2.291127741E-1,-1.172483116E-1,9.878469467E0
3.625085843E0,-2.315055877E-1,-1.076770201E-1,9.885647774E0
3.627511833E0,-2.267199457E-1,-1.028913707E-1,9.883255005E0
3.629937822E0,-2.386840582E-1,-1.004985496E-1,9.868897438E0
3.632363760E0,-2.267199457E-1,-9.810572863E-2,9.861719131E0
3.634789749E0,-2.362912297E-1,-8.374879509E-2,9.871291161E0
3.637215739E0,-2.315055877E-1,-9.571290761E-2,9.880862236E0
3.639641729E0,-2.554338276E-1,-1.100698411E-1,9.890433311E0
3.642067718E0,-2.338984162E-1,-9.092725813E-2,9.868897438E0
3.644493656E0,-2.458625287E-1,-9.332008660E-2,9.871291161E0
3.646919645E0,-2.721835673E-1,-1.148554832E-1,9.880862236E0
3.649345635E0,-2.602194548E-1,-1.268195957E-1,9.888040543E0
3.651771624E0,-2.315055877E-1,-1.076770201E-1,9.873683929E0
3.654197562E0,-2.315055877E-1,-1.148554832E-1,9.876076698E0
3.656623552E0,-2.338984162E-1,-9.571290761E-2,9.868897438E0
3.659049541E0,-2.458625287E-1,-1.004985496E-1,9.871291161E0
3.661475531E0,-2.338984162E-1,-1.004985496E-1,9.888040543E0
3.663901520E0,-2.530409992E-1,-1.292124242E-1,9.878469467E0
3.666327458E0,-2.267199457E-1,-1.052841991E-1,9.871291161E0
3.668753447E0,-2.506481707E-1,-1.124626622E-1,9.873683929E0
3.671179437E0,-2.506481707E-1,-1.028913707E-1,9.868897438E0
3.673605427E0,-2.362912297E-1,-9.810572863E-2,9.880862236E0
3.676031416E0,-2.123630047E-1,-1.196411327E-1,9.878469467E0
3.678457354E0,-2.291127741E-1,-1.004985496E-1,9.878469467E0
3.680883343E0,-2.482553422E-1,-1.076770201E-1,9.897611618E0
3.683309333E0,-2.410768867E-1,-1.076770201E-1,9.904789925E0
3.685735322E0,-2.195414752E-1,-1.100698411E-1,9.866504669E0
3.688161312E0,-2.482553422E-1,-1.076770201E-1,9.866504669E0
3.690587249E0,-2.506481707E-1,-9.332008660E-2,9.892826080E0
3.693013239E0,-2.147558331E-1,-8.374879509E-2,9.878469467E0
3.695439229E0,-2.195414752E-1,-9.810572863E-2,9.883255005E0
3.697865218E0,-2.338984162E-1,-9.332008660E-2,9.892826080E0
3.700291156E0,-2.386840582E-1,-1.292124242E-1,9.892826080E0
3.702717145E0,-2.362912297E-1,-1.124626622E-1,9.873683929E0
3.705143135E0,-2.171486616E-1,-1.124626622E-1,9.878469467E0
3.707569124E0,-2.482553422E-1,-1.339980662E-1,9.892826080E0
3.709995114E0,-2.386840582E-1,-1.100698411E-1,9.866504669E0
3.712421052E0,-2.291127741E-1,-8.853443712E-2,9.859326363E0
3.714847041E0,-2.458625287E-1,-9.571290761E-2,9.883255005E0
3.717273031E0,-2.386840582E-1,-9.571290761E-2,9.885647774E0
3.719699020E0,-2.506481707E-1,-1.004985496E-1,9.876076698E0
3.722125010E0,-2.243271172E-1,-1.076770201E-1,9.888040543E0
3.724550947E0,-2.362912297E-1,-9.810572863E-2,9.885647774E0
3.726976937E0,-2.458625287E-1,-1.124626622E-1,9.883255005E0
3.729402927E0,-2.482553422E-1,-1.004985496E-1,9.878469467E0
3.731828916E0,-2.338984162E-1,-1.004985496E-1,9.904789925E0
3.734254854E0,-2.243271172E-1,-1.124626622E-1,9.895218849E0
3.736680843E0,-2.458625287E-1,-1.028913707E-1,9.895218849E0
3.739106833E0,-2.506481707E-1,-9.092725813E-2,9.878469467E0
3.741532822E0,-2.099701911E-1,-9.810572863E-2,9.873683929E0
3.743958812E0,-2.458625287E-1,-9.092725813E-2,9.876076698E0
3.746384749E0,-2.410768867E-1,-1.028913707E-1,9.880862236E0
3.748810739E0,-2.434697002E-1,-1.172483116E-1,9.866504669E0
3.751236729E0,-2.434697002E-1,-1.196411327E-1,9.876076698E0
3.753662718E0,-2.291127741E-1,-1.052841991E-1,9.866504669E0
3.756088708E0,-2.482553422E-1,-1.292124242E-1,9.876076698E0
3.758514645E0,-2.458625287E-1,-1.196411327E-1,9.868897438E0
3.760940635E0,-2.362912297E-1,-1.124626622E-1,9.880862236E0
3.763366624E0,-2.338984162E-1,-1.196411327E-1,9.873683929E0
3.765792614E0,-2.626122832E-1,-1.220339537E-1,9.873683929E0
3.768218552E0,-2.578266263E-1,-1.244267747E-1,9.878469467E0
3.770644541E0,-2.410768867E-1,-1.148554832E-1,9.897611618E0
3.773070531E0,-2.506481707E-1,-1.004985496E-1,9.876076698E0
3.775496520E0,-2.362912297E-1,-1.076770201E-1,9.883255005E0
3.777922510E0,-2.219343036E-1,-1.435693651E-1,9.864111900E0
3.780348447E0,-2.219343036E-1,-1.172483116E-1,9.876076698E0
3.782774437E0,-2.195414752E-1,-1.076770201E-1,9.866504669E0
3.785200427E0,-2.458625287E-1,-1.100698411E-1,9.883255005E0
3.787626416E0,-2.434697002E-1,-1.196411327E-1,9.868897438E0
3.790052406E0,-2.482553422E-1,-1.172483116E-1,9.897611618E0
3.792478343E0,-2.099701911E-1,-1.124626622E-1,9.876076698E0
3.794904333E0,-2.338984162E-1,-8.853443712E-2,9.873683929E0
3.797330322E0,-2.291127741E-1,-9.810572863E-2,9.866504669E0
3.799756312E0,-2.315055877E-1,-1.148554832E-1,9.878469467E0
3.802182249E0,-2.291127741E-1,-1.172483116E-1,9.878469467E0
3.804608239E0,-2.410768867E-1,-1.100698411E-1,9.876076698E0
3.807034229E0,-2.219343036E-1,-9.332008660E-2,9.885647774E0
3.809460218E0,-2.267199457E-1,-1.196411327E-1,9.895218849E0
3.811886208E0,-2.267199457E-1,-1.076770201E-1,9.878469467E0
3.814312145E0,-2.338984162E-1,-1.148554832E-1,9.892826080E0
3.816738135E0,-2.291127741E-1,-1.052841991E-1,9.878469467E0
3.819164124E0,-2.410768867E-1,-1.052841991E-1,9.871291161E0
3.821590114E0,-2.267199457E-1,-1.196411327E-1,9.873683929E0
3.824016104E0,-2.267199457E-1,-1.100698411E-1,9.861719131E0
3.826442041E0,-2.578266263E-1,-1.028913707E-1,9.866504669E0
3.828868031E0,-2.410768867E-1,-1.172483116E-1,9.885647774E0
3.831294020E0,-2.267199457E-1,-1.196411327E-1,9.866504669E0
3.833720010E0,-2.099701911E-1,-1.220339537E-1,9.856933594E0
3.836145999E0,-2.673979402E-1,-1.292124242E-1,9.878469467E0
3.838571937E0,-2.434697002E-1,-1.028913707E-1,9.888040543E0
3.840997927E0,-2.386840582E-1,-1.363908947E-1,9.878469467E0
3.843423916E0,-2.530409992E-1,-1.052841991E-1,9.902397156E0
3.845849906E0,-2.362912297E-1,-1.363908947E-1,9.885647774E0
3.848275843E0,-2.147558331E-1,-1.244267747E-1,9.880862236E0
3.850701833E0,-2.123630047E-1,-1.196411327E-1,9.880862236E0
3.853127822E0,-2.291127741E-1,-1.244267747E-1,9.866504669E0
3.855553812E0,-2.434697002E-1,-1.172483116E-1,9.890433311E0
3.857979802E0,-2.554338276E-1,-8.374879509E-2,9.876076698E0
3.860405739E0,-2.267199457E-1,-1.052841991E-1,9.885647774E0
3.862831729E0,-2.291127741E-1,-1.244267747E-1,9.880862236E0
3.865257718E0,-2.291127741E-1,-1.100698411E-1,9.892826080E0
3.867683708E0,-2.291127741E-1,-1.124626622E-1,9.876076698E0
3.870109697E0,-2.530409992E-1,-1.220339537E-1,9.888040543E0
3.872535635E0,-2.434697002E-1,-1.339980662E-1,9.895218849E0
3.874961624E0,-2.267199457E-1,-9.571290761E-2,9.876076698E0
3.877387614E0,-2.267199457E-1,-1.124626622E-1,9.885647774E0
3.879813604E0,-2.362912297E-1,-1.148554832E-1,9.895218849E0
3.882239593E0,-2.626122832E-1,-1.124626622E-1,9.883255005E0
3.884665531E0,-2.315055877E-1,-1.220339537E-1,9.885647774E0
3.887091520E0,-2.410768867E-1,-1.052841991E-1,9.878469467E0
3.889517510E0,-2.386840582E-1,-1.244267747E-1,9.873683929E0
3.891943499E0,-2.578266263E-1,-1.052841991E-1,9.900004387E0
3.894369437E0,-2.458625287E-1,-9.332008660E-2,9.895218849E0
3.896795427E0,-2.530409992E-1,-1.220339537E-1,9.888040543E0
3.899221416E0,-2.410768867E-1,-1.220339537E-1,9.895218849E0
3.901647406E0,-2.482553422E-1,-1.244267747E-1,9.885647774E0
3.904073395E0,-2.578266263E-1,-1.244267747E-1,9.878469467E0
3.906499333E0,-2.578266263E-1,-1.100698411E-1,9.876076698E0
3.908925322E0,-2.315055877E-1,-7.417750359E-2,9.880862236E0
3.911351312E0,-2.291127741E-1,-8.135596663E-2,9.885647774E0
3.913777302E0,-2.171486616E-1,-1.100698411E-1,9.873683929E0
3.916203291E0,-2.410768867E-1,-1.148554832E-1,9.878469467E0
3.918629229E0,-2.458625287E-1,-1.220339537E-1,9.873683929E0
3.921055218E0,-2.338984162E-1,-1.004985496E-1,9.876076698E0
3.923481208E0,-2.338984162E-1,-1.004985496E-1,9.878469467E0
3.925907197E0,-2.482553422E-1,-1.196411327E-1,9.885647774E0
3.928333135E0,-2.362912297E-1,-1.100698411E-1,9.892826080E0
3.930759124E0,-2.434697002E-1,-1.052841991E-1,9.883255005E0
3.933185114E0,-2.291127741E-1,-9.810572863E-2,9.888040543E0
3.935611104E0,-2.147558331E-1,-1.148554832E-1,9.880862236E0
3.938037093E0,-2.315055877E-1,-9.332008660E-2,9.888040543E0
3.940463031E0,-2.458625287E-1,-1.052841991E-1,9.885647774E0
3.942889020E0,-2.410768867E-1,-1.220339537E-1,9.868897438E0
3.945315010E0,-2.482553422E-1,-1.292124242E-1,9.873683929E0
3.947740999E0,-2.410768867E-1,-1.100698411E-1,9.878469467E0
3.950166989E0,-2.315055877E-1,-1.004985496E-1,9.868897438E0
3.952592927E0,-2.219343036E-1,-1.028913707E-1,9.864111900E0
3.955018916E0,-2.219343036E-1,-1.292124242E-1,9.890433311E0
3.957444906E0,-2.362912297E-1,-1.028913707E-1,9.880862236E0
3.959870895E0,-2.458625287E-1,-1.339980662E-1,9.878469467E0
3.962296885E0,-2.458625287E-1,-1.292124242E-1,9.880862236E0
3.964722822E0,-2.315055877E-1,-1.052841991E-1,9.892826080E0
3.967148812E0,-2.386840582E-1,-1.196411327E-1,9.876076698E0
3.969574802E0,-2.338984162E-1,-9.571290761E-2,9.883255005E0
3.972000791E0,-2.147558331E-1,-1.148554832E-1,9.871291161E0
3.974426729E0,-2.386840582E-1,-1.196411327E-1,9.888040543E0
3.976852718E0,-2.458625287E-1,-9.810572863E-2,9.868897438E0
3.979278708E0,-2.506481707E-1,-1.172483116E-1,9.868897438E0
3.981704697E0,-2.315055877E-1,-1.124626622E-1,9.883255005E0
3.984130687E0,-2.338984162E-1,-1.028913707E-1,9.897611618E0
3.986556624E0,-2.386840582E-1,-1.244267747E-1,9.885647774E0
3.988982614E0,-2.362912297E-1,-1.124626622E-1,9.880862236E0
3.991408604E0,-2.506481707E-1,-1.292124242E-1,9.880862236E0
3.993834593E0,-2.362912297E-1,-1.028913707E-1,9.888040543E0
3.996260583E0,-2.434697002E-1,-1.076770201E-1,9.868897438E0
3.998686520E0,-2.410768867E-1,-8.374879509E-2,9.866504669E0
4.001112510E0,-2.458625287E-1,-8.853443712E-2,9.900004387E0
4.003538499E0,-2.602194548E-1,-1.028913707E-1,9.873683929E0
4.005964489E0,-2.482553422E-1,-1.004985496E-1,9.878469467E0
4.008390427E0,-2.171486616E-1,-9.092725813E-2,9.888040543E0
4.010816416E0,-2.362912297E-1,-1.076770201E-1,9.873683929E0
4.013242406E0,-2.386840582E-1,-1.148554832E-1,9.861719131E0
4.015668395E0,-2.434697002E-1,-1.052841991E-1,9.866504669E0
4.018094385E0,-2.578266263E-1,-1.292124242E-1,9.892826080E0
4.020520322E0,-2.410768867E-1,-1.076770201E-1,9.868897438E0
4.022946312E0,-2.434697002E-1,-1.076770201E-1,9.878469467E0
4.025372302E0,-2.362912297E-1,-1.220339537E-1,9.890433311E0
4.027798291E0,-2.338984162E-1,-1.172483116E-1,9.888040543E0
4.030224281E0,-2.458625287E-1,-9.571290761E-2,9.859326363E0
4.032650218E0,-2.362912297E-1,-9.810572863E-2,9.861719131E0
4.035076208E0,-2.243271172E-1,-9.571290761E-2,9.861719131E0
4.037502197E0,-2.410768867E-1,-9.092725813E-2,9.876076698E0
4.039928187E0,-2.195414752E-1,-1.004985496E-1,9.895218849E0
4.042354177E0,-2.338984162E-1,-1.004985496E-1,9.878469467E0
4.044780114E0,-2.386840582E-1,-1.244267747E-1,9.880862236E0
4.047206104E0,-2.315055877E-1,-1.148554832E-1,9.878469467E0
4.049632093E0,-2.434697002E-1,-1.316052526E-1,9.866504669E0
4.052058083E0,-2.315055877E-1,-7.896314561E-2,9.847362518E0
4.054484020E0,-2.171486616E-1,-9.571290761E-2,9.868897438E0
4.056910010E0,-2.506481707E-1,-1.004985496E-1,9.866504669E0
4.059335999E0,-2.315055877E-1,-9.810572863E-2,9.876076698E0
4.061761989E0,-2.386840582E-1,-9.571290761E-2,9.876076698E0
4.064187979E0,-2.482553422E-1,-1.148554832E-1,9.885647774E0
4.066613916E0,-2.219343036E-1,-1.148554832E-1,9.909575462E0
4.069039906E0,-2.530409992E-1,-1.148554832E-1,9.871291161E0
4.071465895E0,-2.386840582E-1,-1.052841991E-1,9.871291161E0
4.073891885E0,-2.482553422E-1,-1.196411327E-1,9.866504669E0
4.076317874E0,-2.338984162E-1,-1.028913707E-1,9.890433311E0
4.078743812E0,-2.219343036E-1,-1.148554832E-1,9.873683929E0
4.081169802E0,-2.243271172E-1,-1.196411327E-1,9.888040543E0
4.083595791E0,-2.410768867E-1,-1.244267747E-1,9.878469467E0
4.086021781E0,-2.291127741E-1,-1.148554832E-1,9.883255005E0
4.088447770E0,-2.386840582E-1,-1.052841991E-1,9.878469467E0
4.090873708E0,-2.362912297E-1,-9.332008660E-2,9.876076698E0
4.093299697E0,-2.291127741E-1,-1.148554832E-1,9.873683929E0
4.095725687E0,-2.506481707E-1,-1.052841991E-1,9.880862236E0
4.098151677E0,-2.338984162E-1,-1.411765367E-1,9.883255005E0
4.100577614E0,-2.267199457E-1,-1.148554832E-1,9.878469467E0
4.103003604E0,-2.458625287E-1,-1.172483116E-1,9.888040543E0
4.105429593E0,-2.195414752E-1,-1.148554832E-1,9.878469467E0
4.107855583E0,-2.386840582E-1,-1.028913707E-1,9.871291161E0
4.110281572E0,-2.243271172E-1,-1.004985496E-1,9.883255005E0
4.112707510E0,-2.434697002E-1,-9.571290761E-2,9.868897438E0
4.115133499E0,-2.410768867E-1,-1.076770201E-1,9.880862236E0
4.117559489E0,-2.267199457E-1,-1.004985496E-1,9.880862236E0
4.119985479E0,-2.530409992E-1,-1.124626622E-1,9.883255005E0
4.122411468E0,-2.386840582E-1,-1.196411327E-1,9.871291161E0
4.124837406E0,-2.003988922E-1,-9.092725813E-2,9.868897438E0
4.127263395E0,-2.147558331E-1,-1.100698411E-1,9.856933594E0
4.129689385E0,-2.195414752E-1,-1.148554832E-1,9.871291161E0
4.132115374E0,-2.458625287E-1,-8.853443712E-2,9.871291161E0
4.134541312E0,-2.578266263E-1,-1.244267747E-1,9.883255005E0
4.136967302E0,-2.530409992E-1,-1.076770201E-1,9.878469467E0
4.139393291E0,-2.434697002E-1,-1.004985496E-1,9.878469467E0
4.141819281E0,-2.195414752E-1,-1.004985496E-1,9.864111900E0
4.144245270E0,-2.243271172E-1,-1.052841991E-1,9.868897438E0
4.146671208E0,-2.315055877E-1,-1.196411327E-1,9.878469467E0
4.149097197E0,-2.362912297E-1,-1.316052526E-1,9.876076698E0
4.151523187E0,-2.147558331E-1,-1.028913707E-1,9.880862236E0
4.153949177E0,-2.386840582E-1,-1.148554832E-1,9.880862236E0
4.156375166E0,-2.267199457E-1,-9.571290761E-2,9.883255005E0
4.158801104E0,-2.267199457E-1,-1.052841991E-1,9.880862236E0
4.161227093E0,-2.338984162E-1,-1.052841991E-1,9.883255005E0
4.163653083E0,-2.458625287E-1,-1.100698411E-1,9.883255005E0
4.166079072E0,-2.482553422E-1,-1.076770201E-1,9.885647774E0
4.168505062E0,-2.434697002E-1,-1.316052526E-1,9.876076698E0
4.170930999E0,-2.003988922E-1,-1.052841991E-1,9.878469467E0
4.173356989E0,-2.554338276E-1,-1.124626622E-1,9.895218849E0
4.175782979E0,-2.458625287E-1,-1.076770201E-1,9.878469467E0
4.178208968E0,-2.386840582E-1,-1.052841991E-1,9.883255005E0
4.180634958E0,-2.291127741E-1,-1.172483116E-1,9.864111900E0
4.183060895E0,-2.338984162E-1,-1.004985496E-1,9.890433311E0
4.185486885E0,-2.243271172E-1,-1.100698411E-1,9.892826080E0
4.187912874E0,-2.195414752E-1,-8.614161611E-2,9.873683929E0
4.190338864E0,-2.458625287E-1,-1.028913707E-1,9.868897438E0
4.192764802E0,-2.554338276E-1,-9.571290761E-2,9.883255005E0
4.195190791E0,-2.482553422E-1,-9.332008660E-2,9.856933594E0
4.197616781E0,-2.458625287E-1,-1.004985496E-1,9.897611618E0
4.200042770E0,-2.338984162E-1,-1.148554832E-1,9.866504669E0
4.202468760E0,-2.506481707E-1,-1.196411327E-1,9.892826080E0
4.204894697E0,-2.626122832E-1,-9.332008660E-2,9.897611618E0
4.207320687E0,-2.386840582E-1,-1.172483116E-1,9.900004387E0
4.209746677E0,-2.315055877E-1,-9.810572863E-2,9.873683929E0
4.212172666E0,-2.386840582E-1,-9.810572863E-2,9.856933594E0
4.214598604E0,-2.243271172E-1,-9.092725813E-2,9.885647774E0
4.217024593E0,-2.386840582E-1,-9.810572863E-2,9.888040543E0
4.219450583E0,-2.267199457E-1,-1.076770201E-1,9.876076698E0
4.221876572E0,-2.386840582E-1,-1.052841991E-1,9.880862236E0
4.224302562E0,-2.315055877E-1,-1.004985496E-1,9.871291161E0
4.226728499E0,-2.482553422E-1,-9.571290761E-2,9.876076698E0
4.229154489E0,-2.243271172E-1,-1.220339537E-1,9.878469467E0
4.231580479E0,-2.434697002E-1,-1.004985496E-1,9.859326363E0
4.234006468E0,-2.195414752E-1,-1.004985496E-1,9.868897438E0
4.236432458E0,-2.219343036E-1,-1.052841991E-1,9.866504669E0
4.238858395E0,-2.386840582E-1,-9.571290761E-2,9.871291161E0
4.241284385E0,-2.458625287E-1,-1.076770201E-1,9.880862236E0
4.243710374E0,-2.171486616E-1,-1.124626622E-1,9.864111900E0
4.246136364E0,-2.362912297E-1,-1.124626622E-1,9.861719131E0
4.248562354E0,-2.315055877E-1,-1.124626622E-1,9.868897438E0
4.250988291E0,-2.315055877E-1,-1.100698411E-1,9.890433311E0
4.253414281E0,-2.410768867E-1,-1.076770201E-1,9.885647774E0
4.255840270E0,-2.338984162E-1,-1.100698411E-1,9.880862236E0
4.258266260E0,-2.267199457E-1,-1.268195957E-1,9.892826080E0
4.260692249E0,-2.267199457E-1,-1.148554832E-1,9.890433311E0
4.263118187E0,-2.195414752E-1,-1.052841991E-1,9.888040543E0
4.265544177E0,-2.386840582E-1,-1.148554832E-1,9.888040543E0
4.267970166E0,-2.338984162E-1,-1.172483116E-1,9.883255005E0
4.270396156E0,-2.267199457E-1,-1.052841991E-1,9.878469467E0
4.272822093E0,-2.267199457E-1,-1.124626622E-1,9.878469467E0
4.275248083E0,-2.315055877E-1,-1.148554832E-1,9.868897438E0
4.277674072E0,-2.554338276E-1,-1.172483116E-1,9.880862236E0
4.280100062E0,-2.386840582E-1,-1.100698411E-1,9.859326363E0
4.282526052E0,-2.315055877E-1,-1.052841991E-1,9.873683929E0
4.284951989E0,-2.434697002E-1,-1.268195957E-1,9.866504669E0
4.287377979E0,-2.315055877E-1,-1.196411327E-1,9.866504669E0
4.289803968E0,-2.386840582E-1,-1.172483116E-1,9.876076698E0
4.292229958E0,-2.362912297E-1,-1.148554832E-1,9.888040543E0
4.294655947E0,-2.434697002E-1,-1.052841991E-1,9.885647774E0
4.297081885E0,-2.578266263E-1,-9.092725813E-2,9.888040543E0
4.299507874E0,-2.338984162E-1,-1.172483116E-1,9.878469467E0
4.301933864E0,-2.291127741E-1,-9.571290761E-2,9.866504669E0
4.304359854E0,-2.386840582E-1,-9.571290761E-2,9.883255005E0
4.306785791E0,-2.291127741E-1,-1.052841991E-1,9.873683929E0
4.309211781E0,-2.338984162E-1,-1.076770201E-1,9.883255005E0
4.311637770E0,-2.482553422E-1,-1.052841991E-1,9.876076698E0
4.314063760E0,-2.458625287E-1,-9.810572863E-2,9.888040543E0
4.316489749E0,-2.386840582E-1,-9.332008660E-2,9.880862236E0
4.318915687E0,-2.410768867E-1,-1.028913707E-1,9.880862236E0
4.321341677E0,-2.386840582E-1,-1.244267747E-1,9.888040543E0
4.323767666E0,-2.075773627E-1,-9.810572863E-2,9.883255005E0
4.326193656E0,-2.338984162E-1,-1.172483116E-1,9.885647774E0
4.328619645E0,-2.697907388E-1,-1.100698411E-1,9.878469467E0
4.331045583E0,-2.386840582E-1,-1.028913707E-1,9.890433311E0
4.333471572E0,-2.338984162E-1,-1.124626622E-1,9.876076698E0
4.335897562E0,-2.458625287E-1,-1.196411327E-1,9.866504669E0
4.338323552E0,-2.458625287E-1,-8.374879509E-2,9.883255005E0
4.340749489E0,-2.578266263E-1,-1.100698411E-1,9.888040543E0
4.343175479E0,-2.458625287E-1,-1.028913707E-1,9.878469467E0
4.345601468E0,-2.219343036E-1,-1.100698411E-1,9.892826080E0
4.348027458E0,-2.362912297E-1,-9.571290761E-2,9.883255005E0
4.350453447E0,-2.243271172E-1,-1.292124242E-1,9.854540825E0
4.352879437E0,-2.482553422E-1,-1.196411327E-1,9.868897438E0
4.355305374E0,-2.362912297E-1,-1.244267747E-1,9.895218849E0
4.357731364E0,-2.267199457E-1,-1.316052526E-1,9.873683929E0
4.360157354E0,-2.315055877E-1,-1.052841991E-1,9.883255005E0
4.362583343E0,-2.410768867E-1,-1.100698411E-1,9.880862236E0
4.365009281E0,-2.386840582E-1,-1.339980662E-1,9.873683929E0
4.367435270E0,-2.434697002E-1,-1.148554832E-1,9.871291161E0
4.369861260E0,-2.362912297E-1,-1.172483116E-1,9.885647774E0
4.372287249E0,-2.243271172E-1,-1.028913707E-1,9.900004387E0
4.374713239E0,-2.338984162E-1,-9.810572863E-2,9.892826080E0
4.377139177E0,-2.171486616E-1,-1.028913707E-1,9.878469467E0
4.379565166E0,-2.458625287E-1,-9.571290761E-2,9.892826080E0
4.381991156E0,-2.386840582E-1,-9.571290761E-2,9.885647774E0
4.384417145E0,-2.195414752E-1,-1.148554832E-1,9.878469467E0
4.386843083E0,-2.386840582E-1,-1.004985496E-1,9.888040543E0
4.389269072E0,-2.458625287E-1,-1.148554832E-1,9.880862236E0
4.391695062E0,-2.602194548E-1,-1.244267747E-1,9.885647774E0
4.394121052E0,-2.195414752E-1,-1.124626622E-1,9.878469467E0
4.396547041E0,-2.530409992E-1,-1.196411327E-1,9.883255005E0
4.398972979E0,-2.315055877E-1,-1.028913707E-1,9.876076698E0
4.401398968E0,-2.721835673E-1,-1.244267747E-1,9.897611618E0
4.403824958E0,-2.506481707E-1,-1.316052526E-1,9.885647774E0
4.406250947E0,-2.243271172E-1,-1.076770201E-1,9.888040543E0
4.408676937E0,-2.362912297E-1,-1.124626622E-1,9.888040543E0
4.411102874E0,-2.410768867E-1,-1.292124242E-1,9.885647774E0
4.413528864E0,-2.482553422E-1,-9.092725813E-2,9.876076698E0
4.415954854E0,-2.386840582E-1,-1.052841991E-1,9.902397156E0
4.418380843E0,-2.291127741E-1,-1.028913707E-1,9.885647774E0
4.420806833E0,-2.530409992E-1,-1.220339537E-1,9.871291161E0
4.423232770E0,-2.578266263E-1,-1.052841991E-1,9.876076698E0
4.425658760E0,-2.386840582E-1,-9.571290761E-2,9.871291161E0
4.428084749E0,-2.362912297E-1,-1.076770201E-1,9.880862236E0
4.430510739E0,-2.291127741E-1,-9.332008660E-2,9.897611618E0
4.432936729E0,-2.338984162E-1,-1.052841991E-1,9.871291161E0
4.435362666E0,-2.458625287E-1,-1.028913707E-1,9.876076698E0
4.437788656E0,-2.243271172E-1,-1.076770201E-1,9.859326363E0
4.440214645E0,-2.386840582E-1,-1.100698411E-1,9.868897438E0
4.442640635E0,-2.362912297E-1,-1.004985496E-1,9.873683929E0
4.445066572E0,-2.362912297E-1,-1.076770201E-1,9.880862236E0
4.447492562E0,-2.315055877E-1,-1.172483116E-1,9.876076698E0
4.449918552E0,-2.410768867E-1,-1.004985496E-1,9.890433311E0
4.452344541E0,-2.243271172E-1,-9.332008660E-2,9.876076698E0
4.454770531E0,-2.506481707E-1,-1.363908947E-1,9.878469467E0
4.457196468E0,-2.434697002E-1,-1.076770201E-1,9.885647774E0
4.459622458E0,-2.434697002E-1,-9.332008660E-2,9.890433311E0
4.462048447E0,-2.410768867E-1,-9.332008660E-2,9.880862236E0
4.464474437E0,-2.530409992E-1,-1.052841991E-1,9.890433311E0
4.466900427E0,-2.338984162E-1,-1.244267747E-1,9.868897438E0
4.469326364E0,-2.338984162E-1,-1.268195957E-1,9.878469467E0
4.471752354E0,-2.315055877E-1,-1.028913707E-1,9.883255005E0
4.474178343E0,-2.410768867E-1,-9.571290761E-2,9.895218849E0
4.476604333E0,-2.386840582E-1,-9.810572863E-2,9.883255005E0
4.479030322E0,-2.530409992E-1,-1.076770201E-1,9.880862236E0
4.481456260E0,-2.315055877E-1,-1.268195957E-1,9.892826080E0
4.483882249E0,-2.291127741E-1,-8.853443712E-2,9.883255005E0
4.486308239E0,-2.243271172E-1,-1.076770201E-1,9.878469467E0
4.488734229E0,-2.434697002E-1,-1.004985496E-1,9.904789925E0
4.491160166E0,-2.267199457E-1,-9.810572863E-2,9.909575462E0
4.493586156E0,-2.338984162E-1,-9.810572863E-2,9.876076698E0
4.496012145E0,-2.578266263E-1,-1.124626622E-1,9.873683929E0
4.498438135E0,-2.195414752E-1,-1.172483116E-1,9.876076698E0
4.500864124E0,-2.410768867E-1,-1.148554832E-1,9.873683929E0
4.503290062E0,-2.530409992E-1,-1.028913707E-1,9.868897438E0
4.505716052E0,-2.434697002E-1,-9.332008660E-2,9.878469467E0
4.508142041E0,-2.554338276E-1,-1.148554832E-1,9.878469467E0
4.510568031E0,-2.650051117E-1,-1.148554832E-1,9.864111900E0
4.512993968E0,-2.338984162E-1,-1.148554832E-1,9.888040543E0
4.515419958E0,-2.386840582E-1,-8.853443712E-2,9.880862236E0
4.517845947E0,-2.315055877E-1,-1.004985496E-1,9.885647774E0
4.520271937E0,-2.410768867E-1,-1.196411327E-1,9.878469467E0
4.522697927E0,-2.315055877E-1,-1.124626622E-1,9.895218849E0
4.525123864E0,-2.267199457E-1,-1.076770201E-1,9.892826080E0
4.527549854E0,-2.530409992E-1,-1.148554832E-1,9.904789925E0
4.529975843E0,-2.458625287E-1,-1.172483116E-1,9.883255005E0
4.532401833E0,-2.482553422E-1,-1.100698411E-1,9.888040543E0
4.534827822E0,-2.482553422E-1,-1.244267747E-1,9.883255005E0
4.537253760E0,-2.267199457E-1,-1.220339537E-1,9.876076698E0
4.539679749E0,-2.482553422E-1,-1.004985496E-1,9.866504669E0
4.542105739E0,-2.434697002E-1,-9.092725813E-2,9.880862236E0
4.544531729E0,-2.243271172E-1,-1.124626622E-1,9.876076698E0
4.546957718E0,-2.530409992E-1,-1.124626622E-1,9.885647774E0
4.549383656E0,-2.410768867E-1,-1.100698411E-1,9.888040543E0
4.551809645E0,-2.362912297E-1,-1.028913707E-1,9.878469467E0
4.554235635E0,-2.338984162E-1,-9.810572863E-2,9.885647774E0
4.556661624E0,-2.362912297E-1,-1.100698411E-1,9.866504669E0
4.559087562E0,-2.434697002E-1,-1.004985496E-1,9.873683929E0
4.561513552E0,-2.530409992E-1,-8.614161611E-2,9.878469467E0
4.563939541E0,-2.291127741E-1,-1.052841991E-1,9.892826080E0
4.566365531E0,-2.315055877E-1,-1.172483116E-1,9.895218849E0
4.568791520E0,-2.362912297E-1,-1.052841991E-1,9.880862236E0
4.571217458E0,-2.554338276E-1,-1.100698411E-1,9.883255005E0
4.573643447E0,-2.315055877E-1,-1.459621787E-1,9.885647774E0
4.576069437E0,-2.458625287E-1,-1.339980662E-1,9.883255005E0
4.578495427E0,-2.171486616E-1,-1.196411327E-1,9.878469467E0
4.580921416E0,-2.554338276E-1,-1.196411327E-1,9.871291161E0
4.583347354E0,-2.410768867E-1,-1.052841991E-1,9.876076698E0
4.585773343E0,-2.386840582E-1,-1.052841991E-1,9.861719131E0
4.588199333E0,-2.506481707E-1,-9.571290761E-2,9.883255005E0
4.590625322E0,-2.650051117E-1,-9.332008660E-2,9.883255005E0
4.593051260E0,-2.362912297E-1,-9.810572863E-2,9.880862236E0
4.595477249E0,-2.386840582E-1,-1.052841991E-1,9.873683929E0
4.597903239E0,-2.291127741E-1,-1.411765367E-1,9.873683929E0
4.600329229E0,-2.410768867E-1,-1.148554832E-1,9.885647774E0
4.602755218E0,-2.578266263E-1,-1.196411327E-1,9.868897438E0
4.605181156E0,-2.338984162E-1,-1.124626622E-1,9.888040543E0
4.607607145E0,-2.602194548E-1,-1.052841991E-1,9.876076698E0
4.610033135E0,-2.482553422E-1,-1.124626622E-1,9.885647774E0
4.612459124E0,-2.650051117E-1,-1.124626622E-1,9.885647774E0
4.614885114E0,-2.506481707E-1,-9.571290761E-2,9.895218849E0
4.617311052E0,-2.171486616E-1,-1.028913707E-1,9.876076698E0
4.619737041E0,-2.338984162E-1,-9.092725813E-2,9.871291161E0
4.622163031E0,-2.578266263E-1,-1.244267747E-1,9.864111900E0
4.624589020E0,-2.315055877E-1,-1.316052526E-1,9.883255005E0
4.627015010E0,-2.410768867E-1,-9.332008660E-2,9.890433311E0
4.629440947E0,-2.506481707E-1,-9.092725813E-2,9.888040543E0
4.631866937E0,-2.386840582E-1,-9.092725813E-2,9.883255005E0
4.634292927E0,-2.386840582E-1,-1.268195957E-1,9.888040543E0
4.636718916E0,-2.291127741E-1,-1.100698411E-1,9.890433311E0
4.639144906E0,-2.410768867E-1,-1.100698411E-1,9.871291161E0
4.641570843E0,-2.362912297E-1,-1.124626622E-1,9.878469467E0
4.643996833E0,-2.650051117E-1,-1.124626622E-1,9.883255005E0
4.646422822E0,-2.315055877E-1,-1.148554832E-1,9.871291161E0
4.648848812E0,-2.267199457E-1,-1.076770201E-1,9.866504669E0
4.651274802E0,-2.362912297E-1,-1.100698411E-1,9.866504669E0
4.653700739E0,-2.410768867E-1,-1.148554832E-1,9.868897438E0
4.656126729E0,-2.362912297E-1,-1.124626622E-1,9.868897438E0
4.658552718E0,-2.362912297E-1,-1.196411327E-1,9.871291161E0
4.660978708E0,-2.458625287E-1,-1.004985496E-1,9.864111900E0
4.663404645E0,-2.434697002E-1,-1.004985496E-1,9.861719131E0
4.665830635E0,-2.506481707E-1,-1.124626622E-1,9.878469467E0
4.668256624E0,-2.291127741E-1,-1.196411327E-1,9.866504669E0
4.670682614E0,-2.338984162E-1,-1.004985496E-1,9.873683929E0
4.673108604E0,-2.482553422E-1,-1.076770201E-1,9.866504669E0
4.675534541E0,-2.458625287E-1,-1.244267747E-1,9.888040543E0
4.677960531E0,-2.338984162E-1,-1.292124242E-1,9.888040543E0
4.680386520E0,-2.458625287E-1,-1.100698411E-1,9.866504669E0
4.682812510E0,-2.291127741E-1,-8.853443712E-2,9.871291161E0
4.685238447E0,-2.410768867E-1,-1.148554832E-1,9.868897438E0
4.687664437E0,-2.243271172E-1,-1.387837082E-1,9.883255005E0
4.690090427E0,-2.243271172E-1,-1.124626622E-1,9.873683929E0
4.692516416E0,-2.171486616E-1,-1.148554832E-1,9.888040543E0
4.694942406E0,-2.362912297E-1,-1.268195957E-1,9.873683929E0
4.697368395E0,-2.434697002E-1,-1.292124242E-1,9.868897438E0
4.699794333E0,-2.506481707E-1,-1.004985496E-1,9.866504669E0
4.702220322E0,-2.195414752E-1,-1.244267747E-1,9.871291161E0
4.704646312E0,-2.386840582E-1,-1.004985496E-1,9.880862236E0
4.707072302E0,-2.434697002E-1,-9.571290761E-2,9.883255005E0
4.709498239E0,-2.338984162E-1,-9.092725813E-2,9.890433311E0
4.711924229E0,-2.195414752E-1,-1.004985496E-1,9.883255005E0
4.714350218E0,-2.338984162E-1,-1.124626622E-1,9.878469467E0
4.716776208E0,-2.315055877E-1,-1.076770201E-1,9.878469467E0
4.719202197E0,-2.386840582E-1,-1.244267747E-1,9.861719131E0
4.721628135E0,-2.410768867E-1,-1.172483116E-1,9.895218849E0
4.724054124E0,-2.410768867E-1,-1.292124242E-1,9.897611618E0
4.726480114E0,-2.458625287E-1,-1.124626622E-1,9.880862236E0
4.728906104E0,-2.291127741E-1,-1.004985496E-1,9.904789925E0
4.731332041E0,-2.434697002E-1,-1.100698411E-1,9.885647774E0
4.733758031E0,-2.195414752E-1,-1.076770201E-1,9.883255005E0
4.736184020E0,-2.315055877E-1,-1.172483116E-1,9.897611618E0
4.738610010E0,-2.123630047E-1,-9.092725813E-2,9.873683929E0
4.741035999E0,-2.291127741E-1,-9.092725813E-2,9.864111900E0
4.743461937E0,-2.243271172E-1,-1.028913707E-1,9.868897438E0
4.745887927E0,-2.386840582E-1,-1.220339537E-1,9.885647774E0
4.748313916E0,-2.458625287E-1,-1.220339537E-1,9.888040543E0
4.750739906E0,-2.386840582E-1,-1.172483116E-1,9.873683929E0
4.753165895E0,-2.338984162E-1,-1.220339537E-1,9.866504669E0
4.755591833E0,-2.386840582E-1,-8.853443712E-2,9.909575462E0
4.758017822E0,-2.626122832E-1,-1.076770201E-1,9.911968231E0
4.760443812E0,-2.386840582E-1,-1.100698411E-1,9.897611618E0
4.762869802E0,-2.315055877E-1,-1.268195957E-1,9.885647774E0
4.765295791E0,-2.386840582E-1,-1.220339537E-1,9.883255005E0
4.767721729E0,-2.219343036E-1,-1.028913707E-1,9.895218849E0
4.770147718E0,-2.219343036E-1,-1.148554832E-1,9.873683929E0
4.772573708E0,-2.003988922E-1,-9.332008660E-2,9.880862236E0
4.774999697E0,-2.315055877E-1,-9.332008660E-2,9.864111900E0
4.777425635E0,-2.291127741E-1,-1.220339537E-1,9.871291161E0
4.779851624E0,-2.267199457E-1,-1.028913707E-1,9.892826080E0
4.782277614E0,-2.243271172E-1,-9.810572863E-2,9.873683929E0
4.784703604E0,-2.506481707E-1,-9.571290761E-2,9.890433311E0
4.787129593E0,-2.219343036E-1,-1.220339537E-1,9.878469467E0
4.789555531E0,-2.386840582E-1,-9.332008660E-2,9.878469467E0
4.791981520E0,-2.171486616E-1,-1.124626622E-1,9.885647774E0
4.794407510E0,-2.458625287E-1,-1.100698411E-1,9.892826080E0
4.796833499E0,-2.482553422E-1,-1.004985496E-1,9.885647774E0
4.799259437E0,-2.291127741E-1,-1.148554832E-1,9.871291161E0
4.801685427E0,-2.315055877E-1,-9.092725813E-2,9.880862236E0
4.804111416E0,-2.386840582E-1,-1.004985496E-1,9.873683929E0
4.806537406E0,-2.458625287E-1,-1.268195957E-1,9.892826080E0
4.808963395E0,-2.506481707E-1,-1.316052526E-1,9.876076698E0
4.811389385E0,-2.291127741E-1,-1.196411327E-1,9.868897438E0
4.813815322E0,-2.410768867E-1,-1.124626622E-1,9.885647774E0
4.816241312E0,-2.123630047E-1,-8.853443712E-2,9.880862236E0
4.818667302E0,-2.267199457E-1,-1.004985496E-1,9.885647774E0
4.821093291E0,-2.530409992E-1,-9.810572863E-2,9.880862236E0
4.823519229E0,-2.458625287E-1,-1.076770201E-1,9.871291161E0
4.825945218E0,-2.458625287E-1,-1.196411327E-1,9.885647774E0
4.828371208E0,-2.267199457E-1,-1.196411327E-1,9.897611618E0
4.830797197E0,-2.386840582E-1,-1.076770201E-1,9.911968231E0
4.833223187E0,-2.554338276E-1,-1.148554832E-1,9.904789925E0
4.835649124E0,-2.410768867E-1,-1.052841991E-1,9.873683929E0
4.838075114E0,-2.458625287E-1,-1.220339537E-1,9.895218849E0
4.840501104E0,-2.410768867E-1,-1.076770201E-1,9.885647774E0
4.842927093E0,-2.458625287E-1,-1.124626622E-1,9.876076698E0
4.845353083E0,-2.386840582E-1,-1.076770201E-1,9.890433311E0
4.847779020E0,-2.338984162E-1,-1.124626622E-1,9.880862236E0
4.850205010E0,-2.338984162E-1,-1.244267747E-1,9.871291161E0
