"Time (s)","Gyroscope x (rad/s)","Gyroscope y (rad/s)","Gyroscope z (rad/s)"
7.777662400E-2,-3.436015919E-3,5.344913807E-4,-5.268557463E-3
8.020261400E-2,2.290677221E-4,-2.519744914E-3,3.283303929E-3
8.262860400E-2,2.290677221E-4,-6.872031372E-4,-2.825168660E-3
8.505459300E-2,1.450762269E-3,-7.635590737E-5,3.894151188E-3
8.748053100E-2,8.399150101E-4,-2.519744914E-3,-9.926267667E-4
8.990652000E-2,-9.926267667E-4,1.145338640E-3,2.290677221E-4
9.233251000E-2,2.672456671E-3,1.145338640E-3,2.290677221E-4
9.475844700E-2,8.399150101E-4,-1.298050396E-3,-3.817795368E-4
9.718443700E-2,8.399150101E-4,5.344913807E-4,2.061609412E-3
9.961042700E-2,1.450762269E-3,-1.908897655E-3,-2.825168660E-3
1.020364160E-1,8.399150101E-4,1.145338640E-3,2.672456671E-3
1.044623540E-1,2.290677221E-4,2.367033157E-3,-3.817795368E-4
1.068883430E-1,2.290677221E-4,-1.298050396E-3,2.061609412E-3
1.093143330E-1,1.450762269E-3,1.756185899E-3,-1.603474026E-3
1.117402700E-1,1.450762269E-3,1.145338640E-3,8.399150101E-4
1.141662600E-1,8.399150101E-4,5.344913807E-4,1.450762269E-3
1.165922490E-1,2.290677221E-4,1.756185899E-3,-9.926267667E-4
1.190181870E-1,2.290677221E-4,-6.872031372E-4,2.061609412E-3
1.214441770E-1,8.399150101E-4,-6.872031372E-4,-9.926267667E-4
1.238701660E-1,2.290677221E-4,-7.635590737E-5,1.450762269E-3
1.262961560E-1,8.399150101E-4,-6.872031372E-4,-9.926267667E-4
1.287220930E-1,-3.817795368E-4,-1.908897655E-3,2.061609412E-3
1.311480830E-1,2.290677221E-4,-1.908897655E-3,-1.603474026E-3
1.335740720E-1,-9.926267667E-4,-6.872031372E-4,3.283303929E-3
1.360000100E-1,1.450762269E-3,-6.872031372E-4,-3.817795368E-4
1.384259990E-1,2.290677221E-4,-6.872031372E-4,2.290677221E-4
1.408519890E-1,2.290677221E-4,-7.635590737E-5,8.399150101E-4
1.432779790E-1,8.399150101E-4,1.145338640E-3,-9.926267667E-4
1.457039160E-1,1.450762269E-3,1.145338640E-3,1.450762269E-3
1.481299060E-1,8.399150101E-4,-7.635590737E-5,-9.926267667E-4
1.505558950E-1,1.450762269E-3,-6.872031372E-4,-9.926267667E-4
1.529818330E-1,8.399150101E-4,-7.635590737E-5,-1.603474026E-3
1.554078220E-1,-3.817795368E-4,-7.635590737E-5,1.450762269E-3
1.578338120E-1,2.672456671E-3,-7.635590737E-5,-3.817795368E-4
1.602598020E-1,2.290677221E-4,-7.635590737E-5,2.290677221E-4
1.626857390E-1,-3.817795368E-4,-1.298050396E-3,-3.817795368E-4
1.651117290E-1,8.399150101E-4,-6.872031372E-4,2.290677221E-4
1.675377180E-1,-9.926267667E-4,-1.298050396E-3,2.290677221E-4
1.699636560E-1,8.399150101E-4,5.344913807E-4,-1.603474026E-3
1.723896450E-1,2.290677221E-4,-7.635590737E-5,-3.817795368E-4
1.748156350E-1,2.290677221E-4,5.344913807E-4,-2.214321401E-3
1.772416240E-1,8.399150101E-4,-7.635590737E-5,8.399150101E-4
1.796675620E-1,8.399150101E-4,-6.872031372E-4,-9.926267667E-4
1.820935520E-1,-3.817795368E-4,-7.635590737E-5,-9.926267667E-4
1.845195410E-1,2.290677221E-4,-7.635590737E-5,-9.926267667E-4
1.869455310E-1,2.061609412E-3,-6.872031372E-4,-2.214321401E-3
1.893714680E-1,2.290677221E-4,-6.872031372E-4,-3.817795368E-4
1.917974580E-1,2.290677221E-4,-1.298050396E-3,2.290677221E-4
1.942234470E-1,8.399150101E-4,5.344913807E-4,-3.817795368E-4
1.966493850E-1,2.290677221E-4,-7.635590737E-5,-3.817795368E-4
1.990753740E-1,1.450762269E-3,-1.298050396E-3,-3.817795368E-4
2.015013640E-1,8.399150101E-4,-7.635590737E-5,2.290677221E-4
2.039273020E-1,1.450762269E-3,-7.635590737E-5,8.399150101E-4
2.063532910E-1,-3.817795368E-4,-7.635590737E-5,-3.817795368E-4
2.087792810E-1,-3.817795368E-4,-1.298050396E-3,2.290677221E-4
2.112052700E-1,2.290677221E-4,-7.635590737E-5,2.290677221E-4
2.136312080E-1,1.450762269E-3,-7.635590737E-5,-3.817795368E-4
2.160571970E-1,2.290677221E-4,5.344913807E-4,2.061609412E-3
2.184831870E-1,8.399150101E-4,-7.635590737E-5,-3.817795368E-4
2.209091240E-1,-3.817795368E-4,-1.298050396E-3,2.290677221E-4
2.233351140E-1,2.290677221E-4,5.344913807E-4,2.290677221E-4
2.257611040E-1,1.450762269E-3,5.344913807E-4,2.290677221E-4
2.281870930E-1,2.290677221E-4,-7.635590737E-5,8.399150101E-4
2.306130310E-1,2.290677221E-4,-7.635590737E-5,8.399150101E-4
2.330390200E-1,-3.817795368E-4,-6.872031372E-4,-9.926267667E-4
2.354650100E-1,8.399150101E-4,-7.635590737E-5,2.290677221E-4
2.378909470E-1,2.290677221E-4,-1.908897655E-3,8.399150101E-4
2.403169370E-1,8.399150101E-4,5.344913807E-4,1.450762269E-3
2.427429270E-1,1.450762269E-3,-7.635590737E-5,-3.817795368E-4
2.451689160E-1,8.399150101E-4,-6.872031372E-4,-3.817795368E-4
2.475948540E-1,-3.817795368E-4,-7.635590737E-5,1.450762269E-3
2.500208430E-1,-3.817795368E-4,-1.298050396E-3,2.290677221E-4
2.524468330E-1,-3.817795368E-4,-7.635590737E-5,1.450762269E-3
2.548728220E-1,1.450762269E-3,-6.872031372E-4,-3.817795368E-4
2.572987600E-1,2.290677221E-4,-1.298050396E-3,-9.926267667E-4
2.597247490E-1,8.399150101E-4,-6.872031372E-4,-3.817795368E-4
2.621507390E-1,2.061609412E-3,1.145338640E-3,8.399150101E-4
2.645766770E-1,2.290677221E-4,-6.872031372E-4,2.290677221E-4
2.670026660E-1,2.290677221E-4,-7.635590737E-5,8.399150101E-4
2.694286560E-1,-3.817795368E-4,5.344913807E-4,-3.817795368E-4
2.718546450E-1,-3.817795368E-4,5.344913807E-4,-3.817795368E-4
2.742805830E-1,2.290677221E-4,-6.872031372E-4,2.290677221E-4
2.767065720E-1,8.399150101E-4,-7.635590737E-5,-3.817795368E-4
2.791325620E-1,2.290677221E-4,-7.635590737E-5,-3.817795368E-4
2.815584990E-1,8.399150101E-4,-1.298050396E-3,-9.926267667E-4
2.839844890E-1,1.450762269E-3,1.145338640E-3,-3.817795368E-4
2.864104790E-1,8.399150101E-4,-7.635590737E-5,8.399150101E-4
2.888364680E-1,1.450762269E-3,-7.635590737E-5,-3.817795368E-4
2.912624060E-1,2.290677221E-4,-6.872031372E-4,2.290677221E-4
2.936883950E-1,-3.817795368E-4,-1.908897655E-3,-3.817795368E-4
2.961143850E-1,-9.926267667E-4,5.344913807E-4,2.290677221E-4
2.985403220E-1,2.290677221E-4,-7.635590737E-5,2.290677221E-4
3.009663120E-1,1.450762269E-3,-7.635590737E-5,8.399150101E-4
3.033923020E-1,2.290677221E-4,-6.872031372E-4,1.450762269E-3
3.058182910E-1,-3.817795368E-4,-1.298050396E-3,-3.817795368E-4
3.082442290E-1,2.290677221E-4,-6.872031372E-4,8.399150101E-4
3.106702180E-1,2.290677221E-4,1.145338640E-3,-9.926267667E-4
3.130962080E-1,2.290677221E-4,1.145338640E-3,2.290677221E-4
3.155221970E-1,-3.817795368E-4,1.756185899E-3,-3.817795368E-4
3.179481350E-1,2.290677221E-4,5.344913807E-4,-3.817795368E-4
3.203741240E-1,-9.926267667E-4,-1.298050396E-3,2.290677221E-4
3.228001140E-1,1.450762269E-3,-7.635590737E-5,-9.926267667E-4
3.252260520E-1,2.290677221E-4,-6.872031372E-4,-3.817795368E-4
3.276520410E-1,-3.817795368E-4,5.344913807E-4,8.399150101E-4
3.300780310E-1,2.290677221E-4,-7.635590737E-5,-3.817795368E-4
3.325040200E-1,-9.926267667E-4,-1.298050396E-3,-3.817795368E-4
3.349299580E-1,-9.926267667E-4,-6.872031372E-4,8.399150101E-4
3.373559470E-1,2.290677221E-4,5.344913807E-4,2.290677221E-4
3.397819370E-1,2.290677221E-4,-6.872031372E-4,-9.926267667E-4
3.422079270E-1,2.290677221E-4,5.344913807E-4,-3.817795368E-4
3.446338640E-1,2.290677221E-4,5.344913807E-4,-3.817795368E-4
3.470598540E-1,2.061609412E-3,-7.635590737E-5,8.399150101E-4
3.494858430E-1,-3.817795368E-4,5.344913807E-4,-1.603474026E-3
3.519117810E-1,-9.926267667E-4,1.145338640E-3,-9.926267667E-4
3.543377700E-1,2.290677221E-4,-7.635590737E-5,-9.926267667E-4
3.567637600E-1,-3.817795368E-4,5.344913807E-4,-3.817795368E-4
3.591897490E-1,8.399150101E-4,-7.635590737E-5,-3.817795368E-4
3.616156870E-1,-3.817795368E-4,-6.872031372E-4,2.290677221E-4
3.640416770E-1,8.399150101E-4,-7.635590737E-5,2.290677221E-4
3.664676660E-1,2.290677221E-4,1.145338640E-3,-3.817795368E-4
3.688936560E-1,1.450762269E-3,-7.635590737E-5,8.399150101E-4
3.713195930E-1,1.450762269E-3,-6.872031372E-4,2.290677221E-4
3.737455830E-1,2.290677221E-4,-6.872031372E-4,8.399150101E-4
3.761715720E-1,1.450762269E-3,5.344913807E-4,-9.926267667E-4
3.785975620E-1,8.399150101E-4,-6.872031372E-4,8.399150101E-4
3.810234990E-1,8.399150101E-4,-7.635590737E-5,2.290677221E-4
3.834494890E-1,2.061609412E-3,-7.635590737E-5,8.399150101E-4
3.858754790E-1,2.290677221E-4,-6.872031372E-4,-3.817795368E-4
3.883014160E-1,1.450762269E-3,-7.635590737E-5,2.290677221E-4
3.907274060E-1,2.290677221E-4,-6.872031372E-4,2.290677221E-4
3.931533950E-1,2.290677221E-4,-6.872031372E-4,-3.817795368E-4
3.955793850E-1,1.450762269E-3,-7.635590737E-5,2.290677221E-4
3.980053220E-1,2.290677221E-4,5.344913807E-4,-9.926267667E-4
4.004313120E-1,8.399150101E-4,-7.635590737E-5,8.399150101E-4
4.028573020E-1,-3.817795368E-4,-7.635590737E-5,-3.817795368E-4
4.052832910E-1,-3.817795368E-4,-7.635590737E-5,-3.817795368E-4
4.077092290E-1,8.399150101E-4,1.756185899E-3,2.290677221E-4
4.101352180E-1,8.399150101E-4,5.344913807E-4,2.290677221E-4
4.125612080E-1,8.399150101E-4,5.344913807E-4,-9.926267667E-4
4.149871450E-1,8.399150101E-4,-7.635590737E-5,2.290677221E-4
4.174131350E-1,2.290677221E-4,-6.872031372E-4,8.399150101E-4
4.198391240E-1,8.399150101E-4,-6.872031372E-4,2.290677221E-4
4.222651140E-1,2.061609412E-3,5.344913807E-4,8.399150101E-4
4.246910520E-1,-9.926267667E-4,1.145338640E-3,8.399150101E-4
4.271170410E-1,-3.817795368E-4,-7.635590737E-5,2.061609412E-3
4.295430310E-1,1.450762269E-3,-7.635590737E-5,-3.817795368E-4
4.319690200E-1,2.290677221E-4,-6.872031372E-4,8.399150101E-4
4.343949580E-1,8.399150101E-4,1.145338640E-3,2.290677221E-4
4.368209470E-1,-3.817795368E-4,-7.635590737E-5,8.399150101E-4
4.392469370E-1,2.290677221E-4,-1.298050396E-3,8.399150101E-4
4.416729270E-1,-3.817795368E-4,5.344913807E-4,-1.603474026E-3
4.440988640E-1,2.290677221E-4,5.344913807E-4,-3.817795368E-4
4.465248540E-1,2.290677221E-4,-1.298050396E-3,-9.926267667E-4
4.489508430E-1,-9.926267667E-4,-6.872031372E-4,-9.926267667E-4
4.513767810E-1,-3.817795368E-4,-6.872031372E-4,2.290677221E-4
4.538027700E-1,1.450762269E-3,-1.298050396E-3,2.290677221E-4
4.562287600E-1,2.290677221E-4,-7.635590737E-5,2.290677221E-4
4.586547490E-1,2.672456671E-3,-6.872031372E-4,-9.926267667E-4
4.610806870E-1,8.399150101E-4,-6.872031372E-4,-9.926267667E-4
4.635066770E-1,-3.817795368E-4,1.145338640E-3,-9.926267667E-4
4.659326660E-1,-9.926267667E-4,-6.872031372E-4,-3.817795368E-4
4.683586560E-1,-3.817795368E-4,-6.872031372E-4,-3.817795368E-4
4.707846450E-1,2.290677221E-4,-6.872031372E-4,2.290677221E-4
4.732105830E-1,2.290677221E-4,-6.872031372E-4,-3.817795368E-4
4.756365720E-1,-3.817795368E-4,5.344913807E-4,2.290677221E-4
4.780625620E-1,-3.817795368E-4,-6.872031372E-4,8.399150101E-4
4.804884990E-1,-3.817795368E-4,-1.298050396E-3,1.450762269E-3
4.829144890E-1,2.290677221E-4,1.145338640E-3,-3.817795368E-4
4.853404790E-1,2.290677221E-4,-7.635590737E-5,-9.926267667E-4
4.877664680E-1,1.450762269E-3,-1.298050396E-3,2.290677221E-4
4.901924060E-1,2.290677221E-4,-7.635590737E-5,8.399150101E-4
4.926183950E-1,8.399150101E-4,-7.635590737E-5,-3.817795368E-4
4.950443850E-1,2.290677221E-4,-1.298050396E-3,-3.817795368E-4
4.974703220E-1,2.290677221E-4,5.344913807E-4,8.399150101E-4
4.998963120E-1,2.290677221E-4,-6.872031372E-4,8.399150101E-4
5.023223020E-1,-3.817795368E-4,-1.298050396E-3,2.290677221E-4
5.047482910E-1,8.399150101E-4,-7.635590737E-5,-3.817795368E-4
5.071742290E-1,2.290677221E-4,-6.872031372E-4,-3.817795368E-4
5.096002180E-1,2.290677221E-4,5.344913807E-4,2.290677221E-4
5.120262080E-1,-9.926267667E-4,5.344913807E-4,1.450762269E-3
5.144521970E-1,-3.817795368E-4,-7.635590737E-5,8.399150101E-4
5.168781350E-1,8.399150101E-4,-6.872031372E-4,-3.817795368E-4
5.193041240E-1,-3.817795368E-4,-6.872031372E-4,2.290677221E-4
5.217301140E-1,-3.817795368E-4,-7.635590737E-5,1.450762269E-3
5.241561040E-1,-3.817795368E-4,-7.635590737E-5,-3.817795368E-4
5.265820410E-1,8.399150101E-4,-7.635590737E-5,-3.817795368E-4
5.290080310E-1,2.290677221E-4,-7.635590737E-5,8.399150101E-4
5.314340200E-1,8.399150101E-4,-1.298050396E-3,8.399150101E-4
5.338600100E-1,8.399150101E-4,-1.298050396E-3,8.399150101E-4
5.362859470E-1,8.399150101E-4,-7.635590737E-5,-3.817795368E-4
5.387119370E-1,2.290677221E-4,5.344913807E-4,-9.926267667E-4
5.411379270E-1,2.290677221E-4,-7.635590737E-5,2.290677221E-4
5.435639160E-1,2.061609412E-3,5.344913807E-4,8.399150101E-4
5.459898540E-1,2.290677221E-4,-6.872031372E-4,8.399150101E-4
5.484158430E-1,-3.817795368E-4,-6.872031372E-4,2.290677221E-4
5.508418330E-1,8.399150101E-4,-1.298050396E-3,2.290677221E-4
5.532677700E-1,8.399150101E-4,-7.635590737E-5,-3.817795368E-4
5.556937600E-1,-3.817795368E-4,-1.298050396E-3,2.290677221E-4
5.581197490E-1,-1.603474026E-3,-7.635590737E-5,8.399150101E-4
5.605457390E-1,2.290677221E-4,-1.298050396E-3,-3.817795368E-4
5.629717290E-1,-9.926267667E-4,-7.635590737E-5,-9.926267667E-4
5.653976660E-1,8.399150101E-4,1.756185899E-3,2.290677221E-4
5.678236560E-1,8.399150101E-4,1.145338640E-3,8.399150101E-4
5.702496450E-1,2.290677221E-4,1.756185899E-3,8.399150101E-4
5.726755830E-1,-3.817795368E-4,1.145338640E-3,2.290677221E-4
5.751015720E-1,8.399150101E-4,1.145338640E-3,-3.817795368E-4
5.775275620E-1,-3.817795368E-4,-7.635590737E-5,1.450762269E-3
5.799535520E-1,2.290677221E-4,-6.872031372E-4,-3.817795368E-4
5.823794890E-1,2.290677221E-4,-7.635590737E-5,2.290677221E-4
5.848054790E-1,-3.817795368E-4,-7.635590737E-5,-3.817795368E-4
5.872314680E-1,-9.926267667E-4,-1.298050396E-3,-3.817795368E-4
5.896574580E-1,-9.926267667E-4,5.344913807E-4,8.399150101E-4
5.920834470E-1,2.290677221E-4,-6.872031372E-4,2.290677221E-4
5.945093850E-1,8.399150101E-4,-6.872031372E-4,8.399150101E-4
5.969353740E-1,8.399150101E-4,-1.298050396E-3,-3.817795368E-4
5.993613640E-1,-3.817795368E-4,-1.298050396E-3,-3.817795368E-4
6.017873020E-1,2.290677221E-4,-7.635590737E-5,8.399150101E-4
6.042132910E-1,8.399150101E-4,-6.872031372E-4,2.290677221E-4
6.066392810E-1,2.290677221E-4,1.756185899E-3,-9.926267667E-4
6.090652700E-1,-9.926267667E-4,5.344913807E-4,1.450762269E-3
6.114912080E-1,2.290677221E-4,-6.872031372E-4,-3.817795368E-4
6.139171970E-1,8.399150101E-4,-7.635590737E-5,-3.817795368E-4
6.163431870E-1,-9.926267667E-4,-1.298050396E-3,-9.926267667E-4
6.187691770E-1,1.450762269E-3,-6.872031372E-4,8.399150101E-4
6.211951140E-1,8.399150101E-4,5.344913807E-4,-3.817795368E-4
6.236211040E-1,8.399150101E-4,-7.635590737E-5,2.290677221E-4
6.260470930E-1,2.290677221E-4,-7.635590737E-5,-9.926267667E-4
6.284730830E-1,2.290677221E-4,-1.908897655E-3,-3.817795368E-4
6.308990200E-1,-9.926267667E-4,-6.872031372E-4,8.399150101E-4
6.333250100E-1,2.290677221E-4,-7.635590737E-5,2.290677221E-4
6.357509990E-1,2.290677221E-4,-1.298050396E-3,-3.817795368E-4
6.381769890E-1,8.399150101E-4,-1.298050396E-3,-9.926267667E-4
6.406029270E-1,2.290677221E-4,-1.298050396E-3,-3.817795368E-4
6.430289160E-1,8.399150101E-4,5.344913807E-4,2.290677221E-4
6.454549060E-1,2.290677221E-4,-7.635590737E-5,1.450762269E-3
6.478808950E-1,8.399150101E-4,5.344913807E-4,-9.926267667E-4
6.503068330E-1,8.399150101E-4,5.344913807E-4,-9.926267667E-4
6.527328220E-1,8.399150101E-4,-6.872031372E-4,8.399150101E-4
6.551588120E-1,1.450762269E-3,-1.298050396E-3,2.290677221E-4
6.575848020E-1,2.290677221E-4,-7.635590737E-5,2.290677221E-4
6.600107390E-1,-3.817795368E-4,5.344913807E-4,2.290677221E-4
6.624367290E-1,-3.817795368E-4,1.145338640E-3,-9.926267667E-4
6.648627180E-1,-3.817795368E-4,-7.635590737E-5,-9.926267667E-4
6.672887080E-1,-1.603474026E-3,-6.872031372E-4,2.290677221E-4
6.697146450E-1,2.290677221E-4,-7.635590737E-5,2.290677221E-4
6.721406350E-1,-9.926267667E-4,-1.298050396E-3,2.290677221E-4
6.745666240E-1,-3.817795368E-4,-6.872031372E-4,-3.817795368E-4
6.769926140E-1,-3.817795368E-4,-6.872031372E-4,8.399150101E-4
6.794185520E-1,2.290677221E-4,1.145338640E-3,8.399150101E-4
6.818445410E-1,-3.817795368E-4,5.344913807E-4,2.290677221E-4
6.842705310E-1,2.061609412E-3,-6.872031372E-4,2.290677221E-4
6.866965200E-1,2.290677221E-4,-7.635590737E-5,8.399150101E-4
6.891224580E-1,-9.926267667E-4,-6.872031372E-4,2.290677221E-4
6.915484470E-1,2.290677221E-4,-6.872031372E-4,2.290677221E-4
6.939744370E-1,2.290677221E-4,-1.298050396E-3,2.290677221E-4
6.964003740E-1,-3.817795368E-4,-1.298050396E-3,2.290677221E-4
6.988263640E-1,-3.817795368E-4,-7.635590737E-5,-3.817795368E-4
7.012523540E-1,-3.817795368E-4,-7.635590737E-5,-9.926267667E-4
7.036783430E-1,8.399150101E-4,5.344913807E-4,8.399150101E-4
7.061042810E-1,-9.926267667E-4,-6.872031372E-4,8.399150101E-4
7.085302700E-1,-3.817795368E-4,-7.635590737E-5,8.399150101E-4
7.109562600E-1,-9.926267667E-4,-7.635590737E-5,8.399150101E-4
7.133822490E-1,8.399150101E-4,-6.872031372E-4,-3.817795368E-4
7.158082390E-1,8.399150101E-4,5.344913807E-4,-9.926267667E-4
7.182341770E-1,-3.817795368E-4,5.344913807E-4,8.399150101E-4
7.206601660E-1,1.450762269E-3,5.344913807E-4,8.399150101E-4
7.230861560E-1,8.399150101E-4,-6.872031372E-4,-3.817795368E-4
7.255121450E-1,-3.817795368E-4,-7.635590737E-5,8.399150101E-4
7.279380830E-1,2.290677221E-4,-7.635590737E-5,1.450762269E-3
7.303640720E-1,-3.817795368E-4,-6.872031372E-4,-9.926267667E-4
7.327900620E-1,1.450762269E-3,-7.635590737E-5,-9.926267667E-4
7.352160520E-1,2.290677221E-4,-6.872031372E-4,-1.603474026E-3
7.376419890E-1,1.450762269E-3,-1.298050396E-3,-3.817795368E-4
7.400679790E-1,-3.817795368E-4,-1.298050396E-3,-3.817795368E-4
7.424939680E-1,-3.817795368E-4,-7.635590737E-5,8.399150101E-4
7.449199580E-1,-1.603474026E-3,1.145338640E-3,-3.817795368E-4
7.473458950E-1,2.290677221E-4,-7.635590737E-5,8.399150101E-4
7.497718850E-1,2.061609412E-3,-7.635590737E-5,2.290677221E-4
7.521978740E-1,1.450762269E-3,-7.635590737E-5,-3.817795368E-4
7.546238640E-1,-9.926267667E-4,-6.872031372E-4,2.061609412E-3
7.570498020E-1,8.399150101E-4,5.344913807E-4,1.450762269E-3
7.594757910E-1,8.399150101E-4,-6.872031372E-4,1.450762269E-3
7.619017810E-1,1.450762269E-3,-7.635590737E-5,-3.817795368E-4
7.643277700E-1,2.290677221E-4,5.344913807E-4,-1.603474026E-3
7.667537080E-1,2.290677221E-4,-7.635590737E-5,-3.817795368E-4
7.691796970E-1,-3.817795368E-4,5.344913807E-4,-3.817795368E-4
7.716056870E-1,1.450762269E-3,1.145338640E-3,-9.926267667E-4
7.740316770E-1,8.399150101E-4,5.344913807E-4,-9.926267667E-4
7.764576140E-1,-9.926267667E-4,-7.635590737E-5,8.399150101E-4
7.788836040E-1,2.290677221E-4,1.145338640E-3,1.450762269E-3
7.813095930E-1,-3.817795368E-4,-7.635590737E-5,8.399150101E-4
7.837355830E-1,2.290677221E-4,5.344913807E-4,-3.817795368E-4
7.861615200E-1,8.399150101E-4,1.145338640E-3,-3.817795368E-4
7.885875100E-1,2.290677221E-4,5.344913807E-4,-3.817795368E-4
7.910134990E-1,8.399150101E-4,5.344913807E-4,2.290677221E-4
7.934394890E-1,1.450762269E-3,-7.635590737E-5,2.290677221E-4
7.958654270E-1,2.290677221E-4,5.344913807E-4,-3.817795368E-4
7.982914160E-1,-9.926267667E-4,-6.872031372E-4,2.290677221E-4
8.007174060E-1,-3.817795368E-4,-6.872031372E-4,8.399150101E-4
8.031433950E-1,-1.603474026E-3,-7.635590737E-5,8.399150101E-4
8.055693330E-1,-3.817795368E-4,-1.298050396E-3,-9.926267667E-4
8.079953220E-1,8.399150101E-4,-7.635590737E-5,-3.817795368E-4
8.104213120E-1,8.399150101E-4,-7.635590737E-5,2.290677221E-4
8.128473020E-1,-3.817795368E-4,-6.872031372E-4,2.290677221E-4
8.152732390E-1,8.399150101E-4,-6.872031372E-4,-9.926267667E-4
8.176992290E-1,-9.926267667E-4,-1.908897655E-3,8.399150101E-4
8.201252180E-1,-1.603474026E-3,-1.298050396E-3,2.290677221E-4
8.225512080E-1,-3.817795368E-4,5.344913807E-4,2.290677221E-4
8.249771450E-1,2.290677221E-4,1.145338640E-3,-3.817795368E-4
8.274031350E-1,8.399150101E-4,1.756185899E-3,8.399150101E-4
8.298291240E-1,1.450762269E-3,-7.635590737E-5,8.399150101E-4
8.322551140E-1,8.399150101E-4,-7.635590737E-5,2.290677221E-4
8.346810520E-1,8.399150101E-4,-6.872031372E-4,8.399150101E-4
8.371070410E-1,2.290677221E-4,-6.872031372E-4,8.399150101E-4
8.395330310E-1,2.290677221E-4,-7.635590737E-5,8.399150101E-4
8.419590200E-1,2.290677221E-4,5.344913807E-4,2.290677221E-4
8.443849580E-1,-3.817795368E-4,5.344913807E-4,-3.817795368E-4
8.468109470E-1,-3.817795368E-4,5.344913807E-4,-3.817795368E-4
8.492369370E-1,2.061609412E-3,-1.908897655E-3,2.290677221E-4
8.516629270E-1,2.290677221E-4,-7.635590737E-5,2.290677221E-4
8.540888640E-1,-3.817795368E-4,-1.908897655E-3,-9.926267667E-4
8.565148540E-1,2.290677221E-4,-7.635590737E-5,-9.926267667E-4
8.589408430E-1,8.399150101E-4,-6.872031372E-4,1.450762269E-3
8.613668330E-1,2.290677221E-4,-6.872031372E-4,1.450762269E-3
8.637928220E-1,8.399150101E-4,-6.872031372E-4,-9.926267667E-4
8.662187600E-1,2.290677221E-4,-6.872031372E-4,-1.603474026E-3
8.686447490E-1,-3.817795368E-4,-6.872031372E-4,-9.926267667E-4
8.710707390E-1,2.290677221E-4,-7.635590737E-5,-3.817795368E-4
8.734967290E-1,-3.817795368E-4,-7.635590737E-5,-3.817795368E-4
8.759226660E-1,2.290677221E-4,-6.872031372E-4,8.399150101E-4
8.783486560E-1,-3.817795368E-4,-6.872031372E-4,8.399150101E-4
8.807746450E-1,-3.817795368E-4,-6.872031372E-4,8.399150101E-4
8.832006350E-1,8.399150101E-4,1.145338640E-3,1.450762269E-3
8.856265720E-1,8.399150101E-4,-1.298050396E-3,-3.817795368E-4
8.880525620E-1,8.399150101E-4,5.344913807E-4,1.450762269E-3
8.904785520E-1,8.399150101E-4,-7.635590737E-5,2.290677221E-4
8.929045410E-1,1.450762269E-3,5.344913807E-4,-3.817795368E-4
8.953304790E-1,2.290677221E-4,-7.635590737E-5,8.399150101E-4
8.977564680E-1,-3.817795368E-4,-6.872031372E-4,2.290677221E-4
9.001824580E-1,8.399150101E-4,-7.635590737E-5,2.290677221E-4
9.026084470E-1,2.061609412E-3,-7.635590737E-5,-3.817795368E-4
9.050343850E-1,1.450762269E-3,-6.872031372E-4,-3.817795368E-4
9.074603740E-1,-3.817795368E-4,-1.298050396E-3,-3.817795368E-4
9.098863640E-1,-3.817795368E-4,-6.872031372E-4,-3.817795368E-4
9.123123540E-1,2.290677221E-4,-2.519744914E-3,2.290677221E-4
9.147382910E-1,-3.817795368E-4,5.344913807E-4,-3.817795368E-4
9.171642810E-1,2.290677221E-4,-7.635590737E-5,-2.214321401E-3
9.195902700E-1,8.399150101E-4,1.145338640E-3,-9.926267667E-4
9.220162600E-1,2.290677221E-4,-7.635590737E-5,-3.817795368E-4
9.244421970E-1,8.399150101E-4,-7.635590737E-5,8.399150101E-4
9.268681870E-1,-3.817795368E-4,-7.635590737E-5,-3.817795368E-4
9.292941770E-1,2.290677221E-4,-6.872031372E-4,2.290677221E-4
9.317201660E-1,8.399150101E-4,-6.872031372E-4,-3.817795368E-4
9.341461040E-1,2.290677221E-4,-7.635590737E-5,8.399150101E-4
9.365720930E-1,2.290677221E-4,5.344913807E-4,8.399150101E-4
9.389980830E-1,2.061609412E-3,-7.635590737E-5,2.290677221E-4
9.414240720E-1,2.290677221E-4,-7.635590737E-5,2.290677221E-4
9.438500620E-1,2.290677221E-4,-1.298050396E-3,-3.817795368E-4
9.462759990E-1,2.290677221E-4,-6.872031372E-4,-3.817795368E-4
9.487019890E-1,2.290677221E-4,2.367033157E-3,-9.926267667E-4
9.511279790E-1,2.290677221E-4,-7.635590737E-5,2.290677221E-4
9.535539680E-1,-3.817795368E-4,-7.635590737E-5,-1.603474026E-3
9.559799060E-1,-9.926267667E-4,5.344913807E-4,-9.926267667E-4
9.584058950E-1,-3.817795368E-4,-6.872031372E-4,-3.817795368E-4
9.608318850E-1,-3.817795368E-4,-1.298050396E-3,2.290677221E-4
9.632578740E-1,2.290677221E-4,-6.872031372E-4,8.399150101E-4
9.656838120E-1,2.290677221E-4,-6.872031372E-4,8.399150101E-4
9.681098020E-1,2.290677221E-4,1.145338640E-3,-3.817795368E-4
9.705357910E-1,-3.817795368E-4,5.344913807E-4,2.290677221E-4
9.729617810E-1,-3.817795368E-4,-7.635590737E-5,-3.817795368E-4
9.753877700E-1,-9.926267667E-4,-6.872031372E-4,2.290677221E-4
9.778137080E-1,8.399150101E-4,-6.872031372E-4,-3.817795368E-4
9.802396970E-1,2.290677221E-4,1.756185899E-3,8.399150101E-4
9.826656870E-1,2.290677221E-4,5.344913807E-4,2.290677221E-4
9.850916240E-1,2.290677221E-4,-7.635590737E-5,8.399150101E-4
9.875176140E-1,-3.817795368E-4,5.344913807E-4,2.290677221E-4
9.899436040E-1,8.399150101E-4,-6.872031372E-4,-3.817795368E-4
9.923695930E-1,8.399150101E-4,1.145338640E-3,8.399150101E-4
9.947955310E-1,-3.817795368E-4,-6.872031372E-4,1.450762269E-3
9.972215200E-1,-3.817795368E-4,-1.298050396E-3,8.399150101E-4
9.996475100E-1,2.290677221E-4,-6.872031372E-4,8.399150101E-4
1.002073499E0,-3.817795368E-4,1.145338640E-3,-3.817795368E-4
1.004499489E0,8.399150101E-4,5.344913807E-4,-3.817795368E-4
1.006925427E0,-3.817795368E-4,-6.872031372E-4,-9.926267667E-4
1.009351416E0,-3.817795368E-4,-6.872031372E-4,2.290677221E-4
1.011777406E0,-3.817795368E-4,-6.872031372E-4,-3.817795368E-4
1.014203395E0,2.290677221E-4,5.344913807E-4,2.290677221E-4
1.016629333E0,2.061609412E-3,5.344913807E-4,8.399150101E-4
1.019055322E0,-9.926267667E-4,-6.872031372E-4,2.290677221E-4
1.021481312E0,2.290677221E-4,-6.872031372E-4,-3.817795368E-4
1.023907302E0,-3.817795368E-4,-1.298050396E-3,-2.214321401E-3
1.026333239E0,-3.817795368E-4,-7.635590737E-5,-1.603474026E-3
1.028759229E0,2.290677221E-4,-6.872031372E-4,-9.926267667E-4
1.031185218E0,2.290677221E-4,-1.298050396E-3,8.399150101E-4
1.033611208E0,-3.817795368E-4,-6.872031372E-4,-3.817795368E-4
1.036037145E0,-9.926267667E-4,5.344913807E-4,2.290677221E-4
1.038463135E0,-9.926267667E-4,-7.635590737E-5,-9.926267667E-4
1.040889124E0,1.450762269E-3,5.344913807E-4,8.399150101E-4
1.043315114E0,-3.817795368E-4,-6.872031372E-4,8.399150101E-4
1.045741104E0,8.399150101E-4,-1.298050396E-3,8.399150101E-4
1.048167041E0,2.290677221E-4,-6.872031372E-4,2.290677221E-4
1.050593031E0,-3.817795368E-4,-7.635590737E-5,2.061609412E-3
1.053019020E0,2.290677221E-4,-7.635590737E-5,8.399150101E-4
1.055445010E0,1.450762269E-3,5.344913807E-4,1.450762269E-3
1.057870947E0,8.399150101E-4,-7.635590737E-5,1.450762269E-3
1.060296937E0,2.290677221E-4,-1.298050396E-3,2.290677221E-4
1.062722927E0,8.399150101E-4,-1.298050396E-3,8.399150101E-4
1.065148916E0,8.399150101E-4,5.344913807E-4,2.290677221E-4
1.067574854E0,2.290677221E-4,5.344913807E-4,-3.817795368E-4
1.070000843E0,1.450762269E-3,-7.635590737E-5,8.399150101E-4
1.072426833E0,2.290677221E-4,5.344913807E-4,-3.817795368E-4
1.074852822E0,8.399150101E-4,-1.298050396E-3,-3.817795368E-4
1.077278760E0,1.450762269E-3,5.344913807E-4,2.290677221E-4
1.079704749E0,2.290677221E-4,-1.298050396E-3,2.290677221E-4
1.082130739E0,2.290677221E-4,-6.872031372E-4,8.399150101E-4
1.084556729E0,8.399150101E-4,-1.298050396E-3,-9.926267667E-4
1.086982718E0,8.399150101E-4,5.344913807E-4,-9.926267667E-4
1.089408656E0,-3.817795368E-4,-6.872031372E-4,8.399150101E-4
1.091834645E0,1.450762269E-3,-6.872031372E-4,-9.926267667E-4
1.094260635E0,2.290677221E-4,5.344913807E-4,2.290677221E-4
1.096686624E0,2.290677221E-4,-1.298050396E-3,8.399150101E-4
1.099112562E0,-9.926267667E-4,-7.635590737E-5,-3.817795368E-4
1.101538552E0,2.290677221E-4,-6.872031372E-4,2.290677221E-4
1.103964541E0,2.290677221E-4,-1.298050396E-3,8.399150101E-4
1.106390531E0,-3.817795368E-4,1.145338640E-3,2.290677221E-4
1.108816468E0,2.290677221E-4,-7.635590737E-5,-9.926267667E-4
1.111242458E0,1.450762269E-3,-6.872031372E-4,2.290677221E-4
1.113668447E0,1.450762269E-3,-7.635590737E-5,8.399150101E-4
1.116094437E0,8.399150101E-4,5.344913807E-4,-3.817795368E-4
1.118520427E0,2.290677221E-4,-6.872031372E-4,-9.926267667E-4
1.120946364E0,-3.817795368E-4,-1.298050396E-3,-9.926267667E-4
1.123372354E0,8.399150101E-4,-6.872031372E-4,8.399150101E-4
1.125798343E0,-3.817795368E-4,-7.635590737E-5,2.290677221E-4
1.128224281E0,2.290677221E-4,5.344913807E-4,8.399150101E-4
1.130650270E0,8.399150101E-4,5.344913807E-4,2.290677221E-4
1.133076260E0,-3.817795368E-4,5.344913807E-4,8.399150101E-4
1.135502249E0,2.290677221E-4,5.344913807E-4,8.399150101E-4
1.137928239E0,2.290677221E-4,-7.635590737E-5,2.290677221E-4
1.140354177E0,-3.817795368E-4,-6.872031372E-4,-3.817795368E-4
1.142780166E0,8.399150101E-4,-7.635590737E-5,-3.817795368E-4
1.145206156E0,-1.603474026E-3,-7.635590737E-5,8.399150101E-4
1.147632145E0,8.399150101E-4,-1.298050396E-3,-3.817795368E-4
1.150058083E0,8.399150101E-4,-6.872031372E-4,-3.817795368E-4
1.152484072E0,1.450762269E-3,-6.872031372E-4,-9.926267667E-4
1.154910062E0,8.399150101E-4,-6.872031372E-4,-3.817795368E-4
1.157336052E0,1.450762269E-3,5.344913807E-4,2.290677221E-4
1.159761989E0,2.290677221E-4,5.344913807E-4,1.450762269E-3
1.162187979E0,1.450762269E-3,5.344913807E-4,2.290677221E-4
1.164613968E0,2.290677221E-4,-6.872031372E-4,-9.926267667E-4
1.167039958E0,8.399150101E-4,-7.635590737E-5,-3.817795368E-4
1.169465947E0,2.061609412E-3,-7.635590737E-5,-3.817795368E-4
1.171891885E0,2.061609412E-3,-7.635590737E-5,1.450762269E-3
1.174317874E0,8.399150101E-4,-6.872031372E-4,8.399150101E-4
1.176743864E0,2.290677221E-4,5.344913807E-4,2.290677221E-4
1.179169854E0,8.399150101E-4,-7.635590737E-5,8.399150101E-4
1.181595791E0,2.290677221E-4,-7.635590737E-5,1.450762269E-3
1.184021781E0,-3.817795368E-4,-1.298050396E-3,8.399150101E-4
1.186447770E0,2.290677221E-4,-7.635590737E-5,-3.817795368E-4
1.188873760E0,-3.817795368E-4,-1.298050396E-3,2.290677221E-4
1.191299697E0,2.290677221E-4,-6.872031372E-4,8.399150101E-4
1.193725687E0,-3.817795368E-4,-1.298050396E-3,2.290677221E-4
1.196151677E0,8.399150101E-4,5.344913807E-4,-3.817795368E-4
1.198577666E0,-1.603474026E-3,1.145338640E-3,2.290677221E-4
1.201003656E0,-3.817795368E-4,5.344913807E-4,8.399150101E-4
1.203429593E0,-3.817795368E-4,-7.635590737E-5,2.290677221E-4
1.205855583E0,2.290677221E-4,1.145338640E-3,-3.817795368E-4
1.208281572E0,2.061609412E-3,-1.298050396E-3,-3.817795368E-4
1.210707562E0,-9.926267667E-4,5.344913807E-4,1.450762269E-3
1.213133499E0,2.290677221E-4,-7.635590737E-5,2.061609412E-3
1.215559489E0,2.290677221E-4,5.344913807E-4,1.450762269E-3
1.217985479E0,8.399150101E-4,1.145338640E-3,8.399150101E-4
1.220411468E0,1.450762269E-3,1.145338640E-3,1.450762269E-3
1.222837458E0,2.290677221E-4,5.344913807E-4,-3.817795368E-4
1.225263395E0,8.399150101E-4,-6.872031372E-4,-1.603474026E-3
1.227689385E0,8.399150101E-4,-7.635590737E-5,-9.926267667E-4
1.230115374E0,-3.817795368E-4,-1.908897655E-3,-3.817795368E-4
1.232541364E0,8.399150101E-4,-7.635590737E-5,-3.817795368E-4
1.234967302E0,-3.817795368E-4,5.344913807E-4,-3.817795368E-4
1.237393291E0,1.450762269E-3,-6.872031372E-4,8.399150101E-4
1.239819281E0,1.450762269E-3,-1.298050396E-3,-3.817795368E-4
1.242245270E0,2.290677221E-4,-6.872031372E-4,2.290677221E-4
1.244671208E0,2.290677221E-4,1.145338640E-3,-3.817795368E-4
1.247097197E0,-9.926267667E-4,5.344913807E-4,2.290677221E-4
1.249523187E0,-3.817795368E-4,-1.298050396E-3,2.290677221E-4
1.251949177E0,-9.926267667E-4,-1.908897655E-3,8.399150101E-4
1.254375114E0,-9.926267667E-4,-7.635590737E-5,8.399150101E-4
1.256801104E0,-3.817795368E-4,-7.635590737E-5,2.290677221E-4
1.259227093E0,-9.926267667E-4,-7.635590737E-5,-3.817795368E-4
1.261653083E0,8.399150101E-4,5.344913807E-4,-1.603474026E-3
1.264079072E0,1.450762269E-3,1.756185899E-3,2.061609412E-3
1.266505010E0,2.290677221E-4,5.344913807E-4,1.450762269E-3
1.268930999E0,2.290677221E-4,-7.635590737E-5,-9.926267667E-4
1.271356989E0,8.399150101E-4,-1.298050396E-3,-9.926267667E-4
1.273782979E0,-9.926267667E-4,5.344913807E-4,-3.817795368E-4
1.276208916E0,-9.926267667E-4,5.344913807E-4,-3.817795368E-4
1.278634906E0,8.399150101E-4,-6.872031372E-4,-3.817795368E-4
1.281060895E0,-3.817795368E-4,-6.872031372E-4,-3.817795368E-4
1.283486885E0,-3.817795368E-4,-7.635590737E-5,-3.817795368E-4
1.285912822E0,-3.817795368E-4,5.344913807E-4,1.450762269E-3
1.288338812E0,2.290677221E-4,-1.298050396E-3,2.290677221E-4
1.290764802E0,2.290677221E-4,-7.635590737E-5,2.290677221E-4
1.293190791E0,8.399150101E-4,5.344913807E-4,-3.817795368E-4
1.295616781E0,2.061609412E-3,1.145338640E-3,-9.926267667E-4
1.298042718E0,2.290677221E-4,-6.872031372E-4,8.399150101E-4
1.300468708E0,8.399150101E-4,-1.298050396E-3,8.399150101E-4
1.302894697E0,8.399150101E-4,-7.635590737E-5,-3.817795368E-4
1.305320687E0,-9.926267667E-4,-7.635590737E-5,8.399150101E-4
1.307746624E0,8.399150101E-4,-6.872031372E-4,2.290677221E-4
1.310172614E0,2.290677221E-4,-6.872031372E-4,2.290677221E-4
1.312598604E0,1.450762269E-3,-1.298050396E-3,1.450762269E-3
1.315024593E0,8.399150101E-4,-7.635590737E-5,8.399150101E-4
1.317450531E0,-3.817795368E-4,5.344913807E-4,-9.926267667E-4
1.319876520E0,2.290677221E-4,-1.298050396E-3,-9.926267667E-4
1.322302510E0,8.399150101E-4,-6.872031372E-4,-3.817795368E-4
1.324728499E0,2.061609412E-3,-1.298050396E-3,-1.603474026E-3
1.327154437E0,2.290677221E-4,1.145338640E-3,-3.817795368E-4
1.329580427E0,-9.926267667E-4,5.344913807E-4,8.399150101E-4
1.332006416E0,8.399150101E-4,1.145338640E-3,8.399150101E-4
1.334432406E0,2.290677221E-4,-7.635590737E-5,2.290677221E-4
1.336858395E0,8.399150101E-4,5.344913807E-4,-3.817795368E-4
1.339284333E0,2.290677221E-4,-7.635590737E-5,-9.926267667E-4
1.341710322E0,2.290677221E-4,-1.298050396E-3,-9.926267667E-4
1.344136312E0,2.290677221E-4,5.344913807E-4,2.290677221E-4
1.346562302E0,1.450762269E-3,-7.635590737E-5,8.399150101E-4
1.348988291E0,8.399150101E-4,-1.298050396E-3,-9.926267667E-4
1.351414229E0,2.290677221E-4,5.344913807E-4,-3.817795368E-4
1.353840218E0,2.290677221E-4,-7.635590737E-5,-3.817795368E-4
1.356266208E0,1.450762269E-3,1.145338640E-3,1.450762269E-3
1.358692197E0,-3.817795368E-4,5.344913807E-4,-3.817795368E-4
1.361118135E0,2.061609412E-3,-7.635590737E-5,-3.817795368E-4
1.363544124E0,-9.926267667E-4,5.344913807E-4,8.399150101E-4
1.365970114E0,-1.603474026E-3,5.344913807E-4,2.290677221E-4
1.368396104E0,8.399150101E-4,1.145338640E-3,-9.926267667E-4
1.370822041E0,2.290677221E-4,-7.635590737E-5,-3.817795368E-4
1.373248031E0,8.399150101E-4,-7.635590737E-5,-3.817795368E-4
1.375674020E0,-9.926267667E-4,-7.635590737E-5,-3.817795368E-4
1.378100010E0,8.399150101E-4,-6.872031372E-4,-3.817795368E-4
1.380525947E0,2.290677221E-4,-6.872031372E-4,-9.926267667E-4
1.382951937E0,2.290677221E-4,5.344913807E-4,2.290677221E-4
1.385377927E0,2.290677221E-4,-6.872031372E-4,-3.817795368E-4
1.387803916E0,8.399150101E-4,-7.635590737E-5,2.290677221E-4
1.390229906E0,1.450762269E-3,5.344913807E-4,-1.603474026E-3
1.392655843E0,8.399150101E-4,-1.908897655E-3,-9.926267667E-4
1.395081833E0,-3.817795368E-4,-7.635590737E-5,2.290677221E-4
1.397507822E0,2.290677221E-4,-6.872031372E-4,-9.926267667E-4
1.399933812E0,2.290677221E-4,-7.635590737E-5,-3.817795368E-4
1.402359802E0,8.399150101E-4,1.145338640E-3,-9.926267667E-4
1.404785739E0,1.450762269E-3,-6.872031372E-4,2.290677221E-4
1.407211729E0,2.290677221E-4,-6.872031372E-4,2.290677221E-4
1.409637718E0,-3.817795368E-4,5.344913807E-4,8.399150101E-4
1.412063708E0,2.290677221E-4,5.344913807E-4,8.399150101E-4
1.414489645E0,2.290677221E-4,5.344913807E-4,2.290677221E-4
1.416915635E0,2.290677221E-4,-6.872031372E-4,8.399150101E-4
1.419341624E0,-2.214321401E-3,-6.872031372E-4,-3.817795368E-4
1.421767614E0,2.290677221E-4,1.145338640E-3,2.290677221E-4
1.424193552E0,8.399150101E-4,-7.635590737E-5,-3.817795368E-4
1.426619541E0,-3.817795368E-4,5.344913807E-4,2.290677221E-4
1.429045531E0,8.399150101E-4,-1.298050396E-3,8.399150101E-4
1.431471520E0,1.450762269E-3,-7.635590737E-5,-3.817795368E-4
1.433897458E0,2.290677221E-4,1.145338640E-3,-3.817795368E-4
1.436323447E0,8.399150101E-4,-1.298050396E-3,-3.817795368E-4
1.438749437E0,1.450762269E-3,-1.908897655E-3,2.290677221E-4
1.441175427E0,2.061609412E-3,-1.298050396E-3,2.061609412E-3
1.443601416E0,-3.817795368E-4,-7.635590737E-5,1.450762269E-3
1.446027354E0,2.290677221E-4,-7.635590737E-5,2.290677221E-4
1.448453343E0,2.290677221E-4,-1.298050396E-3,8.399150101E-4
1.450879333E0,2.290677221E-4,-6.872031372E-4,2.290677221E-4
1.453305322E0,8.399150101E-4,-7.635590737E-5,-3.817795368E-4
1.455731260E0,8.399150101E-4,-1.908897655E-3,8.399150101E-4
1.458157249E0,-3.817795368E-4,-7.635590737E-5,8.399150101E-4
1.460583239E0,2.290677221E-4,-6.872031372E-4,-3.817795368E-4
1.463009229E0,2.290677221E-4,-1.298050396E-3,-9.926267667E-4
1.465435218E0,2.290677221E-4,-1.298050396E-3,2.290677221E-4
1.467861156E0,8.399150101E-4,1.756185899E-3,-3.817795368E-4
1.470287145E0,-3.817795368E-4,-7.635590737E-5,-1.603474026E-3
1.472713135E0,-3.817795368E-4,-6.872031372E-4,8.399150101E-4
1.475139124E0,-3.817795368E-4,1.145338640E-3,1.450762269E-3
1.477565062E0,8.399150101E-4,5.344913807E-4,2.290677221E-4
1.479991052E0,8.399150101E-4,-6.872031372E-4,-9.926267667E-4
1.482417041E0,-3.817795368E-4,-1.298050396E-3,-9.926267667E-4
1.484843031E0,2.290677221E-4,5.344913807E-4,8.399150101E-4
1.487269020E0,8.399150101E-4,5.344913807E-4,2.290677221E-4
1.489694958E0,8.399150101E-4,-7.635590737E-5,2.290677221E-4
1.492120947E0,-3.817795368E-4,-6.872031372E-4,-3.817795368E-4
1.494546937E0,-9.926267667E-4,-7.635590737E-5,-3.817795368E-4
1.496972927E0,-3.817795368E-4,-6.872031372E-4,-1.603474026E-3
1.499398864E0,8.399150101E-4,-7.635590737E-5,-3.817795368E-4
1.501824854E0,-9.926267667E-4,5.344913807E-4,2.290677221E-4
1.504250843E0,2.290677221E-4,-7.635590737E-5,-3.817795368E-4
1.506676833E0,-3.817795368E-4,-7.635590737E-5,2.290677221E-4
1.509102822E0,-1.603474026E-3,-6.872031372E-4,-9.926267667E-4
1.511528760E0,-9.926267667E-4,-7.635590737E-5,2.290677221E-4
1.513954749E0,2.290677221E-4,5.344913807E-4,-9.926267667E-4
1.516380739E0,5.344913807E-4,-5.344913807E-4,1.527118147E-4
1.518806729E0,-7.635590737E-5,-5.344913807E-4,-1.068982761E-3
1.521232666E0,-1.298050396E-3,7.635590737E-5,1.374406274E-3
1.523658656E0,-6.872031372E-4,-5.344913807E-4,1.527118147E-4
1.526084645E0,-6.872031372E-4,7.635590737E-5,-1.068982761E-3
1.528510635E0,5.344913807E-4,-5.344913807E-4,-4.581354442E-4
1.530936572E0,-1.908897655E-3,6.872031372E-4,-1.068982761E-3
1.533362562E0,-1.298050396E-3,6.872031372E-4,1.527118147E-4
1.535788552E0,-6.872031372E-4,-5.344913807E-4,7.635590737E-4
1.538214541E0,-6.872031372E-4,6.872031372E-4,1.527118147E-4
1.540640479E0,-7.635590737E-5,-1.145338640E-3,-1.068982761E-3
1.543066468E0,1.145338640E-3,-5.344913807E-4,-4.581354442E-4
1.545492458E0,-6.872031372E-4,1.298050396E-3,7.635590737E-4
1.547918447E0,-7.635590737E-5,7.635590737E-5,1.527118147E-4
1.550344437E0,-6.872031372E-4,-1.145338640E-3,1.527118147E-4
1.552770374E0,-1.298050396E-3,-5.344913807E-4,-1.603474026E-3
1.555196364E0,-7.635590737E-5,-5.344913807E-4,-3.817795368E-4
1.557622354E0,-1.298050396E-3,7.635590737E-5,2.290677221E-4
1.560048343E0,-6.872031372E-4,7.635590737E-5,-3.817795368E-4
1.562474281E0,-6.872031372E-4,-5.344913807E-4,2.290677221E-4
1.564900270E0,-7.635590737E-5,-5.344913807E-4,2.290677221E-4
1.567326260E0,-1.298050396E-3,-5.344913807E-4,-3.817795368E-4
1.569752249E0,-7.635590737E-5,6.872031372E-4,2.290677221E-4
1.572178239E0,-6.872031372E-4,-1.145338640E-3,2.290677221E-4
1.574604177E0,-7.635590737E-5,-5.344913807E-4,8.399150101E-4
1.577030166E0,-7.635590737E-5,6.872031372E-4,8.399150101E-4
1.579456156E0,-7.635590737E-5,6.872031372E-4,1.450762269E-3
1.581882145E0,5.344913807E-4,-5.344913807E-4,2.290677221E-4
1.584308083E0,5.344913807E-4,7.635590737E-5,-3.817795368E-4
1.586734072E0,5.344913807E-4,7.635590737E-5,8.399150101E-4
1.589160062E0,-1.298050396E-3,-5.344913807E-4,-3.817795368E-4
1.591586052E0,-1.298050396E-3,7.635590737E-5,2.290677221E-4
1.594011989E0,5.344913807E-4,7.635590737E-5,2.290677221E-4
1.596437979E0,-7.635590737E-5,7.635590737E-5,2.290677221E-4
1.598863968E0,-7.635590737E-5,-5.344913807E-4,2.290677221E-4
1.601289958E0,-7.635590737E-5,6.872031372E-4,-3.817795368E-4
1.603715947E0,1.145338640E-3,7.635590737E-5,-3.817795368E-4
1.606141885E0,-7.635590737E-5,-5.344913807E-4,-3.817795368E-4
1.608567874E0,-7.635590737E-5,6.872031372E-4,-3.817795368E-4
1.610993864E0,-6.872031372E-4,7.635590737E-5,8.399150101E-4
1.613419854E0,5.344913807E-4,7.635590737E-5,-3.817795368E-4
1.615845843E0,-6.872031372E-4,7.635590737E-5,2.290677221E-4
1.618271781E0,-7.635590737E-5,-1.145338640E-3,-9.926267667E-4
1.620697770E0,-7.635590737E-5,-5.344913807E-4,2.290677221E-4
1.623123760E0,-7.635590737E-5,6.872031372E-4,-3.817795368E-4
1.625549749E0,6.108472589E-4,6.872031372E-4,8.399150101E-4
1.627975687E0,-6.108472589E-4,7.635590737E-5,-3.817795368E-4
1.630401677E0,-6.108472589E-4,1.908897655E-3,2.290677221E-4
1.632827666E0,-0.000000000E0,6.872031372E-4,8.399150101E-4
1.635253656E0,-0.000000000E0,7.635590737E-5,-3.817795368E-4
1.637679593E0,-6.108472589E-4,-5.344913807E-4,8.399150101E-4
1.640105583E0,6.108472589E-4,7.635590737E-5,2.290677221E-4
1.642531572E0,6.108472589E-4,7.635590737E-5,-3.817795368E-4
1.644957562E0,1.221694518E-3,7.635590737E-5,2.290677221E-4
1.647383499E0,-0.000000000E0,6.872031372E-4,-3.817795368E-4
1.649809489E0,-1.221694518E-3,6.872031372E-4,-3.817795368E-4
1.652235479E0,6.108472589E-4,6.872031372E-4,1.450762269E-3
1.654661468E0,6.108472589E-4,-5.344913807E-4,-3.817795368E-4
1.657087458E0,1.221694518E-3,7.635590737E-5,2.290677221E-4
1.659513395E0,-6.108472589E-4,-5.344913807E-4,-9.926267667E-4
1.661939385E0,-6.108472589E-4,6.872031372E-4,-3.817795368E-4
1.664365374E0,-1.221694518E-3,-1.145338640E-3,2.290677221E-4
1.666791364E0,-6.108472589E-4,-5.344913807E-4,1.450762269E-3
1.669217302E0,0.000000000E0,6.872031372E-4,-3.817795368E-4
1.671643291E0,6.108472589E-4,-5.344913807E-4,8.399150101E-4
1.674069281E0,6.108472589E-4,7.635590737E-5,2.290677221E-4
1.676495270E0,0.000000000E0,7.635590737E-5,2.290677221E-4
1.678921260E0,6.108472589E-4,7.635590737E-5,8.399150101E-4
1.681347197E0,0.000000000E0,1.298050396E-3,-3.817795368E-4
1.683773187E0,0.000000000E0,1.298050396E-3,-3.817795368E-4
1.686199177E0,1.221694518E-3,6.872031372E-4,2.290677221E-4
1.688625166E0,-6.108472589E-4,1.298050396E-3,8.399150101E-4
1.691051156E0,6.108472589E-4,6.872031372E-4,2.290677221E-4
1.693477093E0,-1.832541777E-3,7.635590737E-5,1.450762269E-3
1.695903083E0,-6.108472589E-4,-1.756185899E-3,2.290677221E-4
1.698329072E0,6.108472589E-4,1.298050396E-3,-9.926267667E-4
1.700755062E0,0.000000000E0,1.298050396E-3,2.290677221E-4
1.703180999E0,6.108472589E-4,6.872031372E-4,-3.817795368E-4
1.705606989E0,0.000000000E0,-5.344913807E-4,8.399150101E-4
1.708032979E0,-6.108472589E-4,7.635590737E-5,1.450762269E-3
1.710458968E0,0.000000000E0,6.872031372E-4,8.399150101E-4
1.712884958E0,0.000000000E0,1.298050396E-3,2.672456671E-3
1.715310895E0,1.221694518E-3,6.872031372E-4,-9.926267667E-4
1.717736885E0,0.000000000E0,7.635590737E-5,2.290677221E-4
1.720162874E0,-1.221694518E-3,1.298050396E-3,1.450762269E-3
1.722588864E0,-1.221694518E-3,6.872031372E-4,8.399150101E-4
1.725014802E0,-6.108472589E-4,1.298050396E-3,2.290677221E-4
1.727440791E0,-6.108472589E-4,6.872031372E-4,-3.817795368E-4
1.729866781E0,6.108472589E-4,-1.756185899E-3,2.290677221E-4
1.732292770E0,6.108472589E-4,-5.344913807E-4,-3.817795368E-4
1.734718760E0,-6.108472589E-4,-5.344913807E-4,8.399150101E-4
1.737144697E0,6.108472589E-4,1.298050396E-3,2.290677221E-4
1.739570687E0,0.000000000E0,-5.344913807E-4,-3.817795368E-4
1.741996677E0,-6.108472589E-4,-5.344913807E-4,2.290677221E-4
1.744422666E0,-6.108472589E-4,-5.344913807E-4,2.061609412E-3
1.746848604E0,0.000000000E0,6.872031372E-4,2.672456671E-3
1.749274593E0,-6.108472589E-4,6.872031372E-4,8.399150101E-4
1.751700583E0,-1.145338640E-3,6.872031372E-4,2.290677221E-4
1.754126572E0,6.872031372E-4,1.298050396E-3,2.290677221E-4
1.756552562E0,7.635590737E-5,-5.344913807E-4,8.399150101E-4
1.758978499E0,7.635590737E-5,7.635590737E-5,2.290677221E-4
1.761404489E0,6.872031372E-4,-2.367033157E-3,-3.817795368E-4
1.763830479E0,-1.145338640E-3,7.635590737E-5,-3.817795368E-4
1.766256468E0,1.298050396E-3,6.872031372E-4,2.290677221E-4
1.768682406E0,6.872031372E-4,-5.344913807E-4,-3.817795368E-4
1.771108395E0,-5.344913807E-4,-5.344913807E-4,-3.817795368E-4
1.773534385E0,7.635590737E-5,-1.145338640E-3,-3.817795368E-4
1.775960374E0,7.635590737E-5,6.872031372E-4,8.399150101E-4
1.778386312E0,-5.344913807E-4,7.635590737E-5,2.290677221E-4
1.780812302E0,1.298050396E-3,7.635590737E-5,8.399150101E-4
1.783238291E0,6.872031372E-4,7.635590737E-5,8.399150101E-4
1.785664281E0,7.635590737E-5,7.635590737E-5,2.290677221E-4
1.788090270E0,-5.344913807E-4,7.635590737E-5,2.290677221E-4
1.790516208E0,6.872031372E-4,6.872031372E-4,-9.926267667E-4
1.792942197E0,-5.344913807E-4,1.298050396E-3,1.527118147E-4
1.795368187E0,-1.145338640E-3,6.872031372E-4,1.527118147E-4
1.797794177E0,-1.145338640E-3,-5.344913807E-4,1.527118147E-4
1.800220114E0,1.298050396E-3,7.635590737E-5,1.527118147E-4
1.802646104E0,6.872031372E-4,-5.344913807E-4,1.527118147E-4
1.805072093E0,-5.344913807E-4,1.221694518E-3,-4.581354442E-4
1.807498083E0,-5.344913807E-4,6.108472589E-4,7.635590737E-4
1.809924072E0,7.635590737E-5,-1.221694518E-3,1.527118147E-4
1.812350010E0,6.872031372E-4,-1.221694518E-3,1.374406274E-3
1.814775999E0,7.635590737E-5,0.000000000E0,1.374406274E-3
1.817201989E0,-1.145338640E-3,6.108472589E-4,1.527118147E-4
1.819627979E0,7.635590737E-5,-6.108472589E-4,1.527118147E-4
1.822053916E0,-1.145338640E-3,6.108472589E-4,-4.581354442E-4
1.824479906E0,7.635590737E-5,-6.108472589E-4,1.527118147E-4
1.826905895E0,-5.344913807E-4,6.108472589E-4,-4.581354442E-4
1.829331885E0,6.872031372E-4,6.108472589E-4,-1.068982761E-3
1.831757874E0,1.298050396E-3,0.000000000E0,1.527118147E-4
1.834183812E0,-1.145338640E-3,-1.832541777E-3,7.635590737E-4
1.836609802E0,-5.344913807E-4,-1.221694518E-3,1.374406274E-3
1.839035791E0,-1.145338640E-3,-1.221694518E-3,1.374406274E-3
1.841461781E0,1.298050396E-3,-6.108472589E-4,7.635590737E-4
1.843887718E0,7.635590737E-5,-1.221694518E-3,1.527118147E-4
1.846313708E0,-5.344913807E-4,0.000000000E0,1.527118147E-4
1.848739697E0,-5.344913807E-4,-6.108472589E-4,7.635590737E-4
1.851165687E0,-1.145338640E-3,6.108472589E-4,7.635590737E-4
1.853591677E0,7.635590737E-5,1.221694518E-3,7.635590737E-4
1.856017614E0,-1.145338640E-3,0.000000000E0,1.374406274E-3
1.858443604E0,6.872031372E-4,-1.221694518E-3,7.635590737E-4
1.860869593E0,7.635590737E-5,0.000000000E0,7.635590737E-4
1.863295583E0,1.908897655E-3,0.000000000E0,7.635590737E-4
1.865721520E0,1.298050396E-3,-6.108472589E-4,1.527118147E-4
1.868147510E0,6.872031372E-4,6.108472589E-4,-2.290677279E-3
1.870573499E0,6.872031372E-4,-6.108472589E-4,-5.344913807E-4
1.872999489E0,6.872031372E-4,6.108472589E-4,-1.145338640E-3
1.875425479E0,1.298050396E-3,-6.108472589E-4,7.635590737E-5
1.877851416E0,7.635590737E-5,0.000000000E0,7.635590737E-5
1.880277406E0,7.635590737E-5,0.000000000E0,1.298050396E-3
1.882703395E0,7.635590737E-5,6.108472589E-4,6.872031372E-4
1.885129385E0,6.872031372E-4,-1.832541777E-3,6.872031372E-4
1.887555322E0,1.908897655E-3,-1.221694518E-3,6.872031372E-4
1.889981312E0,-5.344913807E-4,-1.221694518E-3,6.872031372E-4
1.892407302E0,1.298050396E-3,-6.108472589E-4,-5.344913807E-4
1.894833291E0,1.298050396E-3,0.000000000E0,-5.344913807E-4
1.897259281E0,7.635590737E-5,-6.108472589E-4,-1.756185899E-3
1.899685218E0,1.298050396E-3,0.000000000E0,-5.344913807E-4
1.902111208E0,-5.344913807E-4,6.108472589E-4,1.908897655E-3
1.904537197E0,1.298050396E-3,0.000000000E0,-1.756185899E-3
1.906963187E0,-5.344913807E-4,0.000000000E0,6.872031372E-4
1.909389177E0,-5.344913807E-4,1.221694518E-3,-5.344913807E-4
1.911815114E0,7.635590737E-5,6.108472589E-4,6.872031372E-4
1.914241104E0,7.635590737E-5,-1.221694518E-3,6.872031372E-4
1.916667093E0,-5.344913807E-4,-1.221694518E-3,-5.344913807E-4
1.919093083E0,7.635590737E-5,0.000000000E0,1.298050396E-3
1.921519020E0,1.908897655E-3,0.000000000E0,-1.145338640E-3
1.923945010E0,6.872031372E-4,0.000000000E0,7.635590737E-5
1.926370999E0,7.635590737E-5,-1.221694518E-3,1.298050396E-3
1.928796989E0,7.635590737E-5,-6.108472589E-4,6.872031372E-4
1.931222927E0,7.635590737E-5,-6.108472589E-4,6.872031372E-4
1.933648916E0,7.635590737E-5,6.108472589E-4,1.298050396E-3
1.936074906E0,6.872031372E-4,1.221694518E-3,7.635590737E-5
1.938500895E0,-5.344913807E-4,6.108472589E-4,7.635590737E-5
1.940926885E0,7.635590737E-5,-6.108472589E-4,-5.344913807E-4
1.943352822E0,6.872031372E-4,6.108472589E-4,1.908897655E-3
1.945778812E0,6.872031372E-4,-1.221694518E-3,6.108472589E-4
1.948204802E0,7.635590737E-5,1.221694518E-3,-1.221694518E-3
1.950630791E0,7.635590737E-5,6.108472589E-4,0.000000000E0
1.953056781E0,-5.344913807E-4,-1.221694518E-3,-6.108472589E-4
1.955482718E0,7.635590737E-5,-6.108472589E-4,-6.108472589E-4
1.957908708E0,-5.344913807E-4,0.000000000E0,-6.108472589E-4
1.960334697E0,7.635590737E-5,-6.108472589E-4,-6.108472589E-4
1.962760687E0,-5.344913807E-4,-1.221694518E-3,-6.108472589E-4
1.965186624E0,7.635590737E-5,-6.108472589E-4,-6.108472589E-4
1.967612614E0,7.635590737E-5,-6.108472589E-4,6.108472589E-4
1.970038604E0,7.635590737E-5,-6.108472589E-4,0.000000000E0
1.972464593E0,7.635590737E-5,0.000000000E0,-6.108472589E-4
1.974890583E0,-5.344913807E-4,-6.108472589E-4,-6.108472589E-4
1.977316520E0,7.635590737E-5,-1.221694518E-3,1.221694518E-3
1.979742510E0,7.635590737E-5,6.872031372E-4,0.000000000E0
1.982168499E0,-5.344913807E-4,-5.344913807E-4,1.832541777E-3
1.984594489E0,7.635590737E-5,6.872031372E-4,0.000000000E0
1.987020427E0,6.872031372E-4,-5.344913807E-4,-1.221694518E-3
1.989446416E0,-1.145338640E-3,-5.344913807E-4,-6.108472589E-4
1.991872406E0,6.108472589E-4,7.635590737E-5,0.000000000E0
1.994298395E0,0.000000000E0,-5.344913807E-4,-1.221694518E-3
1.996724385E0,-6.108472589E-4,7.635590737E-5,-0.000000000E0
1.999150322E0,0.000000000E0,7.635590737E-5,-6.108472589E-4
2.001576312E0,1.221694518E-3,-5.344913807E-4,-0.000000000E0
2.004002302E0,0.000000000E0,-1.145338640E-3,-6.108472589E-4
2.006428291E0,0.000000000E0,-1.145338640E-3,-6.108472589E-4
2.008854229E0,-6.108472589E-4,6.872031372E-4,-6.108472589E-4
2.011280218E0,6.108472589E-4,-5.344913807E-4,-1.221694518E-3
2.013706208E0,-6.108472589E-4,7.635590737E-5,-6.108472589E-4
2.016132197E0,6.108472589E-4,1.298050396E-3,-6.108472589E-4
2.018558187E0,1.221694518E-3,-1.756185899E-3,-6.108472589E-4
2.020984124E0,1.832541777E-3,-5.344913807E-4,6.108472589E-4
2.023410114E0,0.000000000E0,1.298050396E-3,-0.000000000E0
2.025836104E0,-6.108472589E-4,-1.145338640E-3,-0.000000000E0
2.028262093E0,0.000000000E0,-1.145338640E-3,-6.108472589E-4
2.030688031E0,0.000000000E0,-5.344913807E-4,-1.221694518E-3
2.033114020E0,1.221694518E-3,7.635590737E-5,-6.108472589E-4
2.035540010E0,-6.108472589E-4,7.635590737E-5,-1.221694518E-3
2.037965999E0,-6.108472589E-4,7.635590737E-5,-0.000000000E0
2.040391989E0,6.108472589E-4,7.635590737E-5,1.832541777E-3
2.042817927E0,6.108472589E-4,-5.344913807E-4,6.108472589E-4
2.045243916E0,6.108472589E-4,6.872031372E-4,6.108472589E-4
2.047669906E0,-1.832541777E-3,-1.145338640E-3,-0.000000000E0
2.050095895E0,0.000000000E0,-1.145338640E-3,-0.000000000E0
2.052521833E0,-6.108472589E-4,-5.344913807E-4,-0.000000000E0
2.054947822E0,-6.108472589E-4,7.635590737E-5,6.108472589E-4
2.057373812E0,0.000000000E0,-1.145338640E-3,-0.000000000E0
2.059799802E0,-6.108472589E-4,7.635590737E-5,-1.221694518E-3
2.062225791E0,-1.832541777E-3,6.872031372E-4,-0.000000000E0
2.064651729E0,-1.221694518E-3,7.635590737E-5,6.108472589E-4
2.067077718E0,6.108472589E-4,-1.145338640E-3,1.221694518E-3
2.069503708E0,1.221694518E-3,-5.344913807E-4,-0.000000000E0
2.071929697E0,6.108472589E-4,7.635590737E-5,-6.108472589E-4
2.074355687E0,0.000000000E0,-5.344913807E-4,-6.108472589E-4
2.076781624E0,-1.221694518E-3,-5.344913807E-4,-0.000000000E0
2.079207614E0,1.832541777E-3,6.872031372E-4,-6.108472589E-4
2.081633604E0,-0.000000000E0,7.635590737E-5,-0.000000000E0
2.084059593E0,6.108472589E-4,6.872031372E-4,6.108472589E-4
2.086485531E0,6.108472589E-4,-1.756185899E-3,-0.000000000E0
2.088911520E0,6.108472589E-4,-4.581354442E-4,-6.108472589E-4
2.091337510E0,6.108472589E-4,-4.581354442E-4,-6.108472589E-4
2.093763499E0,6.108472589E-4,7.635590737E-4,1.221694518E-3
2.096189489E0,6.108472589E-4,1.985253533E-3,1.221694518E-3
2.098615427E0,-6.108472589E-4,7.635590737E-4,1.221694518E-3
2.101041416E0,6.108472589E-4,1.527118147E-4,-6.108472589E-4
2.103467406E0,6.108472589E-4,1.527118147E-4,-1.832541777E-3
2.105893395E0,6.108472589E-4,-4.581354442E-4,-1.832541777E-3
2.108319333E0,6.108472589E-4,-4.581354442E-4,-6.108472589E-4
2.110745322E0,6.108472589E-4,-4.581354442E-4,-0.000000000E0
2.113171312E0,-6.108472589E-4,7.635590737E-4,-6.108472589E-4
2.115597302E0,-0.000000000E0,1.527118147E-4,-6.108472589E-4
2.118023291E0,-0.000000000E0,1.374406274E-3,-6.108472589E-4
2.120449229E0,6.108472589E-4,1.374406274E-3,-0.000000000E0
2.122875218E0,6.108472589E-4,7.635590737E-4,-6.108472589E-4
2.125301208E0,1.221694518E-3,7.635590737E-4,0.000000000E0
2.127727197E0,6.108472589E-4,7.635590737E-4,-1.221694518E-3
2.130153187E0,1.832541777E-3,1.527118147E-4,1.221694518E-3
2.132579124E0,-0.000000000E0,1.374406274E-3,1.832541777E-3
2.135005114E0,-1.221694518E-3,1.374406274E-3,6.108472589E-4
2.137431104E0,-6.108472589E-4,-1.068982761E-3,1.221694518E-3
2.139857093E0,-0.000000000E0,1.527118147E-4,0.000000000E0
2.142283031E0,1.221694518E-3,1.527118147E-4,6.108472589E-4
2.144709020E0,6.108472589E-4,7.635590737E-4,6.108472589E-4
2.147135010E0,-0.000000000E0,7.635590737E-4,6.108472589E-4
2.149560999E0,6.108472589E-4,1.527118147E-4,6.108472589E-4
2.151986989E0,1.221694518E-3,1.527118147E-4,6.108472589E-4
2.154412927E0,6.108472589E-4,7.635590737E-4,-6.108472589E-4
2.156838916E0,1.221694518E-3,-4.581354442E-4,6.108472589E-4
2.159264906E0,-0.000000000E0,1.527118147E-4,-6.108472589E-4
2.161690895E0,-6.108472589E-4,7.635590737E-4,0.000000000E0
2.164116833E0,1.221694518E-3,1.374406274E-3,-1.221694518E-3
2.166542822E0,-0.000000000E0,1.527118147E-4,-6.108472589E-4
2.168968812E0,-6.108472589E-4,-1.068982761E-3,-6.108472589E-4
2.171394802E0,5.344913807E-4,1.527118147E-4,-6.108472589E-4
2.173820791E0,-7.635590737E-5,7.635590737E-4,6.108472589E-4
2.176246729E0,-6.872031372E-4,7.635590737E-4,0.000000000E0
2.178672718E0,-7.635590737E-5,7.635590737E-4,-6.108472589E-4
2.181098708E0,-6.872031372E-4,1.527118147E-4,-6.108472589E-4
2.183524697E0,-7.635590737E-5,-4.581354442E-4,-1.221694518E-3
2.185950635E0,-7.635590737E-5,1.527118147E-4,-6.108472589E-4
2.188376624E0,-1.298050396E-3,7.635590737E-4,0.000000000E0
2.190802614E0,-7.635590737E-5,7.635590737E-4,-1.832541777E-3
2.193228604E0,5.344913807E-4,1.527118147E-4,-6.108472589E-4
2.195654593E0,5.344913807E-4,-1.068982761E-3,6.108472589E-4
2.198080531E0,1.756185899E-3,1.527118147E-4,-6.108472589E-4
2.200506520E0,-7.635590737E-5,-4.581354442E-4,-1.221694518E-3
2.202932510E0,5.344913807E-4,1.527118147E-4,-6.108472589E-4
2.205358499E0,-7.635590737E-5,1.527118147E-4,6.108472589E-4
2.207784437E0,5.344913807E-4,-1.068982761E-3,-6.108472589E-4
2.210210427E0,5.344913807E-4,-4.581354442E-4,6.108472589E-4
2.212636416E0,5.344913807E-4,1.527118147E-4,1.832541777E-3
2.215062406E0,-7.635590737E-5,-4.581354442E-4,6.108472589E-4
2.217488395E0,5.344913807E-4,1.527118147E-4,0.000000000E0
2.219914333E0,1.756185899E-3,-1.068982761E-3,1.221694518E-3
2.222340322E0,1.145338640E-3,7.635590737E-4,0.000000000E0
2.224766312E0,5.344913807E-4,-4.581354442E-4,-1.221694518E-3
2.227192302E0,5.344913807E-4,-1.068982761E-3,-1.221694518E-3
2.229618239E0,1.145338640E-3,7.635590737E-4,-1.832541777E-3
2.232044229E0,-7.635590737E-5,-1.068982761E-3,-1.221694518E-3
2.234470218E0,-1.298050396E-3,1.527118147E-4,0.000000000E0
2.236896208E0,-7.635590737E-5,1.374406274E-3,0.000000000E0
2.239322197E0,-6.872031372E-4,1.527118147E-4,0.000000000E0
2.241748135E0,-7.635590737E-5,1.527118147E-4,0.000000000E0
2.244174124E0,-7.635590737E-5,1.527118147E-4,-6.108472589E-4
2.246600114E0,-7.635590737E-5,-1.068982761E-3,6.108472589E-4
2.249026104E0,-7.635590737E-5,1.527118147E-4,0.000000000E0
2.251452093E0,1.145338640E-3,7.635590737E-4,-6.108472589E-4
2.253878031E0,-7.635590737E-5,7.635590737E-4,-6.108472589E-4
2.256304020E0,5.344913807E-4,7.635590737E-4,-1.756185899E-3
2.258730010E0,5.344913807E-4,1.527118147E-4,7.635590737E-5
2.261155999E0,1.145338640E-3,-4.581354442E-4,7.635590737E-5
2.263581989E0,-7.635590737E-5,1.527118147E-4,6.872031372E-4
2.266007927E0,1.068982761E-3,-4.581354442E-4,6.872031372E-4
2.268433916E0,1.068982761E-3,-1.068982761E-3,6.872031372E-4
2.270859906E0,-1.527118147E-4,1.527118147E-4,7.635590737E-5
2.273285895E0,-7.635590737E-4,7.635590737E-4,6.872031372E-4
2.275711833E0,1.068982761E-3,1.527118147E-4,6.872031372E-4
2.278137822E0,1.068982761E-3,-1.068982761E-3,-1.145338640E-3
2.280563812E0,4.581354442E-4,-4.581354442E-4,-1.145338640E-3
2.282989802E0,-1.527118147E-4,-4.581354442E-4,-1.145338640E-3
2.285415791E0,-1.374406274E-3,-4.581354442E-4,6.872031372E-4
2.287841729E0,-1.527118147E-4,-1.679830020E-3,6.872031372E-4
2.290267718E0,-1.527118147E-4,7.635590737E-4,7.635590737E-5
2.292693708E0,-7.635590737E-4,-4.581354442E-4,-1.145338640E-3
2.295119697E0,-1.527118147E-4,1.527118147E-4,1.298050396E-3
2.297545635E0,4.581354442E-4,-1.068982761E-3,-5.344913807E-4
2.299971624E0,4.581354442E-4,-1.068982761E-3,-1.145338640E-3
2.302397614E0,-7.635590737E-4,-4.581354442E-4,-1.145338640E-3
2.304823604E0,-1.527118147E-4,7.635590737E-4,1.908897655E-3
2.307249593E0,4.581354442E-4,1.527118147E-4,1.908897655E-3
2.309675531E0,-7.635590737E-4,1.527118147E-4,1.298050396E-3
2.312101520E0,1.679830020E-3,-4.581354442E-4,1.298050396E-3
2.314527510E0,4.581354442E-4,-4.581354442E-4,-5.344913807E-4
2.316953499E0,-1.527118147E-4,1.527118147E-4,6.872031372E-4
2.319379437E0,1.068982761E-3,1.527118147E-4,7.635590737E-5
2.321805427E0,-7.635590737E-4,1.527118147E-4,6.872031372E-4
2.324231416E0,4.581354442E-4,1.527118147E-4,6.872031372E-4
2.326657406E0,4.581354442E-4,7.635590737E-4,7.635590737E-5
2.329083395E0,1.068982761E-3,-4.581354442E-4,7.635590737E-5
2.331509333E0,-1.527118147E-4,1.527118147E-4,-1.145338640E-3
2.333935322E0,-1.527118147E-4,7.635590737E-4,7.635590737E-5
2.336361312E0,4.581354442E-4,1.374406274E-3,-5.344913807E-4
2.338787302E0,-7.635590737E-4,1.527118147E-4,6.872031372E-4
2.341213291E0,4.581354442E-4,1.985253533E-3,7.635590737E-5
2.343639229E0,-1.527118147E-4,-4.581354442E-4,-5.344913807E-4
2.346065218E0,-1.527118147E-4,7.635590737E-4,7.635590737E-5
2.348491208E0,4.581354442E-4,7.635590737E-4,7.635590737E-5
2.350917197E0,-8.399150101E-4,-4.581354442E-4,-5.344913807E-4
2.353343135E0,9.926267667E-4,-4.581354442E-4,7.635590737E-5
2.355769124E0,-2.290677221E-4,-1.068982761E-3,-5.344913807E-4
2.358195114E0,3.817795368E-4,-1.679830020E-3,7.635590737E-5
2.360621104E0,-1.450762269E-3,7.635590737E-4,7.635590737E-5
2.363047041E0,-2.290677221E-4,7.635590737E-4,7.635590737E-5
2.365473031E0,-8.399150101E-4,1.527118147E-4,-5.344913807E-4
2.367899020E0,-2.290677221E-4,-4.581354442E-4,6.872031372E-4
2.370325010E0,9.926267667E-4,-4.581354442E-4,7.635590737E-5
2.372750999E0,-8.399150101E-4,7.635590737E-4,7.635590737E-5
2.375176937E0,-8.399150101E-4,1.527118147E-4,6.872031372E-4
2.377602927E0,-8.399150101E-4,7.635590737E-4,1.908897655E-3
2.380028916E0,-2.290677221E-4,1.527118147E-4,-5.344913807E-4
2.382454906E0,-8.399150101E-4,-4.581354442E-4,7.635590737E-5
2.384880895E0,3.817795368E-4,-1.068982761E-3,1.298050396E-3
2.387306833E0,3.817795368E-4,1.527118147E-4,7.635590737E-5
2.389732822E0,-2.290677221E-4,1.985253533E-3,7.635590737E-5
2.392158812E0,3.817795368E-4,1.527118147E-4,6.872031372E-4
2.394584802E0,-2.290677221E-4,7.635590737E-4,7.635590737E-5
2.397010791E0,-2.290677221E-4,1.374406274E-3,-5.344913807E-4
2.399436729E0,-2.061609412E-3,1.527118147E-4,7.635590737E-5
2.401862718E0,-2.290677221E-4,1.527118147E-4,1.298050396E-3
2.404288708E0,-2.290677221E-4,1.527118147E-4,1.298050396E-3
2.406714697E0,-8.399150101E-4,7.635590737E-4,1.298050396E-3
2.409140635E0,-8.399150101E-4,-4.581354442E-4,6.872031372E-4
2.411566624E0,-8.399150101E-4,-1.068982761E-3,-5.344913807E-4
2.413992614E0,-2.290677221E-4,1.527118147E-4,-1.756185899E-3
2.416418604E0,3.817795368E-4,1.527118147E-4,-1.145338640E-3
2.418844593E0,-8.399150101E-4,7.635590737E-4,7.635590737E-5
2.421270531E0,-8.399150101E-4,1.527118147E-4,7.635590737E-5
2.423696520E0,-2.290677221E-4,-4.581354442E-4,-5.344913807E-4
2.426122510E0,3.817795368E-4,-4.581354442E-4,-1.145338640E-3
2.428548499E0,-2.290677221E-4,1.527118147E-4,-5.344913807E-4
2.430974489E0,3.817795368E-4,-4.581354442E-4,-1.145338640E-3
2.433400427E0,9.926267667E-4,7.635590737E-4,-5.344913807E-4
2.435826416E0,3.817795368E-4,-4.581354442E-4,7.635590737E-5
2.438252406E0,-2.290677221E-4,-1.068982761E-3,7.635590737E-5
2.440678395E0,3.817795368E-4,-4.581354442E-4,6.872031372E-4
2.443104333E0,3.817795368E-4,-4.581354442E-4,-5.344913807E-4
2.445530322E0,9.926267667E-4,-1.068982761E-3,7.635590737E-5
2.447956312E0,-2.290677221E-4,1.527118147E-4,-1.145338640E-3
2.450382302E0,1.603474026E-3,1.527118147E-4,1.908897655E-3
2.452808291E0,3.817795368E-4,7.635590737E-4,7.635590737E-5
2.455234229E0,-1.450762269E-3,1.374406274E-3,6.872031372E-4
2.457660218E0,-2.290677221E-4,-4.581354442E-4,7.635590737E-5
2.460086208E0,-8.399150101E-4,7.635590737E-4,6.872031372E-4
2.462512197E0,-2.290677221E-4,-4.581354442E-4,7.635590737E-5
2.464938135E0,9.926267667E-4,7.635590737E-4,-5.344913807E-4
2.467364124E0,3.817795368E-4,-1.679830020E-3,7.635590737E-5
2.469790114E0,-8.399150101E-4,-1.679830020E-3,7.635590737E-5
2.472216104E0,1.603474026E-3,1.527118147E-4,7.635590737E-5
2.474642093E0,-2.290677221E-4,-1.068982761E-3,7.635590737E-5
2.477068031E0,-2.290677221E-4,7.635590737E-4,-5.344913807E-4
2.479494020E0,-2.290677221E-4,7.635590737E-4,7.635590737E-5
2.481920010E0,3.817795368E-4,1.374406274E-3,7.635590737E-5
2.484345999E0,3.817795368E-4,7.635590737E-4,6.872031372E-4
2.486771989E0,-8.399150101E-4,1.527118147E-4,7.635590737E-5
2.489197927E0,-2.290677221E-4,-1.068982761E-3,6.872031372E-4
2.491623916E0,-2.290677221E-4,1.527118147E-4,-5.344913807E-4
2.494049906E0,-1.450762269E-3,7.635590737E-4,7.635590737E-5
2.496475895E0,-8.399150101E-4,1.374406274E-3,7.635590737E-5
2.498901833E0,-8.399150101E-4,7.635590737E-4,-5.344913807E-4
2.501327822E0,3.817795368E-4,1.527118147E-4,-2.367033157E-3
2.503753812E0,-2.061609412E-3,1.374406274E-3,-5.344913807E-4
2.506179802E0,-2.290677221E-4,1.527118147E-4,6.872031372E-4
2.508605791E0,-2.290677221E-4,1.527118147E-4,1.298050396E-3
2.511031729E0,-8.399150101E-4,-4.581354442E-4,-5.344913807E-4
2.513457718E0,-8.399150101E-4,-1.068982761E-3,7.635590737E-5
2.515883708E0,3.817795368E-4,1.527118147E-4,7.635590737E-5
2.518309697E0,3.817795368E-4,1.527118147E-4,-5.344913807E-4
2.520735635E0,-2.290677221E-4,-4.581354442E-4,-1.145338640E-3
2.523161624E0,-2.290677221E-4,1.374406274E-3,7.635590737E-5
2.525587614E0,9.926267667E-4,1.374406274E-3,-1.756185899E-3
2.528013604E0,-2.290677221E-4,1.298050396E-3,7.635590737E-5
2.530439541E0,-2.290677221E-4,6.872031372E-4,-1.756185899E-3
2.532865531E0,-8.399150101E-4,-1.145338640E-3,-5.344913807E-4
2.535291520E0,3.817795368E-4,6.872031372E-4,-1.145338640E-3
2.537717510E0,-2.290677221E-4,6.872031372E-4,7.635590737E-5
2.540143499E0,-8.399150101E-4,-5.344913807E-4,6.872031372E-4
2.542569437E0,-8.399150101E-4,-5.344913807E-4,7.635590737E-5
2.544995427E0,3.817795368E-4,1.298050396E-3,-5.344913807E-4
2.547421416E0,3.817795368E-4,1.298050396E-3,6.872031372E-4
2.549847406E0,3.817795368E-4,7.635590737E-5,-5.344913807E-4
2.552273395E0,-2.290677221E-4,7.635590737E-5,-1.145338640E-3
2.554699333E0,3.817795368E-4,-5.344913807E-4,7.635590737E-5
2.557125322E0,9.926267667E-4,6.872031372E-4,7.635590737E-5
2.559551312E0,9.926267667E-4,-5.344913807E-4,7.635590737E-5
2.561977302E0,1.603474026E-3,-5.344913807E-4,-5.344913807E-4
2.564403291E0,3.817795368E-4,6.872031372E-4,6.872031372E-4
2.566829229E0,3.817795368E-4,7.635590737E-5,1.298050396E-3
2.569255218E0,-8.399150101E-4,6.872031372E-4,1.298050396E-3
2.571681208E0,-8.399150101E-4,6.872031372E-4,6.872031372E-4
2.574107197E0,-2.290677221E-4,7.635590737E-5,7.635590737E-5
2.576533135E0,-8.399150101E-4,7.635590737E-5,6.872031372E-4
2.578959124E0,-2.290677221E-4,7.635590737E-5,1.298050396E-3
2.581385114E0,-2.290677221E-4,7.635590737E-5,-5.344913807E-4
2.583811104E0,-8.399150101E-4,-1.145338640E-3,7.635590737E-5
2.586237093E0,3.817795368E-4,-1.145338640E-3,7.635590737E-5
2.588663031E0,-2.290677221E-4,7.635590737E-5,7.635590737E-5
2.591089020E0,-1.527118147E-4,1.298050396E-3,6.872031372E-4
2.593515010E0,-7.635590737E-4,7.635590737E-5,6.872031372E-4
2.595940999E0,4.581354442E-4,1.298050396E-3,-1.145338640E-3
2.598366989E0,1.068982761E-3,6.872031372E-4,6.872031372E-4
2.600792927E0,-7.635590737E-4,-5.344913807E-4,6.872031372E-4
2.603218916E0,-1.374406274E-3,-1.756185899E-3,7.635590737E-5
2.605644906E0,-7.635590737E-4,-5.344913807E-4,6.872031372E-4
2.608070895E0,-1.527118147E-4,7.635590737E-5,-1.145338640E-3
2.610496833E0,1.679830020E-3,-1.145338640E-3,-1.756185899E-3
2.612922822E0,-7.635590737E-4,7.635590737E-5,-5.344913807E-4
2.615348812E0,-1.527118147E-4,6.872031372E-4,-5.344913807E-4
2.617774802E0,-1.527118147E-4,-5.344913807E-4,-5.344913807E-4
2.620200791E0,1.068982761E-3,-1.145338640E-3,-5.344913807E-4
2.622626729E0,4.581354442E-4,-1.756185899E-3,7.635590737E-5
2.625052718E0,4.581354442E-4,-1.145338640E-3,-1.145338640E-3
2.627478708E0,-1.527118147E-4,7.635590737E-5,1.908897655E-3
2.629904697E0,-1.374406274E-3,1.908897655E-3,7.635590737E-5
2.632330687E0,-1.374406274E-3,1.298050396E-3,-1.145338640E-3
2.634756624E0,4.581354442E-4,1.298050396E-3,-1.756185899E-3
2.637182614E0,-1.374406274E-3,-1.145338640E-3,6.872031372E-4
2.639608604E0,4.581354442E-4,1.298050396E-3,-5.344913807E-4
2.642034593E0,-7.635590737E-4,1.298050396E-3,-5.344913807E-4
2.644460531E0,4.581354442E-4,6.872031372E-4,7.635590737E-5
2.646886520E0,4.581354442E-4,7.635590737E-5,1.298050396E-3
2.649312510E0,-1.374406274E-3,-1.145338640E-3,-5.344913807E-4
2.651738499E0,-7.635590737E-4,-1.756185899E-3,-1.145338640E-3
2.654164437E0,-1.527118147E-4,7.635590737E-5,-1.145338640E-3
2.656590427E0,4.581354442E-4,6.872031372E-4,-1.145338640E-3
2.659016416E0,-7.635590737E-4,6.872031372E-4,6.872031372E-4
2.661442406E0,-7.635590737E-4,6.872031372E-4,6.872031372E-4
2.663868395E0,-7.635590737E-4,-1.145338640E-3,-5.344913807E-4
2.666294333E0,4.581354442E-4,-5.344913807E-4,1.298050396E-3
2.668720322E0,-7.635590737E-4,-1.756185899E-3,6.872031372E-4
2.671146312E0,-1.374406274E-3,-5.344913807E-4,-5.344913807E-4
2.673572302E0,-1.527118147E-4,7.635590737E-5,-1.145338640E-3
2.675998291E0,-1.527118147E-4,6.872031372E-4,1.298050396E-3
2.678424229E0,-1.527118147E-4,-1.756185899E-3,7.635590737E-5
2.680850218E0,-1.374406274E-3,7.635590737E-5,6.872031372E-4
2.683276208E0,-7.635590737E-4,7.635590737E-5,-5.344913807E-4
2.685702197E0,4.581354442E-4,1.298050396E-3,7.635590737E-5
2.688128187E0,4.581354442E-4,1.298050396E-3,7.635590737E-5
2.690554124E0,-1.527118147E-4,-1.145338640E-3,-5.344913807E-4
2.692980114E0,-7.635590737E-4,-5.344913807E-4,-5.344913807E-4
2.695406104E0,4.581354442E-4,-5.344913807E-4,6.872031372E-4
2.697832093E0,-7.635590737E-4,-1.756185899E-3,-5.344913807E-4
2.700258031E0,4.581354442E-4,7.635590737E-5,-2.367033157E-3
2.702684020E0,-1.527118147E-4,7.635590737E-5,-1.145338640E-3
2.705110010E0,-1.985253533E-3,-5.344913807E-4,-1.145338640E-3
2.707535999E0,-1.374406274E-3,7.635590737E-5,-1.145338640E-3
2.709961989E0,-7.635590737E-4,-5.344913807E-4,7.635590737E-5
2.712387927E0,-7.635590737E-4,-5.344913807E-4,6.872031372E-4
2.714813916E0,4.581354442E-4,6.872031372E-4,-5.344913807E-4
2.717239906E0,1.068982761E-3,-5.344913807E-4,1.298050396E-3
2.719665895E0,1.068982761E-3,7.635590737E-5,-1.756185899E-3
2.722091885E0,-1.527118147E-4,6.872031372E-4,-4.581354442E-4
2.724517822E0,-7.635590737E-4,1.298050396E-3,1.527118147E-4
2.726943812E0,-7.635590737E-4,1.908897655E-3,1.527118147E-4
2.729369802E0,-1.527118147E-4,-5.344913807E-4,1.527118147E-4
2.731795791E0,-7.635590737E-4,7.635590737E-5,-4.581354442E-4
2.734221729E0,-1.985253533E-3,1.298050396E-3,1.985253533E-3
2.736647718E0,-1.527118147E-4,6.872031372E-4,-4.581354442E-4
2.739073708E0,-1.527118147E-4,6.872031372E-4,-4.581354442E-4
2.741499697E0,-7.635590737E-4,-1.145338640E-3,-1.068982761E-3
2.743925687E0,-1.527118147E-4,-5.344913807E-4,7.635590737E-4
2.746351624E0,1.145338640E-3,-5.344913807E-4,7.635590737E-4
2.748777614E0,5.344913807E-4,6.872031372E-4,1.527118147E-4
2.751203604E0,-7.635590737E-5,-1.145338640E-3,1.374406274E-3
2.753629593E0,-6.872031372E-4,-5.344913807E-4,7.635590737E-4
2.756055583E0,5.344913807E-4,-5.344913807E-4,1.527118147E-4
2.758481520E0,1.145338640E-3,-5.344913807E-4,-4.581354442E-4
2.760907510E0,1.145338640E-3,7.635590737E-5,1.527118147E-4
2.763333499E0,-7.635590737E-5,7.635590737E-5,1.527118147E-4
2.765759489E0,-7.635590737E-5,-5.344913807E-4,1.527118147E-4
2.768185427E0,-7.635590737E-5,7.635590737E-5,-4.581354442E-4
2.770611416E0,-6.872031372E-4,7.635590737E-5,7.635590737E-4
2.773037406E0,-7.635590737E-5,7.635590737E-5,7.635590737E-4
2.775463395E0,-6.872031372E-4,6.872031372E-4,-1.068982761E-3
2.777889385E0,-6.872031372E-4,-1.145338640E-3,7.635590737E-4
2.780315322E0,5.344913807E-4,-1.145338640E-3,1.527118147E-4
2.782741312E0,-7.635590737E-5,-1.756185899E-3,-4.581354442E-4
2.785167302E0,5.344913807E-4,-5.344913807E-4,-4.581354442E-4
2.787593291E0,1.145338640E-3,7.635590737E-5,-4.581354442E-4
2.790019229E0,-7.635590737E-5,7.635590737E-5,-4.581354442E-4
2.792445218E0,-6.872031372E-4,-5.344913807E-4,1.527118147E-4
2.794871208E0,-7.635590737E-5,-5.344913807E-4,-1.679830020E-3
2.797297197E0,-7.635590737E-5,7.635590737E-5,-1.068982761E-3
2.799723187E0,1.756185899E-3,-1.145338640E-3,-1.068982761E-3
2.802149124E0,1.145338640E-3,-5.344913807E-4,-1.068982761E-3
2.804575114E0,-1.298050396E-3,-1.145338640E-3,1.527118147E-4
2.807001104E0,-6.872031372E-4,-1.145338640E-3,1.527118147E-4
2.809427093E0,-7.635590737E-5,-1.756185899E-3,1.527118147E-4
2.811853083E0,-1.298050396E-3,-5.344913807E-4,-4.581354442E-4
2.814279020E0,-7.635590737E-5,6.872031372E-4,1.527118147E-4
2.816705010E0,5.344913807E-4,-1.145338640E-3,-1.068982761E-3
2.819130999E0,-7.635590737E-5,6.872031372E-4,-1.068982761E-3
2.821556989E0,1.756185899E-3,-5.344913807E-4,-1.068982761E-3
2.823982927E0,5.344913807E-4,7.635590737E-5,-4.581354442E-4
2.826408916E0,-6.872031372E-4,1.298050396E-3,-4.581354442E-4
2.828834906E0,-7.635590737E-5,1.298050396E-3,1.527118147E-4
2.831260895E0,-6.872031372E-4,-2.977880416E-3,-4.581354442E-4
2.833686885E0,1.145338640E-3,6.872031372E-4,7.635590737E-4
2.836112822E0,-7.635590737E-5,-5.344913807E-4,-4.581354442E-4
2.838538812E0,-7.635590737E-5,6.872031372E-4,7.635590737E-4
2.840964802E0,-7.635590737E-5,7.635590737E-5,7.635590737E-4
2.843390791E0,-1.221694518E-3,-5.344913807E-4,-1.068982761E-3
2.845816781E0,6.108472589E-4,7.635590737E-5,-4.581354442E-4
2.848242718E0,6.108472589E-4,7.635590737E-5,-4.581354442E-4
2.850668708E0,-0.000000000E0,-5.344913807E-4,-4.581354442E-4
2.853094697E0,-1.221694518E-3,-1.756185899E-3,-4.581354442E-4
2.855520687E0,6.108472589E-4,-1.145338640E-3,1.527118147E-4
2.857946677E0,1.221694518E-3,-1.756185899E-3,1.374406274E-3
2.860372614E0,-6.108472589E-4,-1.145338640E-3,1.527118147E-4
2.862798604E0,-6.108472589E-4,-5.344913807E-4,1.374406274E-3
2.865224593E0,1.221694518E-3,-5.344913807E-4,1.374406274E-3
2.867650583E0,-6.108472589E-4,-5.344913807E-4,1.374406274E-3
2.870076572E0,-6.108472589E-4,-5.344913807E-4,1.527118147E-4
2.872502510E0,-0.000000000E0,7.635590737E-5,-4.581354442E-4
2.874928499E0,6.108472589E-4,6.872031372E-4,-4.581354442E-4
2.877354489E0,-6.108472589E-4,6.872031372E-4,1.527118147E-4
2.879780479E0,-1.221694518E-3,-5.344913807E-4,7.635590737E-4
2.882206416E0,-1.221694518E-3,-4.581354442E-4,-3.817795368E-4
2.884632406E0,-6.108472589E-4,1.527118147E-4,-3.817795368E-4
2.887058395E0,-0.000000000E0,-4.581354442E-4,2.290677221E-4
2.889484385E0,-0.000000000E0,1.527118147E-4,8.399150101E-4
2.891910322E0,-0.000000000E0,7.635590737E-4,-3.817795368E-4
2.894336312E0,1.221694518E-3,1.527118147E-4,2.290677221E-4
2.896762302E0,1.832541777E-3,1.527118147E-4,-9.926267667E-4
2.899188291E0,-0.000000000E0,-1.068982761E-3,2.290677221E-4
2.901614281E0,1.221694518E-3,1.527118147E-4,8.399150101E-4
2.904040218E0,6.108472589E-4,1.527118147E-4,2.290677221E-4
2.906466208E0,-0.000000000E0,-1.068982761E-3,-3.817795368E-4
2.908892197E0,-6.108472589E-4,1.374406274E-3,8.399150101E-4
2.911318187E0,6.108472589E-4,1.527118147E-4,8.399150101E-4
2.913744177E0,1.221694518E-3,-1.068982761E-3,2.290677221E-4
2.916170114E0,-0.000000000E0,-4.581354442E-4,-3.817795368E-4
2.918596104E0,-0.000000000E0,1.527118147E-4,8.399150101E-4
2.921022093E0,-0.000000000E0,1.527118147E-4,1.450762269E-3
2.923448083E0,1.221694518E-3,-4.581354442E-4,-3.817795368E-4
2.925874072E0,-0.000000000E0,1.527118147E-4,-9.926267667E-4
2.928300010E0,-6.108472589E-4,-1.068982761E-3,8.399150101E-4
2.930725999E0,-1.221694518E-3,-1.068982761E-3,-9.926267667E-4
2.933151989E0,-1.221694518E-3,1.527118147E-4,2.290677221E-4
2.935577979E0,-1.221694518E-3,-4.581354442E-4,-9.926267667E-4
2.938003916E0,-0.000000000E0,-1.068982761E-3,8.399150101E-4
2.940429906E0,-6.108472589E-4,1.527118147E-4,8.399150101E-4
2.942855895E0,-1.221694518E-3,1.374406274E-3,1.450762269E-3
2.945281885E0,-6.108472589E-4,7.635590737E-4,8.399150101E-4
2.947707822E0,-6.108472589E-4,1.527118147E-4,-9.926267667E-4
2.950133812E0,-0.000000000E0,-4.581354442E-4,1.450762269E-3
2.952559802E0,1.221694518E-3,1.527118147E-4,2.290677221E-4
2.954985791E0,-1.221694518E-3,1.374406274E-3,-3.817795368E-4
2.957411781E0,-6.108472589E-4,-4.581354442E-4,-2.214321401E-3
2.959837718E0,-0.000000000E0,-9.926267667E-4,2.290677221E-4
2.962263708E0,1.221694518E-3,2.290677221E-4,2.290677221E-4
2.964689697E0,1.221694518E-3,-3.817795368E-4,-3.817795368E-4
2.967115687E0,1.221694518E-3,-3.817795368E-4,-9.926267667E-4
2.969541677E0,-6.108472589E-4,8.399150101E-4,-9.926267667E-4
2.971967614E0,6.108472589E-4,2.290677221E-4,8.399150101E-4
2.974393604E0,-0.000000000E0,-9.926267667E-4,-9.926267667E-4
2.976819593E0,-1.221694518E-3,1.450762269E-3,2.290677221E-4
2.979245583E0,-6.108472589E-4,2.290677221E-4,2.290677221E-4
2.981671520E0,6.108472589E-4,-9.926267667E-4,8.399150101E-4
2.984097510E0,-6.108472589E-4,-3.817795368E-4,8.399150101E-4
2.986523499E0,-0.000000000E0,-3.817795368E-4,1.450762269E-3
2.988949489E0,-0.000000000E0,2.290677221E-4,-9.926267667E-4
2.991375479E0,-0.000000000E0,8.399150101E-4,2.290677221E-4
2.993801416E0,-0.000000000E0,2.290677221E-4,8.399150101E-4
2.996227406E0,-1.221694518E-3,-3.817795368E-4,-3.817795368E-4
2.998653395E0,-6.108472589E-4,-3.817795368E-4,2.290677221E-4
3.001079385E0,-1.221694518E-3,2.290677221E-4,2.061609412E-3
3.003505374E0,-0.000000000E0,8.399150101E-4,8.399150101E-4
3.005931312E0,-0.000000000E0,-3.817795368E-4,2.290677221E-4
3.008357302E0,6.108472589E-4,1.450762269E-3,8.399150101E-4
3.010783291E0,-0.000000000E0,8.399150101E-4,8.399150101E-4
3.013209281E0,-6.108472589E-4,2.290677221E-4,8.399150101E-4
3.015635270E0,-6.108472589E-4,2.290677221E-4,2.290677221E-4
3.018061208E0,-0.000000000E0,-3.817795368E-4,2.290677221E-4
3.020487197E0,-6.108472589E-4,-3.817795368E-4,2.061609412E-3
3.022913187E0,6.108472589E-4,-9.926267667E-4,2.061609412E-3
3.025339177E0,6.108472589E-4,-3.817795368E-4,1.450762269E-3
3.027765166E0,-6.108472589E-4,2.290677221E-4,-3.817795368E-4
3.030191104E0,0.000000000E0,-3.817795368E-4,2.290677221E-4
3.032617093E0,6.108472589E-4,8.399150101E-4,1.450762269E-3
3.035043083E0,-6.108472589E-4,1.450762269E-3,8.399150101E-4
3.037469072E0,-6.108472589E-4,8.399150101E-4,8.399150101E-4
3.039895010E0,-1.221694518E-3,-3.817795368E-4,1.450762269E-3
3.042320999E0,0.000000000E0,8.399150101E-4,-3.817795368E-4
3.044746989E0,0.000000000E0,2.290677221E-4,-3.817795368E-4
3.047172979E0,-6.108472589E-4,2.290677221E-4,8.399150101E-4
3.049598968E0,-6.108472589E-4,8.399150101E-4,-1.679830020E-3
3.052024906E0,6.108472589E-4,-3.817795368E-4,-4.581354442E-4
3.054450895E0,6.108472589E-4,8.399150101E-4,-4.581354442E-4
3.056876885E0,-6.108472589E-4,8.399150101E-4,-4.581354442E-4
3.059302874E0,-6.108472589E-4,2.290677221E-4,1.527118147E-4
3.061728812E0,6.108472589E-4,2.290677221E-4,1.374406274E-3
3.064154802E0,1.221694518E-3,2.290677221E-4,1.527118147E-4
3.066580791E0,6.108472589E-4,2.290677221E-4,1.374406274E-3
3.069006781E0,-6.108472589E-4,-9.926267667E-4,1.527118147E-4
3.071432770E0,0.000000000E0,8.399150101E-4,1.527118147E-4
3.073858708E0,0.000000000E0,-3.817795368E-4,1.527118147E-4
3.076284697E0,0.000000000E0,-3.817795368E-4,-4.581354442E-4
3.078710687E0,6.108472589E-4,-3.817795368E-4,1.527118147E-4
3.081136677E0,6.108472589E-4,-3.817795368E-4,7.635590737E-4
3.083562666E0,0.000000000E0,8.399150101E-4,-1.068982761E-3
3.085988604E0,0.000000000E0,2.061609412E-3,7.635590737E-4
3.088414593E0,-6.108472589E-4,1.450762269E-3,1.527118147E-4
3.090840583E0,0.000000000E0,2.290677221E-4,1.527118147E-4
3.093266572E0,0.000000000E0,2.290677221E-4,-4.581354442E-4
3.095692562E0,-1.221694518E-3,2.290677221E-4,-4.581354442E-4
3.098118499E0,-6.108472589E-4,2.290677221E-4,1.527118147E-4
3.100544489E0,6.108472589E-4,8.399150101E-4,-1.068982761E-3
3.102970479E0,1.832541777E-3,-3.817795368E-4,-4.581354442E-4
3.105396468E0,-6.108472589E-4,8.399150101E-4,1.527118147E-4
3.107822406E0,-6.108472589E-4,1.450762269E-3,-4.581354442E-4
3.110248395E0,6.108472589E-4,2.290677221E-4,1.374406274E-3
3.112674385E0,0.000000000E0,-9.926267667E-4,1.527118147E-4
3.115100374E0,-1.221694518E-3,-9.926267667E-4,7.635590737E-4
3.117526364E0,-6.108472589E-4,-9.926267667E-4,-4.581354442E-4
3.119952302E0,-1.221694518E-3,-9.926267667E-4,-4.581354442E-4
3.122378291E0,0.000000000E0,-3.817795368E-4,7.635590737E-4
3.124804281E0,-5.344913807E-4,2.290677221E-4,1.527118147E-4
3.127230270E0,7.635590737E-5,8.399150101E-4,1.527118147E-4
3.129656208E0,6.872031372E-4,-3.817795368E-4,-1.068982761E-3
3.132082197E0,-5.344913807E-4,-1.603474026E-3,-1.068982761E-3
3.134508187E0,1.908897655E-3,-9.926267667E-4,6.872031372E-4
3.136934177E0,1.298050396E-3,1.450762269E-3,-1.756185899E-3
3.139360166E0,7.635590737E-5,8.399150101E-4,7.635590737E-5
3.141786156E0,1.298050396E-3,-3.817795368E-4,-5.344913807E-4
3.144212093E0,6.872031372E-4,8.399150101E-4,-1.756185899E-3
3.146638083E0,7.635590737E-5,2.290677221E-4,7.635590737E-5
3.149064072E0,6.872031372E-4,2.290677221E-4,-1.145338640E-3
3.151490062E0,7.635590737E-5,8.399150101E-4,6.872031372E-4
3.153915999E0,-5.344913807E-4,2.290677221E-4,-5.344913807E-4
3.156341989E0,6.872031372E-4,2.290677221E-4,7.635590737E-5
3.158767979E0,1.908897655E-3,-3.817795368E-4,1.298050396E-3
3.161193968E0,7.635590737E-5,-3.817795368E-4,6.872031372E-4
3.163619906E0,7.635590737E-5,-3.817795368E-4,7.635590737E-5
3.166045895E0,7.635590737E-5,-3.817795368E-4,-5.344913807E-4
3.168471885E0,-5.344913807E-4,-3.817795368E-4,-5.344913807E-4
3.170897874E0,-5.344913807E-4,-9.926267667E-4,-5.344913807E-4
3.173323864E0,7.635590737E-5,-9.926267667E-4,6.872031372E-4
3.175749802E0,1.298050396E-3,2.290677221E-4,6.872031372E-4
3.178175791E0,-1.145338640E-3,2.290677221E-4,1.298050396E-3
3.180601781E0,-5.344913807E-4,2.290677221E-4,1.298050396E-3
3.183027770E0,6.872031372E-4,2.290677221E-4,-5.344913807E-4
3.185453760E0,7.635590737E-5,-3.817795368E-4,-5.344913807E-4
3.187879697E0,-2.367033157E-3,2.290677221E-4,7.635590737E-5
3.190305687E0,-1.756185899E-3,8.399150101E-4,-5.344913807E-4
3.192731677E0,7.635590737E-5,2.290677221E-4,7.635590737E-5
3.195157666E0,-5.344913807E-4,8.399150101E-4,1.298050396E-3
3.197583656E0,6.872031372E-4,2.290677221E-4,-5.344913807E-4
3.200009593E0,-5.344913807E-4,2.290677221E-4,6.872031372E-4
3.202435583E0,1.298050396E-3,-3.817795368E-4,-5.344913807E-4
3.204861572E0,7.635590737E-5,-3.817795368E-4,7.635590737E-5
3.207287562E0,6.872031372E-4,2.290677221E-4,-1.145338640E-3
3.209713499E0,7.635590737E-5,-9.926267667E-4,6.872031372E-4
3.212139489E0,-5.344913807E-4,8.399150101E-4,7.635590737E-5
3.214565479E0,7.635590737E-5,2.290677221E-4,-5.344913807E-4
3.216991468E0,7.635590737E-5,-3.817795368E-4,-1.145338640E-3
3.219417458E0,-5.344913807E-4,8.399150101E-4,-5.344913807E-4
3.221843395E0,-1.756185899E-3,2.290677221E-4,1.298050396E-3
3.224269385E0,-5.344913807E-4,1.450762269E-3,-5.344913807E-4
3.226695374E0,6.872031372E-4,1.450762269E-3,-1.145338640E-3
3.229121364E0,7.635590737E-5,2.290677221E-4,-5.344913807E-4
3.231547302E0,6.872031372E-4,8.399150101E-4,-5.344913807E-4
3.233973291E0,-5.344913807E-4,2.290677221E-4,1.908897655E-3
3.236399281E0,6.872031372E-4,-3.817795368E-4,1.298050396E-3
3.238825270E0,7.635590737E-5,1.450762269E-3,6.872031372E-4
3.241251260E0,7.635590737E-5,-3.817795368E-4,-5.344913807E-4
3.243677197E0,-5.344913807E-4,2.290677221E-4,1.298050396E-3
3.246103187E0,-1.145338640E-3,8.399150101E-4,7.635590737E-5
3.248529177E0,1.298050396E-3,-3.817795368E-4,-5.344913807E-4
3.250955166E0,-2.367033157E-3,-1.068982761E-3,7.635590737E-5
3.253381156E0,-1.756185899E-3,1.527118147E-4,1.298050396E-3
3.255807093E0,6.872031372E-4,1.527118147E-4,-1.145338640E-3
3.258233083E0,7.635590737E-5,1.374406274E-3,-5.344913807E-4
3.260659072E0,2.519744914E-3,7.635590737E-4,-5.344913807E-4
3.263085062E0,7.635590737E-5,1.527118147E-4,7.635590737E-5
3.265510999E0,6.872031372E-4,1.527118147E-4,1.298050396E-3
3.267936989E0,1.298050396E-3,-4.581354442E-4,-1.756185899E-3
3.270362979E0,1.298050396E-3,1.527118147E-4,7.635590737E-5
3.272788968E0,6.872031372E-4,7.635590737E-4,-5.344913807E-4
3.275214958E0,7.635590737E-5,1.527118147E-4,7.635590737E-5
3.277640895E0,-5.344913807E-4,1.527118147E-4,-1.756185899E-3
3.280066885E0,-5.344913807E-4,-4.581354442E-4,-1.145338640E-3
3.282492874E0,6.872031372E-4,7.635590737E-4,-5.344913807E-4
3.284918864E0,6.872031372E-4,7.635590737E-4,-1.145338640E-3
3.287344854E0,1.298050396E-3,7.635590737E-4,7.635590737E-5
3.289770791E0,6.872031372E-4,1.527118147E-4,6.872031372E-4
3.292196781E0,-1.145338640E-3,7.635590737E-4,7.635590737E-5
3.294622770E0,7.635590737E-5,7.635590737E-4,7.635590737E-5
3.297048760E0,-5.344913807E-4,7.635590737E-4,6.872031372E-4
3.299474697E0,6.872031372E-4,7.635590737E-4,-5.344913807E-4
3.301900687E0,-5.344913807E-4,-4.581354442E-4,7.635590737E-5
3.304326677E0,-1.756185899E-3,-4.581354442E-4,6.872031372E-4
3.306752666E0,6.872031372E-4,-1.679830020E-3,6.872031372E-4
3.309178656E0,6.872031372E-4,7.635590737E-4,7.635590737E-5
3.311604593E0,7.635590737E-5,1.985253533E-3,-1.145338640E-3
3.314030583E0,-1.145338640E-3,7.635590737E-4,7.635590737E-5
3.316456572E0,6.872031372E-4,-4.581354442E-4,7.635590737E-5
3.318882562E0,-5.344913807E-4,-4.581354442E-4,-5.344913807E-4
3.321308552E0,6.872031372E-4,1.527118147E-4,-5.344913807E-4
3.323734489E0,7.635590737E-5,1.527118147E-4,-1.145338640E-3
3.326160479E0,1.298050396E-3,7.635590737E-4,7.635590737E-5
3.328586468E0,-5.344913807E-4,7.635590737E-4,-5.344913807E-4
3.331012458E0,-5.344913807E-4,-4.581354442E-4,7.635590737E-5
3.333438447E0,1.298050396E-3,1.374406274E-3,-5.344913807E-4
3.335864385E0,6.872031372E-4,1.374406274E-3,-5.344913807E-4
3.338290374E0,7.635590737E-5,1.374406274E-3,-5.344913807E-4
3.340716364E0,7.635590737E-5,-4.581354442E-4,6.872031372E-4
3.343142354E0,-5.344913807E-4,1.527118147E-4,-5.344913807E-4
3.345568343E0,7.635590737E-5,7.635590737E-4,6.872031372E-4
3.347994281E0,-1.145338640E-3,-4.581354442E-4,6.872031372E-4
3.350420270E0,6.872031372E-4,-4.581354442E-4,-1.145338640E-3
3.352846260E0,1.908897655E-3,1.374406274E-3,6.872031372E-4
3.355272249E0,6.872031372E-4,1.527118147E-4,6.872031372E-4
3.357698187E0,7.635590737E-5,1.527118147E-4,6.872031372E-4
3.360124177E0,6.872031372E-4,-1.679830020E-3,-5.344913807E-4
3.362550166E0,-5.344913807E-4,-1.068982761E-3,6.872031372E-4
3.364976156E0,6.872031372E-4,1.527118147E-4,1.298050396E-3
3.367402145E0,-1.756185899E-3,-5.344913807E-4,7.635590737E-5
3.369828083E0,-1.756185899E-3,6.872031372E-4,7.635590737E-5
3.372254072E0,6.872031372E-4,-5.344913807E-4,7.635590737E-5
3.374680062E0,1.298050396E-3,7.635590737E-5,7.635590737E-5
3.377106052E0,-1.145338640E-3,-5.344913807E-4,6.872031372E-4
3.379531989E0,6.872031372E-4,-5.344913807E-4,6.872031372E-4
3.381957979E0,-5.344913807E-4,7.635590737E-5,-1.145338640E-3
3.384383968E0,7.635590737E-5,7.635590737E-5,-5.344913807E-4
3.386809958E0,-5.344913807E-4,7.635590737E-5,6.872031372E-4
3.389235947E0,2.519744914E-3,6.872031372E-4,6.872031372E-4
3.391661885E0,7.635590737E-5,6.872031372E-4,-5.344913807E-4
3.394087874E0,7.635590737E-5,6.872031372E-4,-5.344913807E-4
3.396513864E0,-5.344913807E-4,-5.344913807E-4,7.635590737E-5
3.398939854E0,7.635590737E-5,-1.145338640E-3,-5.344913807E-4
3.401365843E0,6.872031372E-4,-1.145338640E-3,7.635590737E-5
3.403791781E0,-5.344913807E-4,7.635590737E-5,-1.756185899E-3
3.406217770E0,0.000000000E0,7.635590737E-5,6.872031372E-4
3.408643760E0,2.443389036E-3,1.298050396E-3,7.635590737E-5
3.411069749E0,0.000000000E0,-5.344913807E-4,-5.344913807E-4
3.413495687E0,-6.108472589E-4,6.872031372E-4,-5.344913807E-4
3.415921677E0,6.108472589E-4,6.872031372E-4,-1.145338640E-3
3.418347666E0,6.108472589E-4,-1.145338640E-3,-1.145338640E-3
3.420773656E0,6.108472589E-4,6.872031372E-4,-1.145338640E-3
3.423199645E0,-6.108472589E-4,-5.344913807E-4,-5.344913807E-4
3.425625583E0,-1.221694518E-3,-1.145338640E-3,-5.344913807E-4
3.428051572E0,-6.108472589E-4,7.635590737E-5,-5.344913807E-4
3.430477562E0,-6.108472589E-4,7.635590737E-5,-5.344913807E-4
3.432903552E0,-1.832541777E-3,7.635590737E-5,7.635590737E-5
3.435329541E0,6.108472589E-4,7.635590737E-5,-5.344913807E-4
3.437755479E0,6.108472589E-4,-5.344913807E-4,6.872031372E-4
3.440181468E0,0.000000000E0,1.908897655E-3,7.635590737E-5
3.442607458E0,1.832541777E-3,7.635590737E-5,1.908897655E-3
3.445033447E0,1.221694518E-3,-5.344913807E-4,7.635590737E-5
3.447459437E0,-6.108472589E-4,1.298050396E-3,-5.344913807E-4
3.449885374E0,6.108472589E-4,6.872031372E-4,-5.344913807E-4
3.452311364E0,-6.108472589E-4,1.298050396E-3,6.872031372E-4
3.454737354E0,-6.108472589E-4,-5.344913807E-4,-5.344913807E-4
3.457163343E0,0.000000000E0,7.635590737E-5,-5.344913807E-4
3.459589281E0,0.000000000E0,-5.344913807E-4,-1.145338640E-3
3.462015270E0,-6.108472589E-4,7.635590737E-5,-5.344913807E-4
3.464441260E0,0.000000000E0,7.635590737E-5,1.298050396E-3
3.466867249E0,6.108472589E-4,-5.344913807E-4,7.635590737E-5
3.469293239E0,-6.108472589E-4,7.635590737E-5,6.872031372E-4
3.471719177E0,-6.108472589E-4,1.298050396E-3,-1.145338640E-3
3.474145166E0,6.108472589E-4,6.872031372E-4,-1.145338640E-3
3.476571156E0,-6.108472589E-4,1.298050396E-3,-4.581354442E-4
3.478997145E0,-6.108472589E-4,7.635590737E-5,-4.581354442E-4
3.481423135E0,0.000000000E0,-5.344913807E-4,7.635590737E-4
3.483849072E0,6.108472589E-4,6.872031372E-4,1.527118147E-4
3.486275062E0,1.221694518E-3,6.872031372E-4,1.527118147E-4
3.488701052E0,0.000000000E0,-5.344913807E-4,7.635590737E-4
3.491127041E0,-1.221694518E-3,7.635590737E-5,-4.581354442E-4
3.493553031E0,0.000000000E0,-1.832541777E-3,1.527118147E-4
3.495978968E0,-6.108472589E-4,0.000000000E0,1.374406274E-3
3.498404958E0,6.108472589E-4,-1.832541777E-3,-1.068982761E-3
3.500830947E0,1.221694518E-3,-1.221694518E-3,7.635590737E-4
3.503256937E0,0.000000000E0,0.000000000E0,-4.581354442E-4
3.505682874E0,1.221694518E-3,-1.221694518E-3,-1.068982761E-3
3.508108864E0,6.108472589E-4,-1.221694518E-3,-1.068982761E-3
3.510534854E0,1.221694518E-3,6.108472589E-4,7.635590737E-4
3.512960843E0,0.000000000E0,0.000000000E0,-1.679830020E-3
3.515386833E0,1.221694518E-3,-6.108472589E-4,-1.679830020E-3
3.517812770E0,-1.221694518E-3,1.221694518E-3,1.527118147E-4
3.520238760E0,0.000000000E0,0.000000000E0,1.527118147E-4
3.522664749E0,0.000000000E0,6.108472589E-4,-1.068982761E-3
3.525090739E0,-6.108472589E-4,-6.108472589E-4,-4.581354442E-4
3.527516729E0,6.108472589E-4,-6.108472589E-4,1.527118147E-4
3.529942666E0,-6.108472589E-4,1.221694518E-3,1.527118147E-4
3.532368656E0,6.108472589E-4,6.108472589E-4,1.374406274E-3
3.534794645E0,-1.221694518E-3,0.000000000E0,1.527118147E-4
3.537220635E0,-1.221694518E-3,0.000000000E0,1.527118147E-4
3.539646572E0,1.832541777E-3,0.000000000E0,-1.068982761E-3
3.542072562E0,6.108472589E-4,6.108472589E-4,-4.581354442E-4
3.544498552E0,0.000000000E0,-6.108472589E-4,1.527118147E-4
3.546924541E0,6.108472589E-4,6.108472589E-4,7.635590737E-4
3.549350531E0,-6.108472589E-4,0.000000000E0,-4.581354442E-4
3.551776468E0,-0.000000000E0,1.221694518E-3,1.374406274E-3
3.554202458E0,-6.108472589E-4,0.000000000E0,1.527118147E-4
3.556628447E0,-0.000000000E0,0.000000000E0,1.527118147E-4
3.559054437E0,1.221694518E-3,-1.221694518E-3,-4.581354442E-4
3.561480427E0,6.108472589E-4,1.221694518E-3,-1.068982761E-3
3.563906364E0,1.221694518E-3,6.108472589E-4,-4.581354442E-4
3.566332354E0,-6.108472589E-4,0.000000000E0,-1.679830020E-3
3.568758343E0,-6.108472589E-4,0.000000000E0,1.527118147E-4
3.571184333E0,-1.221694518E-3,6.108472589E-4,-1.068982761E-3
3.573610270E0,1.221694518E-3,0.000000000E0,-4.581354442E-4
3.576036260E0,-6.108472589E-4,-6.108472589E-4,-4.581354442E-4
3.578462249E0,-0.000000000E0,0.000000000E0,-1.068982761E-3
3.580888239E0,-0.000000000E0,-1.832541777E-3,-4.581354442E-4
3.583314229E0,-6.108472589E-4,6.108472589E-4,-4.581354442E-4
3.585740166E0,1.221694518E-3,0.000000000E0,1.527118147E-4
3.588166156E0,-6.108472589E-4,-6.108472589E-4,1.527118147E-4
3.590592145E0,-0.000000000E0,1.221694518E-3,-1.068982761E-3
3.593018135E0,6.108472589E-4,1.221694518E-3,-1.679830020E-3
3.595444124E0,-0.000000000E0,-6.108472589E-4,-4.581354442E-4
3.597870062E0,1.221694518E-3,1.221694518E-3,7.635590737E-4
3.600296052E0,-0.000000000E0,0.000000000E0,1.527118147E-4
3.602722041E0,-1.221694518E-3,-1.221694518E-3,1.527118147E-4
3.605148031E0,-0.000000000E0,6.108472589E-4,-4.581354442E-4
3.607573968E0,6.108472589E-4,6.108472589E-4,-4.581354442E-4
3.609999958E0,-0.000000000E0,0.000000000E0,1.527118147E-4
3.612425947E0,-6.108472589E-4,1.221694518E-3,-1.068982761E-3
3.614851937E0,-6.108472589E-4,-6.108472589E-4,1.527118147E-4
3.617277927E0,-0.000000000E0,0.000000000E0,1.450762269E-3
3.619703864E0,-6.108472589E-4,6.108472589E-4,1.450762269E-3
3.622129854E0,-6.108472589E-4,0.000000000E0,-3.817795368E-4
3.624555843E0,-6.108472589E-4,6.108472589E-4,-3.817795368E-4
3.626981833E0,1.221694518E-3,6.108472589E-4,2.290677221E-4
3.629407822E0,6.108472589E-4,0.000000000E0,8.399150101E-4
3.631833760E0,-6.108472589E-4,-6.108472589E-4,2.290677221E-4
3.634259749E0,-1.221694518E-3,6.108472589E-4,8.399150101E-4
3.636685739E0,-0.000000000E0,0.000000000E0,2.290677221E-4
3.639111729E0,-0.000000000E0,-1.221694518E-3,8.399150101E-4
3.641537718E0,-0.000000000E0,0.000000000E0,1.450762269E-3
3.643963656E0,6.108472589E-4,6.108472589E-4,1.450762269E-3
3.646389645E0,6.108472589E-4,-0.000000000E0,-9.926267667E-4
3.648815635E0,-6.108472589E-4,-0.000000000E0,-2.214321401E-3
3.651241624E0,-6.108472589E-4,-0.000000000E0,-9.926267667E-4
3.653667562E0,6.108472589E-4,2.443389036E-3,2.290677221E-4
3.656093552E0,-0.000000000E0,1.832541777E-3,-9.926267667E-4
3.658519541E0,6.108472589E-4,-0.000000000E0,-9.926267667E-4
3.660945531E0,-1.221694518E-3,-1.221694518E-3,-3.817795368E-4
3.663371520E0,-1.832541777E-3,-6.108472589E-4,-3.817795368E-4
3.665797458E0,-1.221694518E-3,-0.000000000E0,-9.926267667E-4
3.668223447E0,-6.108472589E-4,-1.221694518E-3,2.290677221E-4
3.670649437E0,-0.000000000E0,6.108472589E-4,-9.926267667E-4
3.673075427E0,-0.000000000E0,-6.108472589E-4,1.450762269E-3
3.675501416E0,-6.108472589E-4,-6.108472589E-4,2.290677221E-4
3.677927354E0,-6.108472589E-4,-0.000000000E0,-3.817795368E-4
3.680353343E0,-6.108472589E-4,-6.108472589E-4,2.290677221E-4
3.682779333E0,6.108472589E-4,-6.108472589E-4,8.399150101E-4
3.685205322E0,-0.000000000E0,-0.000000000E0,2.290677221E-4
3.687631312E0,-6.108472589E-4,6.108472589E-4,-1.603474026E-3
3.690057249E0,-0.000000000E0,-1.221694518E-3,-3.817795368E-4
3.692483239E0,-6.108472589E-4,-6.108472589E-4,8.399150101E-4
3.694909229E0,-1.221694518E-3,6.108472589E-4,2.290677221E-4
3.697335218E0,-1.221694518E-3,6.108472589E-4,-9.926267667E-4
3.699761156E0,-6.108472589E-4,-1.221694518E-3,-3.817795368E-4
3.702187145E0,6.108472589E-4,-0.000000000E0,-9.926267667E-4
3.704613135E0,6.108472589E-4,-6.108472589E-4,-9.926267667E-4
3.707039124E0,6.108472589E-4,1.221694518E-3,-1.603474026E-3
3.709465114E0,6.108472589E-4,1.221694518E-3,2.290677221E-4
3.711891052E0,-6.108472589E-4,6.108472589E-4,-3.817795368E-4
3.714317041E0,-6.108472589E-4,-6.108472589E-4,2.290677221E-4
3.716743031E0,-0.000000000E0,6.108472589E-4,2.290677221E-4
3.719169020E0,1.221694518E-3,-0.000000000E0,-3.817795368E-4
3.721595010E0,-0.000000000E0,6.108472589E-4,-3.817795368E-4
3.724020947E0,-0.000000000E0,-0.000000000E0,-3.817795368E-4
3.726446937E0,-6.108472589E-4,-6.108472589E-4,2.290677221E-4
3.728872927E0,6.108472589E-4,-1.832541777E-3,-3.817795368E-4
3.731298916E0,-0.000000000E0,-6.108472589E-4,-9.926267667E-4
3.733724854E0,-6.108472589E-4,-0.000000000E0,2.290677221E-4
3.736150843E0,-0.000000000E0,6.108472589E-4,-3.817795368E-4
3.738576833E0,-0.000000000E0,-6.108472589E-4,2.290677221E-4
3.741002822E0,-6.108472589E-4,-6.108472589E-4,9.162708884E-4
3.743428812E0,-1.221694518E-3,-6.108472589E-4,3.054236295E-4
3.745854749E0,-0.000000000E0,-0.000000000E0,3.054236295E-4
3.748280739E0,-0.000000000E0,6.108472589E-4,3.054236295E-4
3.750706729E0,-6.108472589E-4,-1.221694518E-3,-3.054236295E-4
3.753132718E0,-6.108472589E-4,6.108472589E-4,3.054236295E-4
3.755558708E0,-1.832541777E-3,-1.221694518E-3,1.527118147E-3
3.757984645E0,-6.108472589E-4,-6.108472589E-4,3.054236295E-4
3.760410635E0,1.221694518E-3,-0.000000000E0,-3.054236295E-4
3.762836624E0,-1.221694518E-3,6.108472589E-4,-9.162708884E-4
3.765262614E0,0.000000000E0,6.108472589E-4,3.054236295E-4
3.767688552E0,1.221694518E-3,-1.832541777E-3,3.054236295E-4
3.770114541E0,0.000000000E0,-1.221694518E-3,3.054236295E-4
3.772540531E0,-1.221694518E-3,-0.000000000E0,9.162708884E-4
3.774966520E0,-1.221694518E-3,-1.221694518E-3,-3.054236295E-4
3.777392510E0,0.000000000E0,-0.000000000E0,9.162708884E-4
3.779818447E0,-6.108472589E-4,-0.000000000E0,3.054236295E-4
3.782244437E0,-6.108472589E-4,-1.221694518E-3,3.054236295E-4
3.784670427E0,6.108472589E-4,-0.000000000E0,-3.054236295E-4
3.787096416E0,1.832541777E-3,-6.108472589E-4,3.054236295E-4
3.789522406E0,-1.221694518E-3,-1.221694518E-3,-3.054236295E-4
3.791948343E0,0.000000000E0,-0.000000000E0,-3.054236295E-4
3.794374333E0,1.221694518E-3,-0.000000000E0,-1.527118147E-3
3.796800322E0,6.108472589E-4,6.108472589E-4,9.162708884E-4
3.799226312E0,1.221694518E-3,-6.108472589E-4,-3.054236295E-4
3.801652249E0,6.108472589E-4,-0.000000000E0,9.162708884E-4
3.804078239E0,-6.108472589E-4,-6.108472589E-4,9.162708884E-4
3.806504229E0,-1.221694518E-3,6.108472589E-4,9.162708884E-4
3.808930218E0,0.000000000E0,-1.221694518E-3,3.054236295E-4
3.811356208E0,1.221694518E-3,-6.108472589E-4,-9.162708884E-4
3.813782145E0,0.000000000E0,-1.221694518E-3,3.054236295E-4
3.816208135E0,0.000000000E0,-1.832541777E-3,3.054236295E-4
3.818634124E0,-6.108472589E-4,-6.108472589E-4,3.054236295E-4
3.821060114E0,6.108472589E-4,6.108472589E-4,3.054236295E-4
3.823486104E0,6.872031372E-4,-0.000000000E0,3.054236295E-4
3.825912041E0,7.635590737E-5,-0.000000000E0,3.054236295E-4
3.828338031E0,6.872031372E-4,-6.108472589E-4,9.162708884E-4
3.830764020E0,6.872031372E-4,-0.000000000E0,-3.054236295E-4
3.833190010E0,6.872031372E-4,-6.108472589E-4,9.162708884E-4
3.835615999E0,-5.344913807E-4,-0.000000000E0,-3.054236295E-4
3.838041937E0,-1.145338640E-3,1.221694518E-3,-3.054236295E-4
3.840467927E0,6.872031372E-4,1.221694518E-3,-3.054236295E-4
3.842893916E0,-5.344913807E-4,1.832541777E-3,-9.162708884E-4
3.845319906E0,7.635590737E-5,1.221694518E-3,-9.162708884E-4
3.847745843E0,6.872031372E-4,-6.108472589E-4,-1.527118147E-3
3.850171833E0,6.872031372E-4,-1.221694518E-3,3.054236295E-4
3.852597822E0,7.635590737E-5,-6.108472589E-4,1.527118147E-3
3.855023812E0,6.872031372E-4,0.000000000E0,9.162708884E-4
3.857449802E0,7.635590737E-5,0.000000000E0,3.054236295E-4
3.859875739E0,6.872031372E-4,-6.108472589E-4,3.054236295E-4
3.862301729E0,7.635590737E-5,0.000000000E0,-9.162708884E-4
3.864727718E0,1.298050396E-3,0.000000000E0,-3.054236295E-4
3.867153708E0,1.298050396E-3,1.832541777E-3,1.527118147E-3
3.869579697E0,7.635590737E-5,0.000000000E0,9.162708884E-4
3.872005635E0,-5.344913807E-4,1.221694518E-3,9.162708884E-4
3.874431624E0,7.635590737E-5,6.108472589E-4,-1.527118147E-3
3.876857614E0,7.635590737E-5,6.108472589E-4,9.162708884E-4
3.879283604E0,-5.344913807E-4,6.108472589E-4,3.054236295E-4
3.881709593E0,-5.344913807E-4,-6.108472589E-4,9.162708884E-4
3.884135531E0,7.635590737E-5,-6.108472589E-4,3.054236295E-4
3.886561520E0,7.635590737E-5,-6.108472589E-4,3.054236295E-4
3.888987510E0,7.635590737E-5,1.298050396E-3,-9.162708884E-4
3.891413499E0,7.635590737E-5,7.635590737E-5,-3.054236295E-4
3.893839437E0,7.635590737E-5,-5.344913807E-4,2.137965523E-3
3.896265427E0,-1.145338640E-3,7.635590737E-5,9.162708884E-4
3.898691416E0,-1.756185899E-3,7.635590737E-5,3.054236295E-4
3.901117406E0,-5.344913807E-4,-1.145338640E-3,3.054236295E-4
3.903543395E0,-5.344913807E-4,6.872031372E-4,9.162708884E-4
3.905969333E0,6.872031372E-4,-1.145338640E-3,-3.054236295E-4
3.908395322E0,-5.344913807E-4,7.635590737E-5,3.054236295E-4
3.910821312E0,1.298050396E-3,7.635590737E-5,-3.054236295E-4
3.913247302E0,6.872031372E-4,1.298050396E-3,3.054236295E-4
3.915673291E0,7.635590737E-5,6.872031372E-4,3.054236295E-4
3.918099229E0,7.635590737E-5,6.872031372E-4,-9.162708884E-4
3.920525218E0,7.635590737E-5,6.872031372E-4,-9.162708884E-4
3.922951208E0,7.635590737E-5,-1.145338640E-3,-3.054236295E-4
3.925377197E0,6.872031372E-4,-1.145338640E-3,-3.054236295E-4
3.927803135E0,6.872031372E-4,7.635590737E-5,9.162708884E-4
3.930229124E0,6.872031372E-4,-5.344913807E-4,9.162708884E-4
3.932655114E0,1.298050396E-3,7.635590737E-5,9.162708884E-4
3.935081104E0,-5.344913807E-4,-5.344913807E-4,-9.162708884E-4
3.937507093E0,1.908897655E-3,7.635590737E-5,-3.054236295E-4
3.939933031E0,6.872031372E-4,7.635590737E-5,3.054236295E-4
3.942359020E0,6.872031372E-4,-5.344913807E-4,9.162708884E-4
3.944785010E0,6.872031372E-4,7.635590737E-5,9.162708884E-4
3.947210999E0,1.298050396E-3,7.635590737E-5,9.162708884E-4
3.949636989E0,-5.344913807E-4,7.635590737E-5,-3.054236295E-4
3.952062927E0,1.908897655E-3,7.635590737E-5,1.527118147E-3
3.954488916E0,6.872031372E-4,-5.344913807E-4,-3.054236295E-4
3.956914906E0,7.635590737E-5,-5.344913807E-4,1.527118147E-3
3.959340895E0,6.872031372E-4,7.635590737E-5,3.054236295E-4
3.961766885E0,6.872031372E-4,-5.344913807E-4,-3.054236295E-4
3.964192822E0,-5.344913807E-4,7.635590737E-5,9.162708884E-4
3.966618812E0,6.872031372E-4,-5.344913807E-4,-3.054236295E-4
3.969044802E0,6.872031372E-4,1.298050396E-3,1.527118147E-3
3.971470791E0,7.635590737E-5,7.635590737E-5,9.162708884E-4
3.973896729E0,6.872031372E-4,6.872031372E-4,3.054236295E-4
3.976322718E0,-5.344913807E-4,7.635590737E-5,-9.162708884E-4
3.978748708E0,6.872031372E-4,-1.756185899E-3,-9.162708884E-4
3.981174697E0,6.872031372E-4,-2.367033157E-3,3.054236295E-4
3.983600687E0,-6.108472589E-4,6.872031372E-4,3.054236295E-4
3.986026624E0,0.000000000E0,6.872031372E-4,2.290677221E-4
3.988452614E0,6.108472589E-4,-1.145338640E-3,-3.817795368E-4
3.990878604E0,-1.221694518E-3,-5.344913807E-4,2.290677221E-4
3.993304593E0,0.000000000E0,-5.344913807E-4,2.290677221E-4
3.995730583E0,-6.108472589E-4,7.635590737E-5,-9.926267667E-4
3.998156520E0,0.000000000E0,1.298050396E-3,2.290677221E-4
4.000582510E0,0.000000000E0,6.872031372E-4,2.290677221E-4
4.003008499E0,-6.108472589E-4,6.872031372E-4,1.450762269E-3
4.005434489E0,1.221694518E-3,7.635590737E-5,-9.926267667E-4
4.007860427E0,1.221694518E-3,7.635590737E-5,-3.817795368E-4
4.010286416E0,-6.108472589E-4,-5.344913807E-4,2.290677221E-4
4.012712406E0,1.221694518E-3,-5.344913807E-4,-9.926267667E-4
4.015138395E0,0.000000000E0,7.635590737E-5,2.290677221E-4
4.017564385E0,1.221694518E-3,7.635590737E-5,2.290677221E-4
4.019990322E0,-6.108472589E-4,7.635590737E-5,-9.926267667E-4
4.022416312E0,6.108472589E-4,-1.145338640E-3,8.399150101E-4
4.024842302E0,6.108472589E-4,7.635590737E-5,2.061609412E-3
4.027268291E0,6.108472589E-4,-5.344913807E-4,-9.926267667E-4
4.029694281E0,6.108472589E-4,-1.145338640E-3,-3.817795368E-4
4.032120218E0,1.832541777E-3,-1.145338640E-3,-3.817795368E-4
4.034546208E0,1.221694518E-3,7.635590737E-5,2.290677221E-4
4.036972197E0,1.221694518E-3,6.872031372E-4,-3.817795368E-4
4.039398187E0,6.108472589E-4,-5.344913807E-4,2.061609412E-3
4.041824177E0,-6.108472589E-4,6.872031372E-4,2.290677221E-4
4.044250114E0,-6.108472589E-4,1.908897655E-3,8.399150101E-4
4.046676104E0,-0.000000000E0,7.635590737E-5,2.290677221E-4
4.049102093E0,6.108472589E-4,1.298050396E-3,-9.926267667E-4
4.051528083E0,-0.000000000E0,6.872031372E-4,-9.926267667E-4
4.053954020E0,6.108472589E-4,1.298050396E-3,-9.926267667E-4
4.056380010E0,6.108472589E-4,7.635590737E-5,-3.817795368E-4
4.058805999E0,-1.221694518E-3,1.298050396E-3,-9.926267667E-4
4.061231989E0,1.221694518E-3,-5.344913807E-4,8.399150101E-4
4.063657979E0,-0.000000000E0,-5.344913807E-4,-3.817795368E-4
4.066083916E0,-6.108472589E-4,-5.344913807E-4,8.399150101E-4
4.068509906E0,-0.000000000E0,7.635590737E-5,2.290677221E-4
4.070935895E0,-6.108472589E-4,-5.344913807E-4,-9.926267667E-4
4.073361885E0,-6.108472589E-4,-1.756185899E-3,2.290677221E-4
4.075787874E0,-0.000000000E0,6.872031372E-4,-3.817795368E-4
4.078213812E0,-1.908897655E-3,6.872031372E-4,2.290677221E-4
4.080639802E0,-1.298050396E-3,6.872031372E-4,8.399150101E-4
4.083065791E0,-7.635590737E-5,-5.344913807E-4,8.399150101E-4
4.085491781E0,-6.872031372E-4,7.635590737E-5,2.290677221E-4
4.087917770E0,1.145338640E-3,-5.344913807E-4,8.399150101E-4
4.090343708E0,1.145338640E-3,-1.756185899E-3,2.290677221E-4
4.092769697E0,5.344913807E-4,-1.145338640E-3,2.290677221E-4
4.095195687E0,5.344913807E-4,6.872031372E-4,2.290677221E-4
4.097621677E0,5.344913807E-4,6.872031372E-4,8.399150101E-4
4.100047614E0,1.756185899E-3,6.872031372E-4,2.290677221E-4
4.102473604E0,5.344913807E-4,6.872031372E-4,-9.926267667E-4
4.104899593E0,-7.635590737E-5,7.635590737E-5,-3.817795368E-4
4.107325583E0,-1.298050396E-3,-5.344913807E-4,-9.926267667E-4
4.109751572E0,-1.298050396E-3,1.908897655E-3,1.450762269E-3
4.112177510E0,5.344913807E-4,7.635590737E-5,-3.817795368E-4
4.114603499E0,5.344913807E-4,7.635590737E-5,8.399150101E-4
4.117029489E0,-6.872031372E-4,-5.344913807E-4,1.450762269E-3
4.119455479E0,1.145338640E-3,7.635590737E-5,8.399150101E-4
4.121881468E0,5.344913807E-4,6.872031372E-4,8.399150101E-4
4.124307406E0,5.344913807E-4,-1.145338640E-3,-3.817795368E-4
4.126733395E0,5.344913807E-4,7.635590737E-5,2.290677221E-4
4.129159385E0,-1.298050396E-3,6.872031372E-4,2.290677221E-4
4.131585374E0,-7.635590737E-5,7.635590737E-5,2.290677221E-4
4.134011312E0,-7.635590737E-5,7.635590737E-5,-4.581354442E-4
4.136437302E0,-6.872031372E-4,6.872031372E-4,1.527118147E-4
4.138863291E0,-6.872031372E-4,6.872031372E-4,-1.068982761E-3
4.141289281E0,-6.872031372E-4,7.635590737E-5,1.527118147E-4
4.143715270E0,-6.872031372E-4,6.872031372E-4,1.527118147E-4
4.146141208E0,-7.635590737E-5,7.635590737E-5,-4.581354442E-4
4.148567197E0,-6.872031372E-4,-5.344913807E-4,1.527118147E-4
4.150993187E0,1.145338640E-3,-5.344913807E-4,1.527118147E-4
4.153419177E0,-7.635590737E-5,-5.344913807E-4,-4.581354442E-4
4.155845166E0,-2.519744914E-3,7.635590737E-5,1.527118147E-4
4.158271104E0,-6.872031372E-4,6.872031372E-4,1.527118147E-4
4.160697093E0,5.344913807E-4,1.908897655E-3,-1.068982761E-3
4.163123083E0,1.756185899E-3,6.872031372E-4,-4.581354442E-4
4.165549072E0,-7.635590737E-5,1.298050396E-3,-4.581354442E-4
4.167975062E0,-1.298050396E-3,1.298050396E-3,1.527118147E-4
4.170400999E0,-7.635590737E-5,6.872031372E-4,-4.581354442E-4
4.172826989E0,-6.872031372E-4,7.635590737E-5,-4.581354442E-4
4.175252979E0,5.344913807E-4,-5.344913807E-4,1.527118147E-4
4.177678968E0,-7.635590737E-5,7.635590737E-5,-1.679830020E-3
4.180104958E0,-7.635590737E-5,-5.344913807E-4,7.635590737E-4
4.182530895E0,-6.872031372E-4,7.635590737E-5,1.527118147E-4
4.184956885E0,5.344913807E-4,7.635590737E-5,7.635590737E-4
4.187382874E0,-7.635590737E-5,6.872031372E-4,1.985253533E-3
4.189808864E0,5.344913807E-4,6.872031372E-4,7.635590737E-4
4.192234802E0,-1.298050396E-3,-1.145338640E-3,-1.068982761E-3
4.194660791E0,-1.908897655E-3,-1.145338640E-3,-4.581354442E-4
4.197086781E0,5.344913807E-4,7.635590737E-5,-4.581354442E-4
4.199512770E0,-7.635590737E-5,6.872031372E-4,-4.581354442E-4
4.201938760E0,-7.635590737E-5,6.872031372E-4,1.374406274E-3
4.204364697E0,5.344913807E-4,6.872031372E-4,1.527118147E-4
4.206790687E0,-7.635590737E-5,6.872031372E-4,1.527118147E-4
4.209216677E0,-1.298050396E-3,1.298050396E-3,1.374406274E-3
4.211642666E0,-6.872031372E-4,1.298050396E-3,1.527118147E-4
4.214068604E0,1.756185899E-3,-5.344913807E-4,1.527118147E-4
4.216494593E0,1.145338640E-3,7.635590737E-5,1.527118147E-4
4.218920583E0,1.145338640E-3,1.298050396E-3,-1.068982761E-3
4.221346572E0,-6.872031372E-4,7.635590737E-5,-4.581354442E-4
4.223772562E0,-7.635590737E-5,-1.756185899E-3,-1.068982761E-3
4.226198499E0,5.344913807E-4,-5.344913807E-4,1.527118147E-4
4.228624489E0,-6.872031372E-4,6.872031372E-4,-4.581354442E-4
4.231050479E0,5.344913807E-4,7.635590737E-5,-4.581354442E-4
4.233476468E0,-1.908897655E-3,6.872031372E-4,7.635590737E-4
4.235902458E0,-1.298050396E-3,-1.145338640E-3,-4.581354442E-4
4.238328395E0,5.344913807E-4,-1.145338640E-3,1.527118147E-4
4.240754385E0,1.145338640E-3,-1.145338640E-3,-1.068982761E-3
4.243180374E0,-7.635590737E-5,7.635590737E-5,7.635590737E-4
4.245606364E0,5.344913807E-4,7.635590737E-5,-1.068982761E-3
4.248032354E0,-6.872031372E-4,7.635590737E-5,7.635590737E-4
4.250458291E0,-7.635590737E-5,7.635590737E-5,-4.581354442E-4
4.252884281E0,-7.635590737E-5,1.908897655E-3,-1.068982761E-3
4.255310270E0,-7.635590737E-5,7.635590737E-5,-1.679830020E-3
4.257736260E0,-7.635590737E-5,7.635590737E-5,-4.581354442E-4
4.260162249E0,1.756185899E-3,6.872031372E-4,-4.581354442E-4
4.262588187E0,5.344913807E-4,1.908897655E-3,1.527118147E-4
4.265014177E0,5.344913807E-4,7.635590737E-5,1.374406274E-3
4.267440166E0,-6.872031372E-4,7.635590737E-5,1.527118147E-4
4.269866156E0,-1.298050396E-3,7.635590737E-5,7.635590737E-4
4.272292093E0,-7.635590737E-5,-5.344913807E-4,1.527118147E-4
4.274718083E0,-1.298050396E-3,1.298050396E-3,-4.581354442E-4
4.277144072E0,5.344913807E-4,-5.344913807E-4,-1.679830020E-3
4.279570062E0,-7.635590737E-5,7.635590737E-5,1.527118147E-4
4.281996052E0,-6.872031372E-4,6.108472589E-4,1.527118147E-4
4.284421989E0,5.344913807E-4,1.221694518E-3,-4.581354442E-4
4.286847979E0,-7.635590737E-5,6.108472589E-4,-4.581354442E-4
4.289273968E0,-6.872031372E-4,6.108472589E-4,7.635590737E-4
4.291699958E0,5.344913807E-4,6.108472589E-4,1.527118147E-4
4.294125947E0,1.145338640E-3,6.108472589E-4,7.635590737E-4
4.296551885E0,1.145338640E-3,-1.221694518E-3,-1.068982761E-3
4.298977874E0,-7.635590737E-5,-6.108472589E-4,-1.679830020E-3
4.301403864E0,-6.872031372E-4,0.000000000E0,-4.581354442E-4
4.303829854E0,-1.908897655E-3,-6.108472589E-4,1.527118147E-4
4.306255791E0,-6.872031372E-4,-1.221694518E-3,1.527118147E-4
4.308681781E0,5.344913807E-4,-1.221694518E-3,1.374406274E-3
4.311107770E0,-6.872031372E-4,0.000000000E0,7.635590737E-4
4.313533760E0,-1.298050396E-3,0.000000000E0,-4.581354442E-4
4.315959749E0,-1.298050396E-3,-6.108472589E-4,1.374406274E-3
4.318385687E0,-1.908897655E-3,0.000000000E0,7.635590737E-4
4.320811677E0,-6.872031372E-4,1.221694518E-3,-1.679830020E-3
4.323237666E0,5.344913807E-4,1.221694518E-3,-4.581354442E-4
4.325663656E0,-7.635590737E-5,6.108472589E-4,-4.581354442E-4
4.328089645E0,1.145338640E-3,1.221694518E-3,1.527118147E-4
4.330515583E0,1.756185899E-3,-6.108472589E-4,-4.581354442E-4
4.332941572E0,-1.298050396E-3,1.221694518E-3,1.527118147E-4
4.335367562E0,-7.635590737E-5,6.108472589E-4,7.635590737E-4
4.337793552E0,-7.635590737E-5,0.000000000E0,-1.068982761E-3
4.340219489E0,-6.872031372E-4,1.221694518E-3,1.374406274E-3
4.342645479E0,-6.872031372E-4,-1.221694518E-3,7.635590737E-4
4.345071468E0,-7.635590737E-5,-6.108472589E-4,1.527118147E-4
4.347497458E0,-7.635590737E-5,-6.108472589E-4,7.635590737E-4
4.349923447E0,5.344913807E-4,-6.108472589E-4,1.527118147E-4
4.352349437E0,1.145338640E-3,-1.221694518E-3,7.635590737E-4
4.354775374E0,1.756185899E-3,-0.000000000E0,-4.581354442E-4
4.357201364E0,-6.872031372E-4,-6.108472589E-4,1.527118147E-4
4.359627354E0,1.145338640E-3,-0.000000000E0,-4.581354442E-4
4.362053343E0,-7.635590737E-5,-0.000000000E0,7.635590737E-4
4.364479281E0,5.344913807E-4,-0.000000000E0,1.374406274E-3
4.366905270E0,-6.872031372E-4,-6.108472589E-4,1.374406274E-3
4.369331260E0,-6.872031372E-4,6.108472589E-4,1.527118147E-4
4.371757249E0,5.344913807E-4,6.108472589E-4,-1.068982761E-3
4.374183239E0,-1.298050396E-3,6.108472589E-4,1.527118147E-4
4.376609177E0,-7.635590737E-5,-6.108472589E-4,-1.068982761E-3
4.379035166E0,1.145338640E-3,-6.108472589E-4,1.527118147E-4
4.381461156E0,-7.635590737E-5,-6.108472589E-4,7.635590737E-4
4.383887145E0,5.344913807E-4,6.108472589E-4,7.635590737E-4
4.386313083E0,-7.635590737E-5,-6.108472589E-4,1.527118147E-4
4.388739072E0,1.145338640E-3,-1.832541777E-3,-1.679830020E-3
4.391165062E0,-6.872031372E-4,6.108472589E-4,1.527118147E-4
4.393591052E0,5.344913807E-4,1.221694518E-3,-4.581354442E-4
4.396017041E0,5.344913807E-4,-0.000000000E0,7.635590737E-4
4.398442979E0,-1.298050396E-3,6.108472589E-4,1.527118147E-4
4.400868968E0,-6.872031372E-4,-0.000000000E0,1.527118147E-4
4.403294958E0,-7.635590737E-5,-1.221694518E-3,-4.581354442E-4
4.405720947E0,-1.908897655E-3,-0.000000000E0,-4.581354442E-4
4.408146937E0,-6.872031372E-4,1.221694518E-3,1.527118147E-4
4.410572874E0,1.145338640E-3,-1.221694518E-3,-4.581354442E-4
4.412998864E0,1.145338640E-3,1.832541777E-3,7.635590737E-4
4.415424854E0,5.344913807E-4,-0.000000000E0,7.635590737E-4
4.417850843E0,-7.635590737E-5,-0.000000000E0,1.527118147E-4
4.420276833E0,1.756185899E-3,-0.000000000E0,1.374406274E-3
4.422702770E0,5.344913807E-4,-6.108472589E-4,1.527118147E-4
4.425128760E0,-6.872031372E-4,6.108472589E-4,1.527118147E-4
4.427554749E0,5.344913807E-4,6.108472589E-4,-4.581354442E-4
4.429980739E0,5.344913807E-4,-6.108472589E-4,1.527118147E-4
4.432406729E0,-7.635590737E-5,-0.000000000E0,-4.581354442E-4
4.434832666E0,5.344913807E-4,-1.221694518E-3,-4.581354442E-4
4.437258656E0,-6.872031372E-4,-6.108472589E-4,1.527118147E-4
4.439684645E0,-6.872031372E-4,-0.000000000E0,-4.581354442E-4
4.442110635E0,5.344913807E-4,-0.000000000E0,-1.679830020E-3
4.444536572E0,-6.872031372E-4,-1.221694518E-3,-1.068982761E-3
4.446962562E0,-7.635590737E-5,-6.108472589E-4,1.527118147E-4
4.449388552E0,5.344913807E-4,-0.000000000E0,1.374406274E-3
4.451814541E0,5.344913807E-4,1.221694518E-3,-4.581354442E-4
4.454240531E0,-6.872031372E-4,-0.000000000E0,1.374406274E-3
4.456666468E0,5.344913807E-4,6.108472589E-4,1.527118147E-4
4.459092458E0,5.344913807E-4,6.108472589E-4,-4.581354442E-4
4.461518447E0,-6.872031372E-4,6.108472589E-4,1.527118147E-4
4.463944437E0,-7.635590737E-5,-0.000000000E0,1.374406274E-3
4.466370427E0,1.756185899E-3,-0.000000000E0,1.374406274E-3
4.468796364E0,5.344913807E-4,-1.832541777E-3,-4.581354442E-4
4.471222354E0,-7.635590737E-5,-1.832541777E-3,-1.068982761E-3
4.473648343E0,-1.298050396E-3,6.108472589E-4,-1.068982761E-3
4.476074333E0,-7.635590737E-5,-0.000000000E0,1.374406274E-3
4.478500322E0,-1.298050396E-3,-1.221694518E-3,1.527118147E-4
4.480926260E0,-7.635590737E-5,6.108472589E-4,7.635590737E-4
4.483352249E0,5.344913807E-4,6.108472589E-4,-1.679830020E-3
4.485778239E0,-7.635590737E-5,-0.000000000E0,-1.068982761E-3
4.488204229E0,-6.872031372E-4,-0.000000000E0,1.527118147E-4
4.490630166E0,-7.635590737E-5,6.108472589E-4,-1.068982761E-3
4.493056156E0,-7.635590737E-5,-0.000000000E0,7.635590737E-4
4.495482145E0,5.344913807E-4,1.221694518E-3,-4.581354442E-4
4.497908135E0,-7.635590737E-5,-1.221694518E-3,-1.068982761E-3
4.500334124E0,5.344913807E-4,-1.832541777E-3,-4.581354442E-4
4.502760062E0,-7.635590737E-5,-1.221694518E-3,1.527118147E-4
4.505186052E0,-7.635590737E-5,-6.108472589E-4,-1.068982761E-3
4.507612041E0,5.344913807E-4,-1.832541777E-3,7.635590737E-4
4.510038031E0,-7.635590737E-5,-0.000000000E0,1.374406274E-3
4.512463968E0,5.344913807E-4,-0.000000000E0,1.527118147E-4
4.514889958E0,1.145338640E-3,-1.221694518E-3,-4.581354442E-4
4.517315947E0,-7.635590737E-5,6.108472589E-4,7.635590737E-4
4.519741937E0,-7.635590737E-5,6.108472589E-4,-2.290677279E-3
4.522167927E0,5.344913807E-4,-6.108472589E-4,1.527118147E-4
4.524593864E0,-7.635590737E-5,1.221694518E-3,-4.581354442E-4
4.527019854E0,-7.635590737E-5,-6.108472589E-4,1.527118147E-4
4.529445843E0,-1.908897655E-3,-6.108472589E-4,-4.581354442E-4
4.531871833E0,-1.908897655E-3,-0.000000000E0,7.635590737E-4
4.534297822E0,-7.635590737E-5,-1.221694518E-3,-4.581354442E-4
4.536723760E0,-6.872031372E-4,1.221694518E-3,-1.068982761E-3
4.539149749E0,-7.635590737E-5,-1.832541777E-3,1.374406274E-3
4.541575739E0,-1.298050396E-3,6.108472589E-4,7.635590737E-4
4.544001729E0,-6.872031372E-4,6.108472589E-4,1.985253533E-3
4.546427718E0,-6.872031372E-4,1.221694518E-3,1.374406274E-3
4.548853656E0,5.344913807E-4,-0.000000000E0,7.635590737E-4
4.551279645E0,-7.635590737E-5,-6.108472589E-4,-4.581354442E-4
4.553705635E0,-1.298050396E-3,1.221694518E-3,7.635590737E-4
4.556131624E0,-7.635590737E-5,-0.000000000E0,7.635590737E-4
4.558557562E0,5.344913807E-4,-1.221694518E-3,-4.581354442E-4
4.560983552E0,5.344913807E-4,-6.108472589E-4,-1.679830020E-3
4.563409541E0,1.145338640E-3,-6.108472589E-4,1.527118147E-4
4.565835531E0,-1.298050396E-3,-6.108472589E-4,1.374406274E-3
4.568261520E0,-7.635590737E-5,1.221694518E-3,1.374406274E-3
4.570687458E0,-6.872031372E-4,6.108472589E-4,1.374406274E-3
4.573113447E0,5.344913807E-4,6.108472589E-4,7.635590737E-4
4.575539437E0,-6.872031372E-4,-0.000000000E0,7.635590737E-4
4.577965427E0,-7.635590737E-5,-0.000000000E0,1.527118147E-4
4.580391416E0,5.344913807E-4,1.221694518E-3,-1.068982761E-3
4.582817354E0,-6.872031372E-4,6.108472589E-4,-4.581354442E-4
4.585243343E0,-6.872031372E-4,6.108472589E-4,1.527118147E-4
4.587669333E0,-7.635590737E-5,0.000000000E0,-4.581354442E-4
4.590095322E0,5.344913807E-4,6.108472589E-4,-4.581354442E-4
4.592521260E0,-7.635590737E-5,6.108472589E-4,-4.581354442E-4
4.594947249E0,-1.908897655E-3,6.108472589E-4,1.527118147E-4
4.597373239E0,-6.872031372E-4,6.108472589E-4,7.635590737E-4
4.599799229E0,-6.872031372E-4,6.108472589E-4,1.527118147E-4
4.602225218E0,5.344913807E-4,-1.221694518E-3,1.527118147E-4
4.604651156E0,1.145338640E-3,-6.108472589E-4,1.527118147E-4
4.607077145E0,-7.635590737E-5,0.000000000E0,1.527118147E-4
4.609503135E0,-1.298050396E-3,0.000000000E0,1.527118147E-4
4.611929124E0,-7.635590737E-5,6.108472589E-4,1.527118147E-4
4.614355114E0,-1.298050396E-3,6.108472589E-4,-1.068982761E-3
4.616781052E0,-7.635590737E-5,1.832541777E-3,7.635590737E-4
4.619207041E0,5.344913807E-4,6.108472589E-4,1.527118147E-4
4.621633031E0,-7.635590737E-5,0.000000000E0,7.635590737E-4
4.624059020E0,-7.635590737E-5,0.000000000E0,1.527118147E-4
4.626485010E0,-7.635590737E-5,6.108472589E-4,-4.581354442E-4
4.628910947E0,-6.872031372E-4,-6.108472589E-4,1.527118147E-4
4.631336937E0,-7.635590737E-5,0.000000000E0,7.635590737E-4
4.633762927E0,-6.872031372E-4,-6.108472589E-4,1.985253533E-3
4.636188916E0,-6.872031372E-4,0.000000000E0,1.374406274E-3
4.638614906E0,-6.872031372E-4,6.108472589E-4,1.527118147E-4
4.641040843E0,5.344913807E-4,0.000000000E0,1.527118147E-4
4.643466833E0,5.344913807E-4,6.108472589E-4,1.527118147E-4
4.645892822E0,6.108472589E-4,-6.108472589E-4,1.527118147E-4
4.648318812E0,-6.108472589E-4,-6.108472589E-4,1.374406274E-3
4.650744802E0,6.108472589E-4,1.221694518E-3,-1.068982761E-3
4.653170739E0,-0.000000000E0,0.000000000E0,7.635590737E-4
4.655596729E0,-6.108472589E-4,-6.108472589E-4,1.527118147E-4
4.658022718E0,-1.221694518E-3,-6.108472589E-4,-4.581354442E-4
4.660448708E0,-0.000000000E0,-1.221694518E-3,-1.068982761E-3
4.662874645E0,1.221694518E-3,-6.108472589E-4,-4.581354442E-4
4.665300635E0,-0.000000000E0,0.000000000E0,-4.581354442E-4
4.667726624E0,-1.221694518E-3,-6.108472589E-4,-1.068982761E-3
4.670152614E0,-1.221694518E-3,-1.832541777E-3,1.527118147E-4
4.672578604E0,-6.108472589E-4,0.000000000E0,1.374406274E-3
4.675004541E0,-6.108472589E-4,1.221694518E-3,7.635590737E-4
4.677430531E0,6.108472589E-4,1.221694518E-3,-1.145338640E-3
4.679856520E0,6.108472589E-4,6.108472589E-4,7.635590737E-5
4.682282510E0,6.108472589E-4,-1.221694518E-3,7.635590737E-5
4.684708447E0,6.108472589E-4,0.000000000E0,6.872031372E-4
4.687134437E0,-6.108472589E-4,0.000000000E0,1.298050396E-3
4.689560427E0,-0.000000000E0,-6.108472589E-4,6.872031372E-4
4.691986416E0,-0.000000000E0,-6.108472589E-4,-1.756185899E-3
4.694412406E0,-6.108472589E-4,-6.108472589E-4,6.872031372E-4
4.696838395E0,-0.000000000E0,0.000000000E0,2.519744914E-3
4.699264333E0,-6.108472589E-4,0.000000000E0,7.635590737E-5
4.701690322E0,6.108472589E-4,-6.108472589E-4,6.872031372E-4
4.704116312E0,6.108472589E-4,0.000000000E0,6.872031372E-4
4.706542302E0,6.108472589E-4,-6.108472589E-4,-5.344913807E-4
4.708968239E0,-0.000000000E0,0.000000000E0,-1.145338640E-3
4.711394229E0,-0.000000000E0,6.108472589E-4,-1.145338640E-3
4.713820218E0,6.108472589E-4,1.832541777E-3,7.635590737E-5
4.716246208E0,0.000000000E0,-6.108472589E-4,-5.344913807E-4
4.718672197E0,0.000000000E0,-6.108472589E-4,-1.145338640E-3
4.721098135E0,0.000000000E0,0.000000000E0,-5.344913807E-4
4.723524124E0,0.000000000E0,6.108472589E-4,7.635590737E-5
4.725950114E0,6.108472589E-4,-6.108472589E-4,7.635590737E-5
4.728376104E0,0.000000000E0,6.108472589E-4,6.872031372E-4
4.730802041E0,-6.108472589E-4,6.108472589E-4,6.872031372E-4
4.733228031E0,6.108472589E-4,-6.108472589E-4,7.635590737E-5
4.735654020E0,0.000000000E0,1.221694518E-3,7.635590737E-5
4.738080010E0,6.108472589E-4,-6.108472589E-4,-2.367033157E-3
4.740505999E0,6.108472589E-4,-1.221694518E-3,-1.145338640E-3
4.742931937E0,0.000000000E0,-6.108472589E-4,-1.756185899E-3
4.745357927E0,6.108472589E-4,0.000000000E0,6.872031372E-4
4.747783916E0,-6.108472589E-4,-6.108472589E-4,7.635590737E-5
4.750209906E0,0.000000000E0,0.000000000E0,6.872031372E-4
4.752635895E0,6.108472589E-4,-6.108472589E-4,-1.145338640E-3
4.755061833E0,0.000000000E0,6.108472589E-4,1.298050396E-3
4.757487822E0,-6.108472589E-4,0.000000000E0,-5.344913807E-4
4.759913812E0,-1.221694518E-3,0.000000000E0,-1.756185899E-3
4.762339802E0,0.000000000E0,1.221694518E-3,6.872031372E-4
4.764765791E0,6.108472589E-4,-6.108472589E-4,7.635590737E-5
4.767191729E0,-6.108472589E-4,1.221694518E-3,7.635590737E-5
4.769617718E0,0.000000000E0,0.000000000E0,6.872031372E-4
4.772043708E0,1.221694518E-3,-6.108472589E-4,6.872031372E-4
4.774469697E0,1.832541777E-3,1.832541777E-3,7.635590737E-5
4.776895635E0,0.000000000E0,-6.108472589E-4,6.872031372E-4
4.779321624E0,0.000000000E0,6.108472589E-4,-1.756185899E-3
4.781747614E0,-6.108472589E-4,6.108472589E-4,6.872031372E-4
4.784173604E0,0.000000000E0,-1.832541777E-3,6.872031372E-4
4.786599593E0,0.000000000E0,-6.108472589E-4,7.635590737E-5
4.789025531E0,1.221694518E-3,0.000000000E0,-5.344913807E-4
4.791451520E0,0.000000000E0,0.000000000E0,7.635590737E-5
4.793877510E0,-1.832541777E-3,6.108472589E-4,6.872031372E-4
4.796303499E0,6.108472589E-4,0.000000000E0,7.635590737E-5
4.798729437E0,1.221694518E-3,-1.221694518E-3,7.635590737E-5
4.801155427E0,0.000000000E0,0.000000000E0,-5.344913807E-4
4.803581416E0,-6.108472589E-4,-6.108472589E-4,7.635590737E-5
4.806007406E0,-6.108472589E-4,-6.108472589E-4,-5.344913807E-4
4.808433395E0,0.000000000E0,0.000000000E0,6.872031372E-4
4.810859385E0,6.108472589E-4,0.000000000E0,1.298050396E-3
4.813285322E0,0.000000000E0,-1.221694518E-3,-5.344913807E-4
4.815711312E0,0.000000000E0,-6.108472589E-4,7.635590737E-5
4.818137302E0,0.000000000E0,0.000000000E0,7.635590737E-5
4.820563291E0,-6.108472589E-4,0.000000000E0,1.298050396E-3
4.822989229E0,6.108472589E-4,-6.108472589E-4,7.635590737E-5
4.825415218E0,6.108472589E-4,1.221694518E-3,-5.344913807E-4
4.827841208E0,0.000000000E0,-1.221694518E-3,7.635590737E-5
4.830267197E0,0.000000000E0,0.000000000E0,6.872031372E-4
4.832693187E0,0.000000000E0,-6.108472589E-4,-5.344913807E-4
4.835119124E0,-6.108472589E-4,-6.108472589E-4,6.872031372E-4
4.837545114E0,-1.221694518E-3,0.000000000E0,6.872031372E-4
4.839971104E0,0.000000000E0,6.108472589E-4,7.635590737E-5
4.842397093E0,6.108472589E-4,1.221694518E-3,6.872031372E-4
4.844823083E0,0.000000000E0,0.000000000E0,7.635590737E-5
4.847249020E0,0.000000000E0,-1.221694518E-3,1.298050396E-3
4.849675010E0,1.832541777E-3,-6.108472589E-4,7.635590737E-5
4.852100999E0,1.221694518E-3,-1.221694518E-3,-5.344913807E-4
4.854526989E0,1.221694518E-3,-1.221694518E-3,1.298050396E-3
4.856952979E0,0.000000000E0,-6.108472589E-4,1.298050396E-3
4.859378916E0,6.108472589E-4,-6.108472589E-4,-1.145338640E-3
4.861804906E0,6.108472589E-4,-6.108472589E-4,-5.344913807E-4
4.864230895E0,6.108472589E-4,1.221694518E-3,-5.344913807E-4
4.866656885E0,6.108472589E-4,0.000000000E0,-5.344913807E-4
4.869082822E0,0.000000000E0,-6.108472589E-4,-1.145338640E-3
4.871508812E0,-1.221694518E-3,-1.221694518E-3,-1.145338640E-3
4.873934802E0,0.000000000E0,-6.108472589E-4,-5.344913807E-4
4.876360791E0,0.000000000E0,6.108472589E-4,7.635590737E-5
4.878786781E0,0.000000000E0,-6.108472589E-4,-5.344913807E-4
4.881212718E0,-6.108472589E-4,1.221694518E-3,-5.344913807E-4
4.883638708E0,0.000000000E0,6.108472589E-4,-5.344913807E-4
4.886064697E0,-6.108472589E-4,2.443389036E-3,6.872031372E-4
4.888490687E0,1.221694518E-3,-6.108472589E-4,-5.344913807E-4
4.890916677E0,6.108472589E-4,-1.832541777E-3,7.635590737E-5
