"Time (s)","Acceleration x (m/s^2)","Acceleration y (m/s^2)","Acceleration z (m/s^2)"
2.700677500E-2,-2.027917206E-1,-1.531406492E-1,1.022303581E1
2.943229600E-2,-2.123630047E-1,-1.292124242E-1,1.016560745E1
3.185745200E-2,-2.243271172E-1,-1.268195957E-1,1.007468033E1
3.428250400E-2,-2.123630047E-1,-1.220339537E-1,9.990931511E0
3.670818100E-2,-2.219343036E-1,-1.339980662E-1,9.933504105E0
3.913333800E-2,-2.171486616E-1,-1.124626622E-1,9.813862801E0
4.155818100E-2,-2.219343036E-1,-1.004985496E-1,9.734899521E0
4.398312900E-2,-2.075773627E-1,-1.076770201E-1,9.686744690E0
4.640818100E-2,-2.291127741E-1,-1.028913707E-1,9.636494637E0
4.883323300E-2,-2.075773627E-1,-9.810572863E-2,9.638887405E0
5.125828600E-2,-2.291127741E-1,-9.810572863E-2,9.653244972E0
5.368333800E-2,-2.219343036E-1,-1.052841991E-1,9.669994354E0
5.610849400E-2,-2.219343036E-1,-1.052841991E-1,9.669994354E0
5.853354600E-2,-2.315055877E-1,-1.052841991E-1,9.761220932E0
6.100760800E-2,-2.195414752E-1,-1.244267747E-1,9.804291725E0
6.348146300E-2,-2.530409992E-1,-1.124626622E-1,9.825826645E0
6.591203600E-2,-2.530409992E-1,-1.124626622E-1,9.878469467E0
6.833740000E-2,-2.626122832E-1,-1.004985496E-1,9.892826080E0
7.076297300E-2,-2.410768867E-1,-9.571290761E-2,9.926325798E0
7.318849400E-2,-2.410768867E-1,-1.244267747E-1,9.947860718E0
7.561401500E-2,-2.338984162E-1,-1.148554832E-1,9.955039978E0
7.803964000E-2,-2.338984162E-1,-1.052841991E-1,9.943075180E0
8.046531700E-2,-2.315055877E-1,-1.052841991E-1,9.911968231E0
8.289109800E-2,-2.434697002E-1,-1.004985496E-1,9.950253487E0
8.531698300E-2,-2.410768867E-1,-1.244267747E-1,9.943075180E0
8.774526500E-2,-2.578266263E-1,-1.292124242E-1,9.935896873E0
9.016885800E-2,-2.338984162E-1,-1.100698411E-1,9.919147491E0
9.259479600E-2,-2.099701911E-1,-9.332008660E-2,9.876076698E0
9.502073300E-2,-2.267199457E-1,-1.268195957E-1,9.871291161E0
9.744667100E-2,-2.458625287E-1,-1.124626622E-1,9.844969749E0
9.987255600E-2,-2.267199457E-1,-9.571290761E-2,9.816255569E0
1.022984940E-1,-2.219343036E-1,-1.172483116E-1,9.823433876E0
1.047244310E-1,-2.410768867E-1,-1.100698411E-1,9.821041107E0
1.071503690E-1,-2.434697002E-1,-1.004985496E-1,9.816255569E0
1.095763060E-1,-2.267199457E-1,-1.292124242E-1,9.806684494E0
1.120022440E-1,-2.219343036E-1,-1.172483116E-1,9.792327881E0
1.144281810E-1,-2.338984162E-1,-1.268195957E-1,9.828220367E0
1.168541190E-1,-2.315055877E-1,-1.076770201E-1,9.842576981E0
1.192800560E-1,-2.243271172E-1,-1.339980662E-1,9.864111900E0
1.217059940E-1,-2.482553422E-1,-9.571290761E-2,9.885647774E0
1.241319310E-1,-2.362912297E-1,-1.172483116E-1,9.895218849E0
1.265578690E-1,-2.530409992E-1,-1.220339537E-1,9.904789925E0
1.289838060E-1,-2.147558331E-1,-1.148554832E-1,9.914361954E0
1.314097440E-1,-2.315055877E-1,-1.124626622E-1,9.900004387E0
1.338356810E-1,-2.243271172E-1,-1.124626622E-1,9.885647774E0
1.362616190E-1,-2.099701911E-1,-1.339980662E-1,9.873683929E0
1.386875040E-1,-2.027917206E-1,-9.810572863E-2,9.859326363E0
1.411134420E-1,-2.147558331E-1,-1.052841991E-1,9.864111900E0
1.435393790E-1,-2.362912297E-1,-1.196411327E-1,9.866504669E0
1.459653170E-1,-2.243271172E-1,-1.052841991E-1,9.852148056E0
1.483912540E-1,-2.315055877E-1,-8.614161611E-2,9.842576981E0
1.508171920E-1,-2.171486616E-1,-9.571290761E-2,9.847362518E0
1.532431290E-1,-2.195414752E-1,-1.172483116E-1,9.859326363E0
1.556690670E-1,-2.410768867E-1,-9.571290761E-2,9.868897438E0
1.580950040E-1,-2.171486616E-1,-1.100698411E-1,9.876076698E0
1.605209420E-1,-2.195414752E-1,-1.004985496E-1,9.923933029E0
1.629468790E-1,-2.003988922E-1,-1.196411327E-1,9.876076698E0
1.653728170E-1,-2.338984162E-1,-1.124626622E-1,9.902397156E0
1.677987540E-1,-2.243271172E-1,-1.004985496E-1,9.866504669E0
1.702246920E-1,-2.362912297E-1,-1.028913707E-1,9.871291161E0
1.726506290E-1,-2.291127741E-1,-1.028913707E-1,9.849755287E0
1.750765670E-1,-2.386840582E-1,-1.196411327E-1,9.854540825E0
1.775025040E-1,-2.171486616E-1,-1.124626622E-1,9.852148056E0
1.799283900E-1,-2.386840582E-1,-1.052841991E-1,9.852148056E0
1.823543270E-1,-2.482553422E-1,-1.028913707E-1,9.849755287E0
1.847802650E-1,-2.386840582E-1,-1.076770201E-1,9.852148056E0
1.872062020E-1,-2.219343036E-1,-9.571290761E-2,9.856933594E0
1.896321400E-1,-2.506481707E-1,-1.076770201E-1,9.890433311E0
1.920580770E-1,-2.315055877E-1,-1.244267747E-1,9.883255005E0
1.944840150E-1,-2.315055877E-1,-1.196411327E-1,9.897611618E0
1.969099520E-1,-2.219343036E-1,-8.853443712E-2,9.897611618E0
1.993358900E-1,-2.482553422E-1,-1.124626622E-1,9.890433311E0
2.017618270E-1,-2.338984162E-1,-1.172483116E-1,9.883255005E0
2.041877650E-1,-2.338984162E-1,-1.268195957E-1,9.876076698E0
2.066137020E-1,-2.458625287E-1,-1.268195957E-1,9.864111900E0
2.090396400E-1,-2.291127741E-1,-9.810572863E-2,9.883255005E0
2.114655770E-1,-2.099701911E-1,-1.148554832E-1,9.868897438E0
2.138915150E-1,-2.195414752E-1,-1.004985496E-1,9.878469467E0
2.163174520E-1,-2.315055877E-1,-1.172483116E-1,9.859326363E0
2.187433900E-1,-2.434697002E-1,-7.896314561E-2,9.876076698E0
2.211692750E-1,-2.458625287E-1,-8.614161611E-2,9.864111900E0
2.235952130E-1,-2.386840582E-1,-1.004985496E-1,9.859326363E0
2.260211500E-1,-2.578266263E-1,-1.268195957E-1,9.864111900E0
2.284470880E-1,-2.315055877E-1,-1.148554832E-1,9.876076698E0
2.308730250E-1,-2.291127741E-1,-1.028913707E-1,9.880862236E0
2.332989630E-1,-2.099701911E-1,-1.196411327E-1,9.866504669E0
2.357249000E-1,-2.338984162E-1,-1.292124242E-1,9.871291161E0
2.381508380E-1,-2.195414752E-1,-1.244267747E-1,9.900004387E0
2.405767750E-1,-2.219343036E-1,-1.028913707E-1,9.864111900E0
2.430027130E-1,-2.291127741E-1,-1.220339537E-1,9.871291161E0
2.454286500E-1,-2.315055877E-1,-1.196411327E-1,9.871291161E0
2.478545880E-1,-2.291127741E-1,-1.148554832E-1,9.864111900E0
2.502805250E-1,-2.219343036E-1,-1.148554832E-1,9.868897438E0
2.527064630E-1,-2.362912297E-1,-1.124626622E-1,9.878469467E0
2.551324000E-1,-2.362912297E-1,-1.004985496E-1,9.885647774E0
2.575583380E-1,-2.482553422E-1,-1.148554832E-1,9.873683929E0
2.599842750E-1,-2.338984162E-1,-1.100698411E-1,9.883255005E0
2.624102130E-1,-2.219343036E-1,-1.100698411E-1,9.883255005E0
2.648360980E-1,-2.171486616E-1,-9.571290761E-2,9.883255005E0
2.672620360E-1,-2.171486616E-1,-1.100698411E-1,9.871291161E0
2.696879730E-1,-2.482553422E-1,-1.268195957E-1,9.900004387E0
2.721139110E-1,-2.458625287E-1,-1.148554832E-1,9.871291161E0
2.745398480E-1,-2.434697002E-1,-1.196411327E-1,9.878469467E0
2.769657860E-1,-2.291127741E-1,-1.004985496E-1,9.864111900E0
2.793917230E-1,-2.315055877E-1,-1.076770201E-1,9.888040543E0
2.818176610E-1,-2.410768867E-1,-1.148554832E-1,9.856933594E0
2.842435980E-1,-2.267199457E-1,-1.316052526E-1,9.878469467E0
2.866695360E-1,-2.291127741E-1,-1.244267747E-1,9.873683929E0
2.890954730E-1,-2.267199457E-1,-1.220339537E-1,9.885647774E0
2.915214110E-1,-2.291127741E-1,-1.004985496E-1,9.878469467E0
2.939473480E-1,-2.219343036E-1,-1.244267747E-1,9.868897438E0
2.963732860E-1,-2.291127741E-1,-1.172483116E-1,9.880862236E0
2.987992230E-1,-2.291127741E-1,-1.052841991E-1,9.866504669E0
3.012251610E-1,-2.338984162E-1,-1.076770201E-1,9.864111900E0
3.036510980E-1,-2.123630047E-1,-1.148554832E-1,9.890433311E0
3.060770360E-1,-2.386840582E-1,-9.332008660E-2,9.866504669E0
3.085029210E-1,-2.315055877E-1,-9.571290761E-2,9.880862236E0
3.109289110E-1,-2.338984162E-1,-9.810572863E-2,9.856933594E0
3.133547960E-1,-2.410768867E-1,-1.052841991E-1,9.876076698E0
3.157807330E-1,-2.315055877E-1,-1.268195957E-1,9.871291161E0
3.182066710E-1,-2.338984162E-1,-1.220339537E-1,9.890433311E0
3.206326080E-1,-2.386840582E-1,-1.124626622E-1,9.876076698E0
3.230585460E-1,-2.362912297E-1,-1.076770201E-1,9.883255005E0
3.254844830E-1,-2.219343036E-1,-1.100698411E-1,9.873683929E0
3.279104210E-1,-2.315055877E-1,-1.148554832E-1,9.883255005E0
3.303363580E-1,-2.171486616E-1,-1.076770201E-1,9.876076698E0
3.327622960E-1,-2.458625287E-1,-9.810572863E-2,9.883255005E0
3.351882330E-1,-2.338984162E-1,-1.196411327E-1,9.880862236E0
3.376141710E-1,-2.243271172E-1,-1.052841991E-1,9.868897438E0
3.400401080E-1,-2.362912297E-1,-9.810572863E-2,9.868897438E0
3.424660460E-1,-2.243271172E-1,-1.172483116E-1,9.866504669E0
3.448919830E-1,-2.386840582E-1,-1.196411327E-1,9.873683929E0
3.473179210E-1,-2.123630047E-1,-1.124626622E-1,9.871291161E0
3.497438580E-1,-2.243271172E-1,-1.100698411E-1,9.873683929E0
3.521697960E-1,-2.243271172E-1,-9.571290761E-2,9.876076698E0
3.545957330E-1,-2.530409992E-1,-1.100698411E-1,9.878469467E0
3.570216710E-1,-2.410768867E-1,-1.076770201E-1,9.876076698E0
3.594476080E-1,-2.434697002E-1,-1.028913707E-1,9.888040543E0
3.618735460E-1,-2.075773627E-1,-1.076770201E-1,9.871291161E0
3.642994310E-1,-2.267199457E-1,-9.092725813E-2,9.861719131E0
3.667253690E-1,-2.243271172E-1,-1.124626622E-1,9.878469467E0
3.691513060E-1,-2.291127741E-1,-1.052841991E-1,9.900004387E0
3.715772440E-1,-2.362912297E-1,-1.172483116E-1,9.876076698E0
3.740031810E-1,-2.554338276E-1,-1.220339537E-1,9.868897438E0
3.764291190E-1,-2.386840582E-1,-1.100698411E-1,9.866504669E0
3.788550560E-1,-2.386840582E-1,-1.387837082E-1,9.864111900E0
3.812809940E-1,-2.315055877E-1,-1.196411327E-1,9.876076698E0
3.837069310E-1,-2.434697002E-1,-1.004985496E-1,9.859326363E0
3.861328690E-1,-2.243271172E-1,-1.100698411E-1,9.861719131E0
3.885588060E-1,-2.410768867E-1,-7.657032460E-2,9.856933594E0
3.909847440E-1,-2.315055877E-1,-8.853443712E-2,9.837791443E0
3.934106810E-1,-2.650051117E-1,-1.292124242E-1,9.866504669E0
3.958366190E-1,-2.195414752E-1,-1.124626622E-1,9.878469467E0
3.982625560E-1,-2.315055877E-1,-9.571290761E-2,9.885647774E0
4.006884940E-1,-2.482553422E-1,-1.028913707E-1,9.892826080E0
4.031144310E-1,-2.410768867E-1,-1.172483116E-1,9.880862236E0
4.055403690E-1,-2.243271172E-1,-1.076770201E-1,9.871291161E0
4.079663060E-1,-2.434697002E-1,-1.004985496E-1,9.876076698E0
4.103922440E-1,-2.195414752E-1,-1.124626622E-1,9.833005905E0
4.128181810E-1,-2.386840582E-1,-9.810572863E-2,9.847362518E0
4.152441190E-1,-2.315055877E-1,-1.076770201E-1,9.840184212E0
4.176700040E-1,-2.267199457E-1,-1.004985496E-1,9.880862236E0
4.200959420E-1,-2.267199457E-1,-9.571290761E-2,9.864111900E0
4.225218790E-1,-2.410768867E-1,-1.028913707E-1,9.856933594E0
4.249478170E-1,-2.386840582E-1,-1.196411327E-1,9.856933594E0
4.273737540E-1,-2.410768867E-1,-9.092725813E-2,9.883255005E0
4.297996920E-1,-2.171486616E-1,-1.220339537E-1,9.885647774E0
4.322256290E-1,-2.147558331E-1,-9.571290761E-2,9.883255005E0
4.346515670E-1,-2.410768867E-1,-1.052841991E-1,9.890433311E0
4.370775040E-1,-2.291127741E-1,-1.220339537E-1,9.861719131E0
4.395034420E-1,-2.171486616E-1,-1.172483116E-1,9.878469467E0
4.419293790E-1,-2.434697002E-1,-1.004985496E-1,9.864111900E0
4.443553170E-1,-2.099701911E-1,-1.220339537E-1,9.864111900E0
4.467812540E-1,-2.315055877E-1,-1.100698411E-1,9.871291161E0
4.492071920E-1,-2.338984162E-1,-1.100698411E-1,9.878469467E0
4.516331290E-1,-2.362912297E-1,-1.004985496E-1,9.849755287E0
4.540590670E-1,-2.458625287E-1,-1.124626622E-1,9.864111900E0
4.564850040E-1,-2.506481707E-1,-1.268195957E-1,9.868897438E0
4.589109420E-1,-2.315055877E-1,-1.148554832E-1,9.868897438E0
4.613368790E-1,-2.482553422E-1,-1.028913707E-1,9.868897438E0
4.637628170E-1,-2.195414752E-1,-1.076770201E-1,9.871291161E0
4.661887540E-1,-2.434697002E-1,-1.172483116E-1,9.897611618E0
4.686146920E-1,-2.338984162E-1,-1.076770201E-1,9.864111900E0
4.710406290E-1,-2.482553422E-1,-1.148554832E-1,9.871291161E0
4.734665150E-1,-2.554338276E-1,-9.332008660E-2,9.864111900E0
4.758925040E-1,-2.219343036E-1,-1.076770201E-1,9.883255005E0
4.783183900E-1,-2.291127741E-1,-1.100698411E-1,9.880862236E0
4.807443270E-1,-2.338984162E-1,-1.004985496E-1,9.868897438E0
4.831702650E-1,-2.267199457E-1,-1.196411327E-1,9.880862236E0
4.855962020E-1,-2.123630047E-1,-1.100698411E-1,9.880862236E0
4.880221400E-1,-2.267199457E-1,-9.810572863E-2,9.868897438E0
4.904480770E-1,-2.482553422E-1,-1.172483116E-1,9.888040543E0
4.928740150E-1,-2.291127741E-1,-1.148554832E-1,9.890433311E0
4.952999520E-1,-2.362912297E-1,-1.172483116E-1,9.878469467E0
4.977258900E-1,-2.338984162E-1,-1.196411327E-1,9.878469467E0
5.001518270E-1,-2.171486616E-1,-8.374879509E-2,9.878469467E0
5.025777650E-1,-2.315055877E-1,-9.810572863E-2,9.880862236E0
5.050037020E-1,-2.147558331E-1,-1.028913707E-1,9.878469467E0
5.074296400E-1,-2.578266263E-1,-1.028913707E-1,9.878469467E0
5.098555770E-1,-2.554338276E-1,-1.268195957E-1,9.864111900E0
5.122815150E-1,-2.410768867E-1,-1.004985496E-1,9.868897438E0
5.147074520E-1,-2.267199457E-1,-1.004985496E-1,9.880862236E0
5.171333900E-1,-2.458625287E-1,-1.100698411E-1,9.876076698E0
5.195593270E-1,-2.386840582E-1,-7.657032460E-2,9.854540825E0
5.219852650E-1,-2.458625287E-1,-1.052841991E-1,9.871291161E0
5.244112020E-1,-2.362912297E-1,-8.614161611E-2,9.883255005E0
5.268371400E-1,-2.362912297E-1,-9.810572863E-2,9.888040543E0
5.292630770E-1,-2.362912297E-1,-1.028913707E-1,9.885647774E0
5.316890150E-1,-2.386840582E-1,-1.076770201E-1,9.885647774E0
5.341149520E-1,-2.219343036E-1,-9.571290761E-2,9.873683929E0
5.365408900E-1,-2.434697002E-1,-1.076770201E-1,9.878469467E0
5.389668270E-1,-2.219343036E-1,-1.124626622E-1,9.888040543E0
5.413927650E-1,-2.362912297E-1,-1.172483116E-1,9.876076698E0
5.438187020E-1,-2.099701911E-1,-1.028913707E-1,9.868897438E0
5.462446400E-1,-2.434697002E-1,-1.244267747E-1,9.864111900E0
5.486705250E-1,-2.386840582E-1,-1.220339537E-1,9.880862236E0
5.510964630E-1,-2.386840582E-1,-1.172483116E-1,9.849755287E0
5.535224000E-1,-2.219343036E-1,-1.148554832E-1,9.878469467E0
5.559483380E-1,-2.123630047E-1,-1.124626622E-1,9.878469467E0
5.583742750E-1,-2.506481707E-1,-1.124626622E-1,9.880862236E0
5.608002130E-1,-2.410768867E-1,-1.124626622E-1,9.876076698E0
5.632261500E-1,-2.458625287E-1,-1.124626622E-1,9.880862236E0
5.656520880E-1,-2.291127741E-1,-1.124626622E-1,9.866504669E0
5.680780250E-1,-2.410768867E-1,-1.076770201E-1,9.880862236E0
5.705039630E-1,-2.458625287E-1,-1.124626622E-1,9.859326363E0
5.729299000E-1,-2.458625287E-1,-1.124626622E-1,9.883255005E0
5.753558380E-1,-2.410768867E-1,-1.100698411E-1,9.873683929E0
5.777817750E-1,-2.315055877E-1,-1.100698411E-1,9.873683929E0
5.802077130E-1,-2.267199457E-1,-9.571290761E-2,9.871291161E0
5.826336500E-1,-2.362912297E-1,-8.853443712E-2,9.864111900E0
5.850595880E-1,-2.315055877E-1,-1.244267747E-1,9.861719131E0
5.874855250E-1,-2.243271172E-1,-1.411765367E-1,9.859326363E0
5.899114630E-1,-2.123630047E-1,-1.100698411E-1,9.864111900E0
5.923374000E-1,-2.291127741E-1,-1.148554832E-1,9.876076698E0
5.947633380E-1,-2.219343036E-1,-8.374879509E-2,9.859326363E0
5.971892750E-1,-2.338984162E-1,-9.571290761E-2,9.852148056E0
5.996152130E-1,-2.315055877E-1,-1.076770201E-1,9.890433311E0
6.020411500E-1,-2.434697002E-1,-1.124626622E-1,9.888040543E0
6.044670880E-1,-2.410768867E-1,-9.332008660E-2,9.873683929E0
6.068930250E-1,-2.386840582E-1,-1.100698411E-1,9.878469467E0
6.093189630E-1,-2.386840582E-1,-1.148554832E-1,9.890433311E0
6.117448480E-1,-2.410768867E-1,-9.092725813E-2,9.885647774E0
6.141707860E-1,-2.386840582E-1,-1.172483116E-1,9.880862236E0
6.165967750E-1,-2.147558331E-1,-1.028913707E-1,9.888040543E0
6.190226610E-1,-2.267199457E-1,-1.339980662E-1,9.859326363E0
6.214486500E-1,-2.219343036E-1,-1.220339537E-1,9.880862236E0
6.238745360E-1,-2.386840582E-1,-1.076770201E-1,9.885647774E0
6.263004730E-1,-2.482553422E-1,-1.028913707E-1,9.878469467E0
6.287264110E-1,-2.554338276E-1,-9.092725813E-2,9.892826080E0
6.311523480E-1,-2.219343036E-1,-1.076770201E-1,9.885647774E0
6.335782860E-1,-2.147558331E-1,-1.292124242E-1,9.878469467E0
6.360042230E-1,-2.243271172E-1,-1.004985496E-1,9.892826080E0
6.384301610E-1,-2.195414752E-1,-1.172483116E-1,9.871291161E0
6.408560980E-1,-2.434697002E-1,-8.853443712E-2,9.861719131E0
6.432820360E-1,-2.410768867E-1,-1.052841991E-1,9.876076698E0
6.457079730E-1,-2.243271172E-1,-1.076770201E-1,9.871291161E0
6.481339110E-1,-2.362912297E-1,-1.076770201E-1,9.895218849E0
6.505598480E-1,-2.171486616E-1,-1.124626622E-1,9.883255005E0
6.529857860E-1,-2.338984162E-1,-1.052841991E-1,9.873683929E0
6.554117230E-1,-2.338984162E-1,-1.124626622E-1,9.880862236E0
6.578376610E-1,-2.075773627E-1,-1.100698411E-1,9.873683929E0
6.602635980E-1,-2.219343036E-1,-1.244267747E-1,9.878469467E0
6.626895360E-1,-2.506481707E-1,-1.363908947E-1,9.883255005E0
6.651154730E-1,-2.386840582E-1,-1.028913707E-1,9.876076698E0
6.675414110E-1,-2.291127741E-1,-8.135596663E-2,9.880862236E0
6.699673480E-1,-2.362912297E-1,-1.076770201E-1,9.885647774E0
6.723932860E-1,-2.482553422E-1,-1.100698411E-1,9.866504669E0
6.748192230E-1,-2.315055877E-1,-1.220339537E-1,9.876076698E0
6.772451610E-1,-2.123630047E-1,-1.148554832E-1,9.878469467E0
6.796710980E-1,-2.410768867E-1,-9.810572863E-2,9.854540825E0
6.820970360E-1,-2.362912297E-1,-1.124626622E-1,9.873683929E0
6.845229730E-1,-2.434697002E-1,-1.100698411E-1,9.888040543E0
6.869489110E-1,-2.506481707E-1,-1.076770201E-1,9.883255005E0
6.893748480E-1,-2.362912297E-1,-1.028913707E-1,9.897611618E0
6.918007330E-1,-2.626122832E-1,-1.076770201E-1,9.876076698E0
6.942266710E-1,-2.243271172E-1,-9.332008660E-2,9.866504669E0
6.966526610E-1,-2.338984162E-1,-1.052841991E-1,9.878469467E0
6.990785980E-1,-2.362912297E-1,-1.076770201E-1,9.871291161E0
7.015045360E-1,-2.147558331E-1,-1.148554832E-1,9.895218849E0
7.039304210E-1,-2.506481707E-1,-1.124626622E-1,9.849755287E0
7.063563580E-1,-2.626122832E-1,-1.268195957E-1,9.883255005E0
7.087822960E-1,-2.434697002E-1,-1.244267747E-1,9.907182693E0
7.112082330E-1,-2.171486616E-1,-1.220339537E-1,9.885647774E0
7.136341710E-1,-2.291127741E-1,-1.124626622E-1,9.864111900E0
7.160601080E-1,-2.267199457E-1,-1.148554832E-1,9.871291161E0
7.184860460E-1,-2.362912297E-1,-1.172483116E-1,9.871291161E0
7.209119830E-1,-2.530409992E-1,-1.220339537E-1,9.880862236E0
7.233379210E-1,-2.386840582E-1,-1.028913707E-1,9.873683929E0
7.257638580E-1,-2.338984162E-1,-1.148554832E-1,9.888040543E0
7.281897960E-1,-2.338984162E-1,-1.148554832E-1,9.888040543E0
7.306157330E-1,-2.315055877E-1,-9.092725813E-2,9.871291161E0
7.330416710E-1,-2.171486616E-1,-9.810572863E-2,9.866504669E0
7.354676080E-1,-2.099701911E-1,-1.052841991E-1,9.880862236E0
7.378935460E-1,-2.195414752E-1,-8.853443712E-2,9.878469467E0
7.403194830E-1,-2.410768867E-1,-8.614161611E-2,9.895218849E0
7.427454210E-1,-2.434697002E-1,-1.076770201E-1,9.864111900E0
7.451713580E-1,-2.243271172E-1,-1.124626622E-1,9.878469467E0
7.475972960E-1,-2.147558331E-1,-1.028913707E-1,9.885647774E0
7.500232330E-1,-2.267199457E-1,-1.052841991E-1,9.880862236E0
7.524491710E-1,-2.338984162E-1,-9.810572863E-2,9.904789925E0
7.548751080E-1,-2.195414752E-1,-1.148554832E-1,9.885647774E0
7.573010460E-1,-2.338984162E-1,-1.292124242E-1,9.900004387E0
7.597269830E-1,-2.195414752E-1,-1.004985496E-1,9.902397156E0
7.621529210E-1,-2.291127741E-1,-1.052841991E-1,9.876076698E0
7.645788580E-1,-2.195414752E-1,-1.196411327E-1,9.900004387E0
7.670047960E-1,-2.554338276E-1,-1.148554832E-1,9.892826080E0
7.694307330E-1,-2.338984162E-1,-1.028913707E-1,9.890433311E0
7.718566710E-1,-2.386840582E-1,-9.571290761E-2,9.885647774E0
7.742826080E-1,-2.267199457E-1,-1.220339537E-1,9.866504669E0
7.767085460E-1,-2.291127741E-1,-1.076770201E-1,9.866504669E0
7.791344830E-1,-2.410768867E-1,-1.076770201E-1,9.866504669E0
7.815604210E-1,-2.362912297E-1,-1.076770201E-1,9.888040543E0
7.839863580E-1,-2.386840582E-1,-1.196411327E-1,9.878469467E0
7.864122960E-1,-2.554338276E-1,-1.268195957E-1,9.876076698E0
7.888382330E-1,-2.386840582E-1,-1.076770201E-1,9.871291161E0
7.912641190E-1,-2.482553422E-1,-1.172483116E-1,9.885647774E0
7.936901080E-1,-2.315055877E-1,-1.172483116E-1,9.880862236E0
7.961159940E-1,-2.338984162E-1,-1.220339537E-1,9.868897438E0
7.985419310E-1,-2.315055877E-1,-9.810572863E-2,9.868897438E0
8.009678690E-1,-2.530409992E-1,-9.571290761E-2,9.878469467E0
8.033938060E-1,-2.291127741E-1,-1.316052526E-1,9.880862236E0
8.058197440E-1,-2.530409992E-1,-1.339980662E-1,9.878469467E0
8.082456810E-1,-2.482553422E-1,-1.172483116E-1,9.883255005E0
8.106716190E-1,-2.315055877E-1,-1.124626622E-1,9.895218849E0
8.130975560E-1,-2.171486616E-1,-1.076770201E-1,9.873683929E0
8.155234940E-1,-2.219343036E-1,-1.148554832E-1,9.880862236E0
8.179494310E-1,-2.267199457E-1,-1.196411327E-1,9.888040543E0
8.203753690E-1,-2.267199457E-1,-1.316052526E-1,9.895218849E0
8.228013060E-1,-2.506481707E-1,-1.076770201E-1,9.861719131E0
8.252272440E-1,-2.482553422E-1,-1.172483116E-1,9.885647774E0
8.276531810E-1,-2.075773627E-1,-1.148554832E-1,9.871291161E0
8.300791190E-1,-2.434697002E-1,-1.148554832E-1,9.861719131E0
8.325050560E-1,-2.386840582E-1,-1.124626622E-1,9.892826080E0
8.349309940E-1,-2.410768867E-1,-8.853443712E-2,9.885647774E0
8.373569310E-1,-2.362912297E-1,-1.052841991E-1,9.883255005E0
8.397828690E-1,-2.410768867E-1,-1.004985496E-1,9.876076698E0
8.422088060E-1,-2.410768867E-1,-1.052841991E-1,9.880862236E0
8.446347440E-1,-2.338984162E-1,-9.571290761E-2,9.892826080E0
8.470606810E-1,-2.410768867E-1,-1.148554832E-1,9.890433311E0
8.494866190E-1,-2.554338276E-1,-1.268195957E-1,9.871291161E0
8.519125560E-1,-2.434697002E-1,-1.076770201E-1,9.868897438E0
8.543384940E-1,-2.673979402E-1,-1.196411327E-1,9.876076698E0
8.567644310E-1,-2.697907388E-1,-1.076770201E-1,9.871291161E0
8.591903690E-1,-2.434697002E-1,-1.100698411E-1,9.856933594E0
8.616163060E-1,-2.458625287E-1,-1.196411327E-1,9.878469467E0
8.640422440E-1,-2.291127741E-1,-1.339980662E-1,9.883255005E0
8.664681810E-1,-2.171486616E-1,-9.332008660E-2,9.878469467E0
8.688941190E-1,-2.171486616E-1,-1.100698411E-1,9.868897438E0
8.713200560E-1,-2.123630047E-1,-9.571290761E-2,9.871291161E0
8.737459940E-1,-2.434697002E-1,-1.004985496E-1,9.866504669E0
8.761719310E-1,-2.530409992E-1,-1.172483116E-1,9.895218849E0
8.785978690E-1,-2.530409992E-1,-1.100698411E-1,9.871291161E0
8.810238060E-1,-2.315055877E-1,-1.052841991E-1,9.883255005E0
8.834497440E-1,-2.506481707E-1,-1.172483116E-1,9.859326363E0
8.858756810E-1,-2.315055877E-1,-1.268195957E-1,9.883255005E0
8.883015670E-1,-2.482553422E-1,-9.810572863E-2,9.900004387E0
8.907275560E-1,-2.434697002E-1,-1.076770201E-1,9.900004387E0
8.931534940E-1,-2.171486616E-1,-1.148554832E-1,9.888040543E0
8.955793790E-1,-2.099701911E-1,-1.028913707E-1,9.871291161E0
8.980053170E-1,-2.243271172E-1,-1.292124242E-1,9.878469467E0
9.004312540E-1,-2.434697002E-1,-1.148554832E-1,9.864111900E0
9.028571920E-1,-2.410768867E-1,-1.004985496E-1,9.878469467E0
9.052831290E-1,-2.530409992E-1,-1.028913707E-1,9.890433311E0
9.077090670E-1,-2.482553422E-1,-8.135596663E-2,9.880862236E0
9.101350040E-1,-2.338984162E-1,-1.052841991E-1,9.871291161E0
9.125609420E-1,-2.219343036E-1,-1.004985496E-1,9.873683929E0
9.149868790E-1,-2.075773627E-1,-1.148554832E-1,9.883255005E0
9.174128170E-1,-2.338984162E-1,-1.172483116E-1,9.864111900E0
9.198387540E-1,-2.243271172E-1,-1.100698411E-1,9.847362518E0
9.222646920E-1,-2.482553422E-1,-1.052841991E-1,9.864111900E0
9.246906290E-1,-2.458625287E-1,-1.244267747E-1,9.871291161E0
9.271165670E-1,-2.195414752E-1,-1.268195957E-1,9.880862236E0
9.295425040E-1,-2.506481707E-1,-9.332008660E-2,9.883255005E0
9.319684420E-1,-2.410768867E-1,-1.339980662E-1,9.866504669E0
9.343943790E-1,-2.338984162E-1,-8.853443712E-2,9.880862236E0
9.368203170E-1,-2.410768867E-1,-1.052841991E-1,9.873683929E0
9.392462540E-1,-2.338984162E-1,-1.339980662E-1,9.880862236E0
9.416721920E-1,-2.171486616E-1,-1.268195957E-1,9.883255005E0
9.440981290E-1,-2.195414752E-1,-1.004985496E-1,9.895218849E0
9.465240670E-1,-2.315055877E-1,-9.092725813E-2,9.878469467E0
9.489500040E-1,-2.315055877E-1,-1.100698411E-1,9.878469467E0
9.513759420E-1,-2.338984162E-1,-1.124626622E-1,9.880862236E0
9.538018790E-1,-2.458625287E-1,-1.124626622E-1,9.864111900E0
9.562278170E-1,-2.099701911E-1,-1.244267747E-1,9.883255005E0
9.586537540E-1,-2.315055877E-1,-1.316052526E-1,9.873683929E0
9.610796920E-1,-2.147558331E-1,-1.244267747E-1,9.897611618E0
9.635056290E-1,-2.362912297E-1,-1.387837082E-1,9.890433311E0
9.659315670E-1,-2.195414752E-1,-1.148554832E-1,9.885647774E0
9.683575040E-1,-2.195414752E-1,-1.196411327E-1,9.895218849E0
9.707834420E-1,-2.386840582E-1,-1.028913707E-1,9.888040543E0
9.732093790E-1,-2.315055877E-1,-1.244267747E-1,9.878469467E0
9.756353170E-1,-2.315055877E-1,-9.571290761E-2,9.883255005E0
9.780612540E-1,-2.338984162E-1,-8.853443712E-2,9.878469467E0
9.804871920E-1,-2.291127741E-1,-1.004985496E-1,9.868897438E0
9.829131290E-1,-2.338984162E-1,-1.028913707E-1,9.871291161E0
9.853390670E-1,-2.386840582E-1,-1.052841991E-1,9.864111900E0
9.877650040E-1,-2.362912297E-1,-1.220339537E-1,9.876076698E0
9.901909420E-1,-2.219343036E-1,-1.244267747E-1,9.866504669E0
9.926168790E-1,-2.338984162E-1,-1.124626622E-1,9.864111900E0
9.950428170E-1,-2.602194548E-1,-1.196411327E-1,9.883255005E0
9.974687540E-1,-2.554338276E-1,-9.810572863E-2,9.864111900E0
9.998946920E-1,-2.530409992E-1,-9.810572863E-2,9.873683929E0
1.002320629E0,-2.386840582E-1,-1.028913707E-1,9.878469467E0
1.004746567E0,-2.291127741E-1,-1.220339537E-1,9.876076698E0
1.007172504E0,-2.434697002E-1,-1.028913707E-1,9.868897438E0
1.009598442E0,-2.410768867E-1,-1.124626622E-1,9.885647774E0
1.012024379E0,-2.147558331E-1,-1.028913707E-1,9.864111900E0
1.014450317E0,-2.195414752E-1,-9.810572863E-2,9.861719131E0
1.016876254E0,-2.171486616E-1,-1.028913707E-1,9.866504669E0
1.019302192E0,-2.219343036E-1,-1.172483116E-1,9.876076698E0
1.021728129E0,-2.386840582E-1,-1.124626622E-1,9.866504669E0
1.024154015E0,-2.386840582E-1,-1.148554832E-1,9.900004387E0
1.026579952E0,-2.434697002E-1,-1.100698411E-1,9.902397156E0
1.029005890E0,-2.195414752E-1,-1.052841991E-1,9.897611618E0
1.031431879E0,-2.458625287E-1,-1.220339537E-1,9.890433311E0
1.033857765E0,-2.171486616E-1,-1.172483116E-1,9.876076698E0
1.036283702E0,-2.434697002E-1,-1.076770201E-1,9.880862236E0
1.038709640E0,-2.434697002E-1,-9.332008660E-2,9.871291161E0
1.041135577E0,-2.362912297E-1,-1.172483116E-1,9.866504669E0
1.043561515E0,-2.626122832E-1,-1.292124242E-1,9.868897438E0
1.045987452E0,-2.243271172E-1,-1.268195957E-1,9.885647774E0
1.048413390E0,-2.410768867E-1,-1.124626622E-1,9.904789925E0
1.050839327E0,-2.219343036E-1,-1.196411327E-1,9.864111900E0
1.053265265E0,-2.267199457E-1,-1.028913707E-1,9.854540825E0
1.055691202E0,-2.243271172E-1,-9.810572863E-2,9.852148056E0
1.058117140E0,-2.195414752E-1,-1.172483116E-1,9.888040543E0
1.060543077E0,-2.362912297E-1,-1.148554832E-1,9.892826080E0
1.062969015E0,-2.386840582E-1,-1.052841991E-1,9.890433311E0
1.065394952E0,-2.291127741E-1,-1.220339537E-1,9.864111900E0
1.067820890E0,-2.291127741E-1,-1.220339537E-1,9.880862236E0
1.070246827E0,-2.410768867E-1,-9.332008660E-2,9.892826080E0
1.072672765E0,-2.554338276E-1,-1.100698411E-1,9.873683929E0
1.075098702E0,-2.267199457E-1,-1.004985496E-1,9.885647774E0
1.077524640E0,-2.362912297E-1,-1.100698411E-1,9.864111900E0
1.079950577E0,-2.171486616E-1,-1.076770201E-1,9.864111900E0
1.082376515E0,-2.458625287E-1,-1.148554832E-1,9.890433311E0
1.084802452E0,-2.434697002E-1,-8.614161611E-2,9.890433311E0
1.087228390E0,-2.267199457E-1,-9.092725813E-2,9.916754723E0
1.089654327E0,-2.434697002E-1,-1.148554832E-1,9.900004387E0
1.092080265E0,-2.626122832E-1,-9.332008660E-2,9.897611618E0
1.094506202E0,-2.291127741E-1,-1.124626622E-1,9.892826080E0
1.096932140E0,-2.267199457E-1,-1.268195957E-1,9.880862236E0
1.099358077E0,-2.386840582E-1,-1.028913707E-1,9.890433311E0
1.101784015E0,-2.506481707E-1,-1.172483116E-1,9.876076698E0
1.104209952E0,-2.243271172E-1,-1.220339537E-1,9.856933594E0
1.106635890E0,-2.291127741E-1,-1.244267747E-1,9.866504669E0
1.109061827E0,-2.362912297E-1,-1.076770201E-1,9.878469467E0
1.111487765E0,-2.338984162E-1,-1.244267747E-1,9.876076698E0
1.113913702E0,-2.458625287E-1,-1.028913707E-1,9.873683929E0
1.116339640E0,-2.362912297E-1,-9.810572863E-2,9.859326363E0
1.118765577E0,-2.219343036E-1,-1.268195957E-1,9.895218849E0
1.121191515E0,-2.267199457E-1,-1.172483116E-1,9.897611618E0
1.123617452E0,-2.219343036E-1,-1.268195957E-1,9.880862236E0
1.126043390E0,-2.075773627E-1,-1.124626622E-1,9.890433311E0
1.128469327E0,-2.219343036E-1,-1.196411327E-1,9.873683929E0
1.130895265E0,-2.434697002E-1,-1.339980662E-1,9.876076698E0
1.133321202E0,-2.123630047E-1,-1.268195957E-1,9.876076698E0
1.135747140E0,-2.506481707E-1,-1.268195957E-1,9.873683929E0
1.138173077E0,-2.267199457E-1,-1.052841991E-1,9.864111900E0
1.140599015E0,-2.338984162E-1,-8.853443712E-2,9.873683929E0
1.143024952E0,-2.267199457E-1,-1.004985496E-1,9.895218849E0
1.145450890E0,-2.506481707E-1,-1.124626622E-1,9.885647774E0
1.147876827E0,-2.386840582E-1,-1.124626622E-1,9.890433311E0
1.150302765E0,-2.626122832E-1,-1.244267747E-1,9.880862236E0
1.152728702E0,-2.386840582E-1,-8.135596663E-2,9.873683929E0
1.155154640E0,-2.434697002E-1,-1.028913707E-1,9.864111900E0
1.157580577E0,-2.171486616E-1,-1.124626622E-1,9.902397156E0
1.160006515E0,-2.243271172E-1,-1.100698411E-1,9.871291161E0
1.162432452E0,-2.171486616E-1,-1.004985496E-1,9.892826080E0
1.164858390E0,-2.291127741E-1,-1.100698411E-1,9.868897438E0
1.167284327E0,-2.482553422E-1,-1.507478207E-1,9.890433311E0
1.169710265E0,-2.410768867E-1,-1.004985496E-1,9.890433311E0
1.172136202E0,-2.099701911E-1,-1.220339537E-1,9.876076698E0
1.174562140E0,-2.267199457E-1,-1.100698411E-1,9.866504669E0
1.176988077E0,-2.219343036E-1,-1.220339537E-1,9.883255005E0
1.179413963E0,-2.171486616E-1,-1.124626622E-1,9.864111900E0
1.181839900E0,-2.386840582E-1,-1.052841991E-1,9.883255005E0
1.184265838E0,-2.195414752E-1,-1.220339537E-1,9.878469467E0
1.186691775E0,-2.075773627E-1,-1.268195957E-1,9.859326363E0
1.189117765E0,-2.410768867E-1,-1.100698411E-1,9.878469467E0
1.191543650E0,-2.410768867E-1,-8.135596663E-2,9.876076698E0
1.193969588E0,-2.410768867E-1,-1.004985496E-1,9.876076698E0
1.196395525E0,-2.291127741E-1,-1.268195957E-1,9.902397156E0
1.198821463E0,-2.458625287E-1,-1.387837082E-1,9.873683929E0
1.201247400E0,-2.171486616E-1,-1.148554832E-1,9.876076698E0
1.203673338E0,-2.482553422E-1,-1.148554832E-1,9.897611618E0
1.206099275E0,-2.530409992E-1,-1.387837082E-1,9.878469467E0
1.208525213E0,-2.506481707E-1,-1.196411327E-1,9.883255005E0
1.210951150E0,-2.219343036E-1,-1.124626622E-1,9.885647774E0
1.213377088E0,-2.315055877E-1,-1.100698411E-1,9.902397156E0
1.215803025E0,-2.506481707E-1,-1.292124242E-1,9.888040543E0
1.218228963E0,-2.267199457E-1,-8.135596663E-2,9.878469467E0
1.220654900E0,-2.386840582E-1,-1.052841991E-1,9.871291161E0
1.223080838E0,-2.219343036E-1,-9.810572863E-2,9.876076698E0
1.225506775E0,-2.338984162E-1,-9.092725813E-2,9.892826080E0
1.227932713E0,-2.315055877E-1,-1.052841991E-1,9.866504669E0
1.230358650E0,-2.195414752E-1,-9.810572863E-2,9.878469467E0
1.232784588E0,-2.291127741E-1,-1.292124242E-1,9.885647774E0
1.235210525E0,-2.243271172E-1,-9.092725813E-2,9.864111900E0
1.237636463E0,-2.626122832E-1,-1.076770201E-1,9.890433311E0
1.240062400E0,-2.602194548E-1,-1.076770201E-1,9.888040543E0
1.242488338E0,-2.602194548E-1,-1.172483116E-1,9.873683929E0
1.244914275E0,-2.219343036E-1,-1.435693651E-1,9.883255005E0
1.247340213E0,-2.291127741E-1,-1.100698411E-1,9.880862236E0
1.249766150E0,-2.362912297E-1,-1.220339537E-1,9.890433311E0
1.252192088E0,-2.434697002E-1,-1.028913707E-1,9.856933594E0
1.254618025E0,-2.482553422E-1,-1.052841991E-1,9.866504669E0
1.257043963E0,-2.458625287E-1,-9.092725813E-2,9.864111900E0
1.259469900E0,-2.315055877E-1,-1.004985496E-1,9.904789925E0
1.261895838E0,-2.506481707E-1,-1.052841991E-1,9.871291161E0
1.264321775E0,-2.291127741E-1,-1.124626622E-1,9.873683929E0
1.266747713E0,-2.554338276E-1,-1.196411327E-1,9.895218849E0
1.269173650E0,-2.219343036E-1,-1.220339537E-1,9.880862236E0
1.271599588E0,-2.386840582E-1,-1.052841991E-1,9.888040543E0
1.274025525E0,-2.386840582E-1,-1.172483116E-1,9.873683929E0
1.276451463E0,-2.530409992E-1,-1.244267747E-1,9.890433311E0
1.278877400E0,-2.362912297E-1,-1.339980662E-1,9.880862236E0
1.281303338E0,-2.267199457E-1,-1.244267747E-1,9.873683929E0
1.283729275E0,-2.315055877E-1,-1.124626622E-1,9.876076698E0
1.286155213E0,-2.506481707E-1,-1.028913707E-1,9.895218849E0
1.288581150E0,-2.410768867E-1,-1.339980662E-1,9.885647774E0
1.291007088E0,-2.123630047E-1,-1.124626622E-1,9.892826080E0
1.293433025E0,-1.980060786E-1,-1.220339537E-1,9.892826080E0
1.295858963E0,-2.147558331E-1,-1.172483116E-1,9.883255005E0
1.298284900E0,-2.315055877E-1,-1.028913707E-1,9.871291161E0
1.300710838E0,-2.219343036E-1,-1.100698411E-1,9.885647774E0
1.303136775E0,-2.362912297E-1,-1.148554832E-1,9.856933594E0
1.305562713E0,-2.267199457E-1,-1.100698411E-1,9.871291161E0
1.307988650E0,-2.267199457E-1,-9.810572863E-2,9.876076698E0
1.310414588E0,-2.338984162E-1,-9.332008660E-2,9.880862236E0
1.312840525E0,-2.458625287E-1,-1.172483116E-1,9.873683929E0
1.315266463E0,-2.386840582E-1,-1.172483116E-1,9.871291161E0
1.317692400E0,-2.362912297E-1,-1.148554832E-1,9.890433311E0
1.320118338E0,-2.075773627E-1,-1.076770201E-1,9.861719131E0
1.322544275E0,-2.171486616E-1,-1.028913707E-1,9.885647774E0
1.324970213E0,-2.506481707E-1,-1.100698411E-1,9.897611618E0
1.327396150E0,-2.195414752E-1,-9.092725813E-2,9.878469467E0
1.329822088E0,-2.291127741E-1,-1.100698411E-1,9.876076698E0
1.332248025E0,-2.458625287E-1,-1.244267747E-1,9.876076698E0
1.334673963E0,-2.195414752E-1,-1.004985496E-1,9.895218849E0
1.337099900E0,-2.291127741E-1,-1.052841991E-1,9.890433311E0
1.339525838E0,-2.291127741E-1,-1.100698411E-1,9.878469467E0
1.341951775E0,-2.362912297E-1,-1.220339537E-1,9.890433311E0
1.344377713E0,-2.315055877E-1,-1.028913707E-1,9.852148056E0
1.346803650E0,-2.482553422E-1,-1.148554832E-1,9.878469467E0
1.349229536E0,-2.458625287E-1,-8.614161611E-2,9.871291161E0
1.351655525E0,-2.482553422E-1,-1.028913707E-1,9.890433311E0
1.354081411E0,-2.362912297E-1,-1.100698411E-1,9.876076698E0
1.356507400E0,-2.434697002E-1,-1.100698411E-1,9.876076698E0
1.358933286E0,-2.410768867E-1,-1.004985496E-1,9.888040543E0
1.361359275E0,-2.338984162E-1,-1.052841991E-1,9.871291161E0
1.363785161E0,-2.338984162E-1,-1.100698411E-1,9.854540825E0
1.366211098E0,-2.315055877E-1,-9.810572863E-2,9.888040543E0
1.368637088E0,-2.386840582E-1,-1.363908947E-1,9.880862236E0
1.371062973E0,-2.386840582E-1,-1.220339537E-1,9.876076698E0
1.373488911E0,-2.530409992E-1,-1.100698411E-1,9.890433311E0
1.375914848E0,-2.338984162E-1,-1.004985496E-1,9.871291161E0
1.378340786E0,-2.267199457E-1,-1.244267747E-1,9.856933594E0
1.380766723E0,-2.338984162E-1,-1.339980662E-1,9.890433311E0
1.383192661E0,-2.123630047E-1,-8.853443712E-2,9.873683929E0
1.385618598E0,-2.338984162E-1,-1.028913707E-1,9.878469467E0
1.388044536E0,-2.386840582E-1,-1.052841991E-1,9.873683929E0
1.390470473E0,-2.315055877E-1,-8.853443712E-2,9.880862236E0
1.392896411E0,-2.338984162E-1,-1.220339537E-1,9.871291161E0
1.395322348E0,-2.482553422E-1,-1.076770201E-1,9.859326363E0
1.397748286E0,-2.602194548E-1,-1.028913707E-1,9.876076698E0
1.400174223E0,-2.147558331E-1,-1.004985496E-1,9.900004387E0
1.402600161E0,-2.243271172E-1,-9.092725813E-2,9.897611618E0
1.405026098E0,-2.219343036E-1,-1.076770201E-1,9.878469467E0
1.407452036E0,-2.410768867E-1,-1.220339537E-1,9.878469467E0
1.409877973E0,-2.123630047E-1,-1.124626622E-1,9.885647774E0
1.412303911E0,-2.291127741E-1,-1.124626622E-1,9.880862236E0
1.414729848E0,-2.315055877E-1,-1.172483116E-1,9.895218849E0
1.417155786E0,-2.362912297E-1,-1.052841991E-1,9.880862236E0
1.419581723E0,-2.099701911E-1,-1.052841991E-1,9.897611618E0
1.422007661E0,-2.195414752E-1,-1.076770201E-1,9.885647774E0
1.424433598E0,-2.315055877E-1,-1.124626622E-1,9.876076698E0
1.426859536E0,-2.291127741E-1,-1.172483116E-1,9.885647774E0
1.429285473E0,-2.650051117E-1,-1.004985496E-1,9.892826080E0
1.431711411E0,-2.267199457E-1,-1.363908947E-1,9.888040543E0
1.434137348E0,-2.267199457E-1,-1.339980662E-1,9.880862236E0
1.436563286E0,-2.362912297E-1,-1.339980662E-1,9.859326363E0
1.438989223E0,-2.123630047E-1,-9.571290761E-2,9.883255005E0
1.441415161E0,-2.362912297E-1,-1.076770201E-1,9.880862236E0
1.443841098E0,-2.219343036E-1,-9.810572863E-2,9.878469467E0
1.446267036E0,-2.099701911E-1,-1.148554832E-1,9.883255005E0
1.448692973E0,-2.315055877E-1,-1.052841991E-1,9.866504669E0
1.451118911E0,-2.291127741E-1,-1.196411327E-1,9.878469467E0
1.453544848E0,-2.458625287E-1,-1.004985496E-1,9.883255005E0
1.455970786E0,-2.123630047E-1,-1.124626622E-1,9.883255005E0
1.458396723E0,-2.458625287E-1,-9.092725813E-2,9.890433311E0
1.460822661E0,-2.315055877E-1,-1.148554832E-1,9.864111900E0
1.463248598E0,-2.267199457E-1,-1.172483116E-1,9.856933594E0
1.465674536E0,-2.219343036E-1,-1.052841991E-1,9.895218849E0
1.468100473E0,-2.482553422E-1,-1.052841991E-1,9.876076698E0
1.470526411E0,-2.386840582E-1,-1.316052526E-1,9.871291161E0
1.472952348E0,-2.171486616E-1,-9.810572863E-2,9.871291161E0
1.475378286E0,-2.362912297E-1,-1.244267747E-1,9.883255005E0
1.477804223E0,-2.434697002E-1,-1.220339537E-1,9.880862236E0
1.480230161E0,-2.195414752E-1,-1.124626622E-1,9.876076698E0
1.482656098E0,-2.219343036E-1,-1.076770201E-1,9.885647774E0
1.485082036E0,-2.434697002E-1,-9.332008660E-2,9.900004387E0
1.487507973E0,-2.362912297E-1,-1.100698411E-1,9.904789925E0
1.489933911E0,-2.147558331E-1,-9.810572863E-2,9.878469467E0
1.492359848E0,-2.171486616E-1,-1.076770201E-1,9.866504669E0
1.494785786E0,-2.219343036E-1,-1.148554832E-1,9.878469467E0
1.497211723E0,-2.362912297E-1,-1.004985496E-1,9.868897438E0
1.499637661E0,-2.434697002E-1,-1.172483116E-1,9.878469467E0
1.502063598E0,-2.386840582E-1,-1.196411327E-1,9.876076698E0
1.504489536E0,-2.219343036E-1,-1.028913707E-1,9.888040543E0
1.506915473E0,-2.410768867E-1,-1.172483116E-1,9.856933594E0
1.509341411E0,-2.386840582E-1,-1.148554832E-1,9.892826080E0
1.511767348E0,-2.171486616E-1,-1.124626622E-1,9.876076698E0
1.514193286E0,-2.267199457E-1,-1.244267747E-1,9.885647774E0
1.516619223E0,-2.267199457E-1,-1.076770201E-1,9.885647774E0
1.519045161E0,-2.506481707E-1,-1.076770201E-1,9.900004387E0
1.521471098E0,-2.362912297E-1,-1.196411327E-1,9.926325798E0
1.523897036E0,-2.530409992E-1,-1.100698411E-1,9.880862236E0
1.526322973E0,-2.315055877E-1,-1.268195957E-1,9.868897438E0
1.528748911E0,-2.482553422E-1,-1.076770201E-1,9.878469467E0
1.531174848E0,-2.434697002E-1,-1.124626622E-1,9.880862236E0
1.533600786E0,-2.386840582E-1,-1.196411327E-1,9.885647774E0
1.536026723E0,-2.458625287E-1,-1.196411327E-1,9.866504669E0
1.538452661E0,-2.362912297E-1,-1.244267747E-1,9.883255005E0
1.540878598E0,-2.243271172E-1,-1.028913707E-1,9.880862236E0
1.543304536E0,-2.171486616E-1,-1.028913707E-1,9.864111900E0
1.545730473E0,-2.386840582E-1,-1.028913707E-1,9.866504669E0
1.548156411E0,-2.410768867E-1,-1.124626622E-1,9.876076698E0
1.550582348E0,-2.219343036E-1,-1.076770201E-1,9.880862236E0
1.553008286E0,-2.267199457E-1,-1.339980662E-1,9.888040543E0
1.555434223E0,-2.267199457E-1,-1.004985496E-1,9.892826080E0
1.557860108E0,-2.410768867E-1,-1.028913707E-1,9.861719131E0
1.560286098E0,-2.458625287E-1,-1.100698411E-1,9.866504669E0
1.562712036E0,-2.434697002E-1,-9.810572863E-2,9.890433311E0
1.565137973E0,-2.195414752E-1,-1.052841991E-1,9.883255005E0
1.567563858E0,-2.051845491E-1,-1.100698411E-1,9.880862236E0
1.569989796E0,-2.434697002E-1,-8.853443712E-2,9.873683929E0
1.572415733E0,-2.434697002E-1,-1.052841991E-1,9.885647774E0
1.574841723E0,-2.338984162E-1,-1.244267747E-1,9.890433311E0
1.577267661E0,-2.482553422E-1,-9.332008660E-2,9.885647774E0
1.579693598E0,-2.243271172E-1,-9.571290761E-2,9.888040543E0
1.582119483E0,-2.123630047E-1,-1.028913707E-1,9.873683929E0
1.584545473E0,-2.243271172E-1,-1.100698411E-1,9.880862236E0
1.586971358E0,-2.362912297E-1,-9.571290761E-2,9.871291161E0
1.589397296E0,-2.338984162E-1,-1.244267747E-1,9.880862236E0
1.591823233E0,-2.338984162E-1,-1.339980662E-1,9.873683929E0
1.594249171E0,-2.434697002E-1,-1.148554832E-1,9.878469467E0
1.596675108E0,-2.362912297E-1,-8.853443712E-2,9.876076698E0
1.599101046E0,-2.530409992E-1,-9.092725813E-2,9.888040543E0
1.601526983E0,-2.219343036E-1,-1.196411327E-1,9.883255005E0
1.603952921E0,-2.123630047E-1,-1.148554832E-1,9.890433311E0
1.606378858E0,-2.362912297E-1,-1.196411327E-1,9.892826080E0
1.608804796E0,-2.219343036E-1,-1.100698411E-1,9.878469467E0
1.611230733E0,-2.338984162E-1,-9.332008660E-2,9.878469467E0
1.613656671E0,-2.219343036E-1,-1.292124242E-1,9.897611618E0
1.616082608E0,-2.291127741E-1,-1.052841991E-1,9.883255005E0
1.618508546E0,-2.147558331E-1,-1.148554832E-1,9.876076698E0
1.620934483E0,-2.243271172E-1,-1.244267747E-1,9.878469467E0
1.623360421E0,-2.243271172E-1,-1.244267747E-1,9.880862236E0
1.625786358E0,-2.291127741E-1,-1.052841991E-1,9.888040543E0
1.628212296E0,-2.123630047E-1,-1.172483116E-1,9.895218849E0
1.630638233E0,-2.554338276E-1,-1.124626622E-1,9.900004387E0
1.633064171E0,-2.219343036E-1,-1.124626622E-1,9.895218849E0
1.635490108E0,-2.482553422E-1,-1.148554832E-1,9.876076698E0
1.637916046E0,-2.267199457E-1,-1.196411327E-1,9.890433311E0
1.640341983E0,-2.195414752E-1,-1.004985496E-1,9.873683929E0
1.642767921E0,-2.075773627E-1,-1.196411327E-1,9.873683929E0
1.645193858E0,-2.099701911E-1,-1.100698411E-1,9.880862236E0
1.647619796E0,-2.434697002E-1,-1.172483116E-1,9.878469467E0
1.650045733E0,-2.578266263E-1,-1.052841991E-1,9.890433311E0
1.652471671E0,-2.458625287E-1,-1.076770201E-1,9.866504669E0
1.654897608E0,-2.626122832E-1,-9.810572863E-2,9.885647774E0
1.657323546E0,-2.554338276E-1,-1.076770201E-1,9.880862236E0
1.659749483E0,-2.315055877E-1,-1.076770201E-1,9.871291161E0
1.662175421E0,-2.506481707E-1,-9.092725813E-2,9.868897438E0
1.664601358E0,-2.315055877E-1,-1.172483116E-1,9.868897438E0
1.667027296E0,-2.291127741E-1,-1.196411327E-1,9.885647774E0
1.669453233E0,-2.267199457E-1,-1.316052526E-1,9.876076698E0
1.671879171E0,-2.267199457E-1,-8.853443712E-2,9.892826080E0
1.674305108E0,-2.315055877E-1,-1.292124242E-1,9.880862236E0
1.676731046E0,-2.315055877E-1,-1.148554832E-1,9.864111900E0
1.679156983E0,-2.291127741E-1,-1.148554832E-1,9.861719131E0
1.681582921E0,-2.267199457E-1,-1.148554832E-1,9.883255005E0
1.684008858E0,-2.506481707E-1,-1.172483116E-1,9.888040543E0
1.686434796E0,-2.434697002E-1,-1.220339537E-1,9.873683929E0
1.688860733E0,-2.338984162E-1,-1.028913707E-1,9.868897438E0
1.691286671E0,-2.410768867E-1,-1.148554832E-1,9.895218849E0
1.693712608E0,-2.123630047E-1,-1.028913707E-1,9.897611618E0
1.696138546E0,-2.506481707E-1,-1.172483116E-1,9.880862236E0
1.698564483E0,-2.315055877E-1,-1.124626622E-1,9.868897438E0
1.700990421E0,-2.530409992E-1,-1.363908947E-1,9.868897438E0
1.703416358E0,-2.506481707E-1,-1.292124242E-1,9.866504669E0
1.705842296E0,-2.219343036E-1,-1.028913707E-1,9.880862236E0
1.708268233E0,-2.123630047E-1,-9.810572863E-2,9.900004387E0
1.710694171E0,-2.195414752E-1,-1.196411327E-1,9.876076698E0
1.713120108E0,-2.482553422E-1,-1.052841991E-1,9.876076698E0
1.715546046E0,-2.338984162E-1,-1.004985496E-1,9.878469467E0
1.717971983E0,-2.195414752E-1,-1.004985496E-1,9.864111900E0
1.720397921E0,-2.338984162E-1,-1.100698411E-1,9.871291161E0
1.722823858E0,-2.578266263E-1,-1.268195957E-1,9.883255005E0
1.725249796E0,-2.338984162E-1,-1.316052526E-1,9.897611618E0
1.727675733E0,-2.386840582E-1,-1.100698411E-1,9.892826080E0
1.730101671E0,-2.362912297E-1,-1.339980662E-1,9.880862236E0
1.732527608E0,-2.578266263E-1,-1.100698411E-1,9.892826080E0
1.734953546E0,-2.386840582E-1,-1.004985496E-1,9.897611618E0
1.737379483E0,-2.362912297E-1,-1.004985496E-1,9.883255005E0
1.739805421E0,-2.434697002E-1,-1.172483116E-1,9.888040543E0
1.742231358E0,-2.267199457E-1,-1.244267747E-1,9.888040543E0
1.744657296E0,-2.362912297E-1,-1.172483116E-1,9.890433311E0
1.747083233E0,-2.482553422E-1,-1.196411327E-1,9.878469467E0
1.749509171E0,-2.315055877E-1,-8.853443712E-2,9.864111900E0
1.751935108E0,-2.578266263E-1,-9.810572863E-2,9.878469467E0
1.754361046E0,-2.386840582E-1,-1.028913707E-1,9.888040543E0
1.756786983E0,-2.458625287E-1,-1.244267747E-1,9.909575462E0
1.759212921E0,-2.147558331E-1,-1.196411327E-1,9.897611618E0
1.761638858E0,-2.362912297E-1,-9.810572863E-2,9.890433311E0
1.764064796E0,-2.243271172E-1,-1.172483116E-1,9.888040543E0
1.766490733E0,-2.386840582E-1,-1.244267747E-1,9.888040543E0
1.768916671E0,-2.219343036E-1,-1.076770201E-1,9.873683929E0
1.771342608E0,-2.458625287E-1,-1.148554832E-1,9.866504669E0
1.773768546E0,-2.075773627E-1,-1.124626622E-1,9.859326363E0
1.776194483E0,-2.291127741E-1,-1.004985496E-1,9.878469467E0
1.778620421E0,-2.410768867E-1,-9.810572863E-2,9.900004387E0
1.781046358E0,-2.243271172E-1,-1.100698411E-1,9.897611618E0
1.783472296E0,-2.458625287E-1,-1.076770201E-1,9.878469467E0
1.785898233E0,-2.458625287E-1,-1.196411327E-1,9.876076698E0
1.788324171E0,-2.482553422E-1,-1.148554832E-1,9.873683929E0
1.790750108E0,-2.458625287E-1,-1.100698411E-1,9.888040543E0
1.793176046E0,-2.219343036E-1,-1.220339537E-1,9.897611618E0
1.795601983E0,-2.338984162E-1,-1.076770201E-1,9.880862236E0
1.798027921E0,-2.219343036E-1,-1.124626622E-1,9.868897438E0
1.800453858E0,-2.315055877E-1,-1.244267747E-1,9.883255005E0
1.802879796E0,-2.171486616E-1,-1.028913707E-1,9.878469467E0
1.805305733E0,-2.291127741E-1,-1.028913707E-1,9.876076698E0
1.807731671E0,-2.362912297E-1,-1.028913707E-1,9.873683929E0
1.810157608E0,-2.506481707E-1,-1.028913707E-1,9.909575462E0
1.812583546E0,-2.338984162E-1,-1.172483116E-1,9.888040543E0
1.815009483E0,-2.315055877E-1,-1.172483116E-1,9.878469467E0
1.817435421E0,-2.338984162E-1,-1.100698411E-1,9.885647774E0
1.819861358E0,-2.027917206E-1,-1.004985496E-1,9.871291161E0
1.822287296E0,-2.291127741E-1,-1.316052526E-1,9.871291161E0
1.824713233E0,-2.267199457E-1,-1.028913707E-1,9.880862236E0
1.827139119E0,-2.291127741E-1,-1.100698411E-1,9.878469467E0
1.829565108E0,-2.243271172E-1,-1.004985496E-1,9.880862236E0
1.831991046E0,-2.195414752E-1,-1.028913707E-1,9.878469467E0
1.834416983E0,-2.362912297E-1,-1.220339537E-1,9.866504669E0
1.836842921E0,-2.410768867E-1,-1.004985496E-1,9.878469467E0
1.839268806E0,-2.530409992E-1,-1.124626622E-1,9.888040543E0
1.841694744E0,-2.410768867E-1,-8.374879509E-2,9.876076698E0
1.844120733E0,-2.506481707E-1,-1.148554832E-1,9.897611618E0
1.846546671E0,-2.362912297E-1,-1.076770201E-1,9.888040543E0
1.848972556E0,-2.195414752E-1,-1.124626622E-1,9.868897438E0
1.851398494E0,-2.362912297E-1,-1.196411327E-1,9.883255005E0
1.853824431E0,-2.267199457E-1,-1.100698411E-1,9.885647774E0
1.856250369E0,-2.362912297E-1,-8.853443712E-2,9.880862236E0
1.858676306E0,-2.267199457E-1,-1.076770201E-1,9.892826080E0
1.861102244E0,-2.195414752E-1,-8.853443712E-2,9.876076698E0
1.863528181E0,-2.123630047E-1,-1.220339537E-1,9.900004387E0
1.865954119E0,-2.291127741E-1,-1.196411327E-1,9.888040543E0
1.868380056E0,-2.219343036E-1,-1.292124242E-1,9.880862236E0
1.870805994E0,-2.099701911E-1,-1.148554832E-1,9.916754723E0
1.873231931E0,-2.219343036E-1,-9.571290761E-2,9.885647774E0
1.875657869E0,-2.362912297E-1,-1.172483116E-1,9.883255005E0
1.878083806E0,-2.195414752E-1,-1.004985496E-1,9.883255005E0
1.880509744E0,-2.243271172E-1,-1.124626622E-1,9.880862236E0
1.882935681E0,-2.650051117E-1,-8.853443712E-2,9.871291161E0
1.885361619E0,-2.386840582E-1,-1.292124242E-1,9.895218849E0
1.887787556E0,-2.243271172E-1,-1.196411327E-1,9.876076698E0
1.890213494E0,-2.386840582E-1,-9.810572863E-2,9.888040543E0
1.892639431E0,-2.291127741E-1,-1.172483116E-1,9.892826080E0
1.895065369E0,-2.362912297E-1,-1.483550072E-1,9.873683929E0
1.897491306E0,-2.075773627E-1,-1.244267747E-1,9.885647774E0
1.899917244E0,-2.362912297E-1,-1.292124242E-1,9.885647774E0
1.902343181E0,-2.219343036E-1,-1.196411327E-1,9.883255005E0
1.904769119E0,-2.410768867E-1,-9.092725813E-2,9.892826080E0
1.907195056E0,-2.482553422E-1,-9.092725813E-2,9.883255005E0
1.909620994E0,-2.315055877E-1,-1.196411327E-1,9.897611618E0
1.912046931E0,-2.554338276E-1,-9.571290761E-2,9.871291161E0
1.914472869E0,-2.434697002E-1,-1.124626622E-1,9.861719131E0
1.916898806E0,-2.362912297E-1,-1.004985496E-1,9.883255005E0
1.919324744E0,-2.315055877E-1,-1.220339537E-1,9.878469467E0
1.921750681E0,-2.338984162E-1,-1.148554832E-1,9.876076698E0
1.924176619E0,-2.650051117E-1,-1.268195957E-1,9.892826080E0
1.926602556E0,-2.506481707E-1,-1.148554832E-1,9.880862236E0
1.929028494E0,-2.315055877E-1,-1.196411327E-1,9.895218849E0
1.931454431E0,-2.171486616E-1,-1.100698411E-1,9.883255005E0
1.933880369E0,-2.362912297E-1,-1.004985496E-1,9.868897438E0
1.936306306E0,-2.075773627E-1,-8.374879509E-2,9.880862236E0
1.938732244E0,-2.410768867E-1,-9.571290761E-2,9.866504669E0
1.941158181E0,-2.482553422E-1,-1.196411327E-1,9.876076698E0
1.943584119E0,-2.171486616E-1,-1.172483116E-1,9.880862236E0
1.946010056E0,-2.338984162E-1,-1.100698411E-1,9.873683929E0
1.948435994E0,-2.338984162E-1,-1.100698411E-1,9.876076698E0
1.950861931E0,-2.315055877E-1,-1.100698411E-1,9.880862236E0
1.953287869E0,-2.506481707E-1,-1.076770201E-1,9.864111900E0
1.955713806E0,-2.123630047E-1,-1.124626622E-1,9.878469467E0
1.958139744E0,-2.315055877E-1,-1.172483116E-1,9.883255005E0
1.960565681E0,-2.386840582E-1,-1.292124242E-1,9.883255005E0
1.962991619E0,-2.195414752E-1,-1.148554832E-1,9.878469467E0
1.965417556E0,-2.243271172E-1,-1.124626622E-1,9.852148056E0
1.967843494E0,-2.410768867E-1,-9.571290761E-2,9.900004387E0
1.970269431E0,-2.147558331E-1,-1.004985496E-1,9.878469467E0
1.972695369E0,-2.291127741E-1,-1.004985496E-1,9.859326363E0
1.975121306E0,-2.482553422E-1,-1.220339537E-1,9.873683929E0
1.977547244E0,-2.410768867E-1,-1.196411327E-1,9.873683929E0
1.979973181E0,-2.338984162E-1,-1.124626622E-1,9.868897438E0
1.982399119E0,-2.554338276E-1,-9.332008660E-2,9.866504669E0
1.984825056E0,-2.410768867E-1,-1.148554832E-1,9.883255005E0
1.987250994E0,-2.219343036E-1,-1.076770201E-1,9.871291161E0
1.989676931E0,-2.410768867E-1,-1.196411327E-1,9.890433311E0
1.992102869E0,-2.315055877E-1,-1.124626622E-1,9.861719131E0
1.994528806E0,-2.171486616E-1,-1.339980662E-1,9.888040543E0
1.996954744E0,-2.267199457E-1,-9.810572863E-2,9.868897438E0
1.999380681E0,-2.267199457E-1,-1.172483116E-1,9.871291161E0
2.001806619E0,-2.195414752E-1,-9.571290761E-2,9.864111900E0
2.004232556E0,-2.195414752E-1,-1.028913707E-1,9.885647774E0
2.006658494E0,-2.458625287E-1,-1.052841991E-1,9.883255005E0
2.009084431E0,-2.315055877E-1,-9.810572863E-2,9.876076698E0
2.011510369E0,-2.219343036E-1,-1.076770201E-1,9.878469467E0
2.013936306E0,-2.291127741E-1,-1.196411327E-1,9.880862236E0
2.016362244E0,-2.578266263E-1,-1.004985496E-1,9.871291161E0
2.018788181E0,-2.171486616E-1,-1.052841991E-1,9.876076698E0
2.021214119E0,-2.338984162E-1,-1.100698411E-1,9.856933594E0
2.023640056E0,-2.099701911E-1,-1.268195957E-1,9.895218849E0
2.026065994E0,-2.243271172E-1,-9.810572863E-2,9.890433311E0
2.028491931E0,-2.434697002E-1,-1.148554832E-1,9.892826080E0
2.030917869E0,-2.291127741E-1,-1.124626622E-1,9.902397156E0
2.033343806E0,-2.362912297E-1,-8.374879509E-2,9.892826080E0
2.035769744E0,-2.291127741E-1,-1.100698411E-1,9.885647774E0
2.038195681E0,-2.506481707E-1,-1.124626622E-1,9.888040543E0
2.040621619E0,-2.243271172E-1,-1.076770201E-1,9.883255005E0
2.043047556E0,-2.530409992E-1,-1.052841991E-1,9.892826080E0
2.045473494E0,-2.482553422E-1,-1.220339537E-1,9.880862236E0
2.047899431E0,-2.362912297E-1,-1.196411327E-1,9.876076698E0
2.050325369E0,-2.075773627E-1,-1.172483116E-1,9.892826080E0
2.052751306E0,-2.291127741E-1,-1.196411327E-1,9.876076698E0
2.055177244E0,-2.219343036E-1,-1.100698411E-1,9.873683929E0
2.057603181E0,-2.171486616E-1,-1.100698411E-1,9.904789925E0
2.060029119E0,-2.315055877E-1,-1.124626622E-1,9.885647774E0
2.062455056E0,-2.362912297E-1,-1.196411327E-1,9.883255005E0
2.064880994E0,-2.602194548E-1,-1.076770201E-1,9.878469467E0
2.067306931E0,-2.410768867E-1,-1.244267747E-1,9.883255005E0
2.069732869E0,-2.267199457E-1,-9.092725813E-2,9.890433311E0
2.072158806E0,-1.980060786E-1,-1.220339537E-1,9.890433311E0
2.074584744E0,-2.219343036E-1,-1.148554832E-1,9.873683929E0
2.077010681E0,-2.578266263E-1,-1.076770201E-1,9.873683929E0
2.079436619E0,-2.267199457E-1,-1.028913707E-1,9.861719131E0
2.081862556E0,-2.434697002E-1,-9.810572863E-2,9.890433311E0
2.084288494E0,-2.506481707E-1,-1.268195957E-1,9.900004387E0
2.086714431E0,-2.434697002E-1,-1.268195957E-1,9.902397156E0
2.089140369E0,-2.338984162E-1,-1.124626622E-1,9.902397156E0
2.091566306E0,-2.362912297E-1,-1.148554832E-1,9.871291161E0
2.093992244E0,-2.458625287E-1,-1.004985496E-1,9.900004387E0
2.096418181E0,-2.386840582E-1,-1.076770201E-1,9.871291161E0
2.098844119E0,-2.434697002E-1,-9.092725813E-2,9.876076698E0
2.101270056E0,-2.458625287E-1,-1.196411327E-1,9.868897438E0
2.103695994E0,-2.386840582E-1,-9.092725813E-2,9.888040543E0
2.106121931E0,-2.578266263E-1,-1.100698411E-1,9.878469467E0
2.108547869E0,-2.458625287E-1,-1.052841991E-1,9.878469467E0
2.110973806E0,-2.338984162E-1,-1.004985496E-1,9.876076698E0
2.113399744E0,-2.338984162E-1,-1.148554832E-1,9.878469467E0
2.115825681E0,-2.338984162E-1,-1.052841991E-1,9.880862236E0
2.118251619E0,-2.506481707E-1,-9.571290761E-2,9.859326363E0
2.120677556E0,-2.458625287E-1,-1.124626622E-1,9.890433311E0
2.123103494E0,-2.291127741E-1,-1.148554832E-1,9.888040543E0
2.125529431E0,-2.267199457E-1,-1.196411327E-1,9.885647774E0
2.127955369E0,-2.338984162E-1,-1.076770201E-1,9.895218849E0
2.130381254E0,-2.458625287E-1,-9.810572863E-2,9.883255005E0
2.132807244E0,-2.386840582E-1,-9.571290761E-2,9.888040543E0
2.135233129E0,-2.338984162E-1,-1.100698411E-1,9.888040543E0
2.137659067E0,-2.291127741E-1,-1.052841991E-1,9.904789925E0
2.140085004E0,-2.434697002E-1,-9.092725813E-2,9.888040543E0
2.142510942E0,-2.267199457E-1,-1.196411327E-1,9.864111900E0
2.144936931E0,-2.267199457E-1,-1.100698411E-1,9.866504669E0
2.147362817E0,-2.195414752E-1,-1.172483116E-1,9.895218849E0
2.149788806E0,-2.075773627E-1,-1.339980662E-1,9.876076698E0
2.152214744E0,-2.267199457E-1,-1.196411327E-1,9.866504669E0
2.154640629E0,-2.362912297E-1,-1.004985496E-1,9.880862236E0
2.157066567E0,-2.530409992E-1,-1.196411327E-1,9.890433311E0
2.159492504E0,-2.267199457E-1,-1.292124242E-1,9.892826080E0
2.161918442E0,-2.315055877E-1,-1.172483116E-1,9.895218849E0
2.164344379E0,-2.243271172E-1,-1.076770201E-1,9.902397156E0
2.166770317E0,-2.410768867E-1,-1.172483116E-1,9.864111900E0
2.169196254E0,-2.291127741E-1,-1.387837082E-1,9.873683929E0
2.171622192E0,-2.338984162E-1,-1.004985496E-1,9.876076698E0
2.174048129E0,-2.530409992E-1,-1.268195957E-1,9.854540825E0
2.176474067E0,-2.338984162E-1,-1.052841991E-1,9.868897438E0
2.178900004E0,-2.315055877E-1,-1.100698411E-1,9.883255005E0
2.181325942E0,-2.315055877E-1,-1.172483116E-1,9.878469467E0
2.183751879E0,-2.291127741E-1,-1.172483116E-1,9.864111900E0
2.186177817E0,-2.410768867E-1,-1.172483116E-1,9.871291161E0
2.188603754E0,-2.291127741E-1,-1.244267747E-1,9.895218849E0
2.191029692E0,-2.099701911E-1,-1.196411327E-1,9.878469467E0
2.193455629E0,-2.338984162E-1,-1.028913707E-1,9.873683929E0
2.195881567E0,-2.195414752E-1,-9.810572863E-2,9.866504669E0
2.198307504E0,-2.578266263E-1,-1.052841991E-1,9.871291161E0
2.200733442E0,-2.602194548E-1,-1.363908947E-1,9.888040543E0
2.203159379E0,-2.458625287E-1,-9.571290761E-2,9.895218849E0
2.205585317E0,-2.219343036E-1,-9.571290761E-2,9.885647774E0
2.208011254E0,-2.315055877E-1,-1.244267747E-1,9.885647774E0
2.210437192E0,-2.027917206E-1,-1.124626622E-1,9.876076698E0
2.212863129E0,-2.482553422E-1,-1.052841991E-1,9.880862236E0
2.215289067E0,-2.315055877E-1,-1.172483116E-1,9.878469467E0
2.217715004E0,-2.243271172E-1,-1.148554832E-1,9.885647774E0
2.220140942E0,-2.554338276E-1,-1.052841991E-1,9.890433311E0
2.222566879E0,-2.267199457E-1,-1.004985496E-1,9.876076698E0
2.224992817E0,-2.291127741E-1,-1.124626622E-1,9.888040543E0
2.227418754E0,-2.243271172E-1,-1.196411327E-1,9.897611618E0
2.229844692E0,-2.267199457E-1,-1.244267747E-1,9.864111900E0
2.232270629E0,-2.410768867E-1,-9.571290761E-2,9.871291161E0
2.234696567E0,-2.386840582E-1,-1.028913707E-1,9.892826080E0
2.237122504E0,-2.482553422E-1,-1.100698411E-1,9.888040543E0
2.239548442E0,-2.219343036E-1,-1.292124242E-1,9.897611618E0
2.241974379E0,-2.554338276E-1,-1.268195957E-1,9.892826080E0
2.244400317E0,-2.482553422E-1,-1.220339537E-1,9.883255005E0
2.246826254E0,-2.530409992E-1,-9.092725813E-2,9.885647774E0
2.249252192E0,-2.195414752E-1,-1.196411327E-1,9.873683929E0
2.251678129E0,-2.267199457E-1,-1.100698411E-1,9.904789925E0
2.254104067E0,-2.338984162E-1,-1.148554832E-1,9.885647774E0
2.256530004E0,-2.458625287E-1,-1.316052526E-1,9.883255005E0
2.258955942E0,-2.243271172E-1,-1.124626622E-1,9.876076698E0
2.261381879E0,-2.338984162E-1,-1.124626622E-1,9.895218849E0
2.263807817E0,-2.530409992E-1,-1.292124242E-1,9.897611618E0
2.266233754E0,-2.338984162E-1,-9.571290761E-2,9.880862236E0
2.268659692E0,-2.195414752E-1,-9.332008660E-2,9.897611618E0
2.271085629E0,-2.123630047E-1,-1.124626622E-1,9.885647774E0
2.273511567E0,-2.291127741E-1,-1.004985496E-1,9.873683929E0
2.275937504E0,-2.291127741E-1,-1.363908947E-1,9.856933594E0
2.278363442E0,-2.195414752E-1,-1.124626622E-1,9.873683929E0
2.280789379E0,-2.243271172E-1,-1.196411327E-1,9.888040543E0
2.283215317E0,-2.458625287E-1,-1.004985496E-1,9.880862236E0
2.285641254E0,-2.554338276E-1,-1.028913707E-1,9.876076698E0
2.288067192E0,-2.171486616E-1,-8.374879509E-2,9.873683929E0
2.290493129E0,-2.578266263E-1,-1.172483116E-1,9.880862236E0
2.292919067E0,-2.362912297E-1,-1.124626622E-1,9.890433311E0
2.295345004E0,-2.434697002E-1,-9.571290761E-2,9.895218849E0
2.297770942E0,-2.291127741E-1,-1.148554832E-1,9.880862236E0
2.300196879E0,-2.362912297E-1,-1.100698411E-1,9.871291161E0
2.302622817E0,-2.243271172E-1,-1.100698411E-1,9.890433311E0
2.305048754E0,-2.267199457E-1,-1.124626622E-1,9.895218849E0
2.307474692E0,-2.291127741E-1,-1.411765367E-1,9.885647774E0
2.309900629E0,-2.051845491E-1,-1.244267747E-1,9.895218849E0
2.312326567E0,-2.243271172E-1,-1.172483116E-1,9.880862236E0
2.314752504E0,-2.243271172E-1,-1.220339537E-1,9.876076698E0
2.317178442E0,-2.338984162E-1,-1.220339537E-1,9.866504669E0
2.319604379E0,-2.291127741E-1,-1.268195957E-1,9.888040543E0
2.322030317E0,-2.362912297E-1,-1.268195957E-1,9.880862236E0
2.324456254E0,-2.315055877E-1,-1.100698411E-1,9.895218849E0
2.326882192E0,-2.338984162E-1,-1.124626622E-1,9.876076698E0
2.329308129E0,-2.410768867E-1,-1.004985496E-1,9.859326363E0
2.331734067E0,-2.123630047E-1,-1.244267747E-1,9.873683929E0
2.334160004E0,-2.195414752E-1,-1.339980662E-1,9.878469467E0
2.336585942E0,-2.482553422E-1,-1.220339537E-1,9.888040543E0
2.339011879E0,-2.123630047E-1,-1.076770201E-1,9.866504669E0
2.341437817E0,-2.243271172E-1,-1.076770201E-1,9.878469467E0
2.343863754E0,-2.243271172E-1,-8.614161611E-2,9.902397156E0
2.346289692E0,-2.171486616E-1,-1.196411327E-1,9.897611618E0
2.348715629E0,-2.386840582E-1,-1.196411327E-1,9.900004387E0
2.351141567E0,-2.458625287E-1,-1.196411327E-1,9.885647774E0
2.353567504E0,-2.410768867E-1,-1.028913707E-1,9.878469467E0
2.355993442E0,-2.291127741E-1,-1.292124242E-1,9.888040543E0
2.358419379E0,-2.362912297E-1,-1.076770201E-1,9.902397156E0
2.360845317E0,-2.243271172E-1,-1.124626622E-1,9.890433311E0
2.363271254E0,-2.554338276E-1,-1.100698411E-1,9.876076698E0
2.365697192E0,-2.362912297E-1,-1.148554832E-1,9.878469467E0
2.368123129E0,-2.243271172E-1,-1.076770201E-1,9.909575462E0
2.370549067E0,-2.315055877E-1,-1.100698411E-1,9.888040543E0
2.372975004E0,-2.434697002E-1,-1.148554832E-1,9.888040543E0
2.375400942E0,-2.243271172E-1,-1.244267747E-1,9.897611618E0
2.377826879E0,-2.458625287E-1,-1.268195957E-1,9.883255005E0
2.380252817E0,-2.386840582E-1,-1.316052526E-1,9.876076698E0
2.382678754E0,-2.458625287E-1,-1.100698411E-1,9.888040543E0
2.385104692E0,-2.315055877E-1,-1.076770201E-1,9.890433311E0
2.387530629E0,-2.482553422E-1,-8.853443712E-2,9.888040543E0
2.389956567E0,-2.338984162E-1,-1.196411327E-1,9.878469467E0
2.392382504E0,-2.315055877E-1,-1.076770201E-1,9.854540825E0
2.394808442E0,-2.267199457E-1,-1.148554832E-1,9.876076698E0
2.397234379E0,-2.434697002E-1,-1.004985496E-1,9.890433311E0
2.399660317E0,-2.315055877E-1,-1.028913707E-1,9.880862236E0
2.402086254E0,-2.195414752E-1,-1.292124242E-1,9.888040543E0
2.404512192E0,-2.147558331E-1,-1.076770201E-1,9.878469467E0
2.406938129E0,-2.434697002E-1,-9.810572863E-2,9.880862236E0
2.409364067E0,-2.554338276E-1,-1.004985496E-1,9.871291161E0
2.411790004E0,-2.410768867E-1,-1.100698411E-1,9.876076698E0
2.414215942E0,-2.243271172E-1,-1.076770201E-1,9.892826080E0
2.416641879E0,-2.338984162E-1,-1.196411327E-1,9.888040543E0
2.419067817E0,-2.243271172E-1,-1.076770201E-1,9.892826080E0
2.421493754E0,-2.099701911E-1,-1.076770201E-1,9.876076698E0
2.423919692E0,-2.195414752E-1,-1.316052526E-1,9.878469467E0
2.426345629E0,-2.386840582E-1,-9.571290761E-2,9.878469467E0
2.428771567E0,-2.267199457E-1,-9.571290761E-2,9.876076698E0
2.431197504E0,-2.362912297E-1,-1.172483116E-1,9.871291161E0
2.433623442E0,-2.243271172E-1,-1.172483116E-1,9.873683929E0
2.436049379E0,-2.386840582E-1,-1.100698411E-1,9.888040543E0
2.438475317E0,-2.219343036E-1,-1.100698411E-1,9.885647774E0
2.440901254E0,-2.099701911E-1,-1.292124242E-1,9.885647774E0
2.443327192E0,-2.291127741E-1,-9.810572863E-2,9.885647774E0
2.445753129E0,-2.099701911E-1,-8.853443712E-2,9.876076698E0
2.448179015E0,-2.362912297E-1,-1.172483116E-1,9.868897438E0
2.450604952E0,-2.219343036E-1,-1.028913707E-1,9.873683929E0
2.453030942E0,-2.243271172E-1,-1.100698411E-1,9.873683929E0
2.455456827E0,-2.147558331E-1,-9.571290761E-2,9.888040543E0
2.457882817E0,-2.315055877E-1,-7.896314561E-2,9.873683929E0
2.460308754E0,-2.099701911E-1,-1.124626622E-1,9.888040543E0
2.462734692E0,-2.554338276E-1,-1.363908947E-1,9.885647774E0
2.465160629E0,-2.530409992E-1,-1.244267747E-1,9.873683929E0
2.467586515E0,-2.123630047E-1,-1.076770201E-1,9.885647774E0
2.470012452E0,-2.147558331E-1,-8.614161611E-2,9.885647774E0
2.472438442E0,-2.219343036E-1,-1.124626622E-1,9.890433311E0
2.474864379E0,-2.147558331E-1,-1.172483116E-1,9.900004387E0
2.477290265E0,-2.458625287E-1,-1.100698411E-1,9.904789925E0
2.479716202E0,-2.482553422E-1,-1.052841991E-1,9.883255005E0
2.482142140E0,-2.338984162E-1,-1.196411327E-1,9.895218849E0
2.484568077E0,-2.745763958E-1,-1.052841991E-1,9.888040543E0
2.486994015E0,-2.602194548E-1,-1.076770201E-1,9.880862236E0
2.489419952E0,-2.434697002E-1,-9.332008660E-2,9.895218849E0
2.491845890E0,-2.410768867E-1,-1.124626622E-1,9.895218849E0
2.494271827E0,-2.386840582E-1,-1.244267747E-1,9.892826080E0
2.496697765E0,-2.482553422E-1,-1.124626622E-1,9.895218849E0
2.499123702E0,-2.434697002E-1,-1.028913707E-1,9.873683929E0
2.501549640E0,-2.267199457E-1,-1.124626622E-1,9.888040543E0
2.503975577E0,-2.291127741E-1,-1.052841991E-1,9.885647774E0
2.506401515E0,-2.362912297E-1,-1.100698411E-1,9.880862236E0
2.508827452E0,-2.362912297E-1,-1.076770201E-1,9.892826080E0
2.511253390E0,-2.338984162E-1,-1.004985496E-1,9.880862236E0
2.513679327E0,-2.219343036E-1,-9.810572863E-2,9.866504669E0
2.516105265E0,-2.386840582E-1,-1.028913707E-1,9.878469467E0
2.518531202E0,-2.195414752E-1,-1.052841991E-1,9.883255005E0
2.520957140E0,-2.315055877E-1,-1.196411327E-1,9.878469467E0
2.523383077E0,-2.338984162E-1,-1.028913707E-1,9.897611618E0
2.525809015E0,-2.386840582E-1,-1.076770201E-1,9.888040543E0
2.528234952E0,-2.291127741E-1,-1.339980662E-1,9.895218849E0
2.530660890E0,-2.410768867E-1,-8.853443712E-2,9.895218849E0
2.533086827E0,-2.410768867E-1,-9.092725813E-2,9.859326363E0
2.535512765E0,-2.650051117E-1,-1.004985496E-1,9.868897438E0
2.537938702E0,-2.338984162E-1,-1.004985496E-1,9.883255005E0
2.540364640E0,-2.338984162E-1,-1.076770201E-1,9.888040543E0
2.542790577E0,-2.338984162E-1,-9.332008660E-2,9.895218849E0
2.545216515E0,-2.362912297E-1,-9.571290761E-2,9.890433311E0
2.547642452E0,-2.434697002E-1,-1.220339537E-1,9.880862236E0
2.550068390E0,-2.338984162E-1,-1.220339537E-1,9.885647774E0
2.552494327E0,-2.458625287E-1,-1.076770201E-1,9.883255005E0
2.554920265E0,-2.315055877E-1,-1.316052526E-1,9.871291161E0
2.557346202E0,-2.267199457E-1,-1.100698411E-1,9.880862236E0
2.559772140E0,-2.267199457E-1,-9.092725813E-2,9.864111900E0
2.562198077E0,-2.434697002E-1,-1.148554832E-1,9.876076698E0
2.564624015E0,-2.386840582E-1,-1.268195957E-1,9.878469467E0
2.567049952E0,-2.315055877E-1,-9.810572863E-2,9.868897438E0
2.569475890E0,-2.434697002E-1,-1.148554832E-1,9.895218849E0
2.571901827E0,-2.434697002E-1,-1.124626622E-1,9.888040543E0
2.574327765E0,-2.434697002E-1,-1.052841991E-1,9.878469467E0
2.576753702E0,-2.362912297E-1,-1.004985496E-1,9.861719131E0
2.579179640E0,-2.219343036E-1,-1.100698411E-1,9.854540825E0
2.581605577E0,-2.267199457E-1,-1.052841991E-1,9.885647774E0
2.584031515E0,-2.338984162E-1,-1.148554832E-1,9.880862236E0
2.586457452E0,-2.410768867E-1,-1.148554832E-1,9.888040543E0
2.588883390E0,-2.291127741E-1,-1.076770201E-1,9.873683929E0
2.591309327E0,-2.315055877E-1,-1.148554832E-1,9.876076698E0
2.593735265E0,-2.362912297E-1,-1.172483116E-1,9.873683929E0
2.596161202E0,-2.267199457E-1,-1.148554832E-1,9.876076698E0
2.598587140E0,-2.195414752E-1,-1.076770201E-1,9.880862236E0
2.601013077E0,-2.386840582E-1,-1.052841991E-1,9.866504669E0
2.603439015E0,-2.315055877E-1,-1.292124242E-1,9.873683929E0
2.605864952E0,-2.434697002E-1,-1.316052526E-1,9.878469467E0
2.608290890E0,-2.386840582E-1,-1.148554832E-1,9.890433311E0
2.610716827E0,-2.267199457E-1,-1.100698411E-1,9.876076698E0
2.613142765E0,-2.386840582E-1,-1.148554832E-1,9.873683929E0
2.615568702E0,-2.291127741E-1,-1.076770201E-1,9.861719131E0
2.617994640E0,-2.171486616E-1,-1.411765367E-1,9.861719131E0
2.620420577E0,-2.530409992E-1,-1.220339537E-1,9.900004387E0
2.622846515E0,-2.434697002E-1,-1.244267747E-1,9.883255005E0
2.625272452E0,-2.482553422E-1,-1.076770201E-1,9.904789925E0
2.627698390E0,-2.219343036E-1,-1.363908947E-1,9.880862236E0
2.630124327E0,-2.482553422E-1,-1.363908947E-1,9.888040543E0
2.632550265E0,-2.458625287E-1,-1.268195957E-1,9.892826080E0
2.634976202E0,-2.315055877E-1,-1.076770201E-1,9.880862236E0
2.637402140E0,-2.315055877E-1,-1.124626622E-1,9.888040543E0
2.639828077E0,-2.410768867E-1,-1.100698411E-1,9.878469467E0
2.642254015E0,-2.410768867E-1,-1.052841991E-1,9.871291161E0
2.644679952E0,-2.434697002E-1,-1.076770201E-1,9.907182693E0
2.647105890E0,-2.123630047E-1,-1.244267747E-1,9.885647774E0
2.649531827E0,-2.267199457E-1,-1.172483116E-1,9.892826080E0
2.651957765E0,-2.458625287E-1,-1.148554832E-1,9.878469467E0
2.654383702E0,-2.338984162E-1,-1.004985496E-1,9.873683929E0
2.656809640E0,-2.315055877E-1,-1.172483116E-1,9.866504669E0
2.659235577E0,-2.386840582E-1,-1.196411327E-1,9.880862236E0
2.661661515E0,-2.243271172E-1,-1.052841991E-1,9.892826080E0
2.664087452E0,-2.458625287E-1,-9.092725813E-2,9.864111900E0
2.666513390E0,-2.434697002E-1,-1.196411327E-1,9.876076698E0
2.668939327E0,-2.315055877E-1,-1.268195957E-1,9.873683929E0
2.671365265E0,-2.338984162E-1,-1.028913707E-1,9.890433311E0
2.673791202E0,-2.386840582E-1,-1.292124242E-1,9.890433311E0
2.676217140E0,-2.171486616E-1,-1.268195957E-1,9.878469467E0
2.678643077E0,-2.267199457E-1,-1.100698411E-1,9.897611618E0
2.681069015E0,-2.362912297E-1,-1.172483116E-1,9.890433311E0
2.683494952E0,-2.267199457E-1,-9.810572863E-2,9.902397156E0
2.685920890E0,-2.123630047E-1,-1.124626622E-1,9.871291161E0
2.688346827E0,-2.338984162E-1,-1.196411327E-1,9.885647774E0
2.690772765E0,-2.315055877E-1,-1.196411327E-1,9.890433311E0
2.693198702E0,-2.291127741E-1,-1.076770201E-1,9.876076698E0
2.695624640E0,-2.530409992E-1,-1.076770201E-1,9.878469467E0
2.698050577E0,-2.362912297E-1,-1.268195957E-1,9.876076698E0
2.700476515E0,-2.362912297E-1,-1.052841991E-1,9.897611618E0
2.702902452E0,-2.458625287E-1,-9.332008660E-2,9.883255005E0
2.705328390E0,-2.458625287E-1,-9.571290761E-2,9.888040543E0
2.707754327E0,-2.506481707E-1,-9.332008660E-2,9.861719131E0
2.710180265E0,-2.458625287E-1,-1.316052526E-1,9.878469467E0
2.712606202E0,-2.291127741E-1,-1.124626622E-1,9.883255005E0
2.715032140E0,-2.171486616E-1,-1.076770201E-1,9.880862236E0
2.717458077E0,-2.410768867E-1,-1.004985496E-1,9.861719131E0
2.719884015E0,-2.195414752E-1,-1.244267747E-1,9.888040543E0
2.722309952E0,-2.219343036E-1,-1.196411327E-1,9.897611618E0
2.724735890E0,-2.315055877E-1,-1.100698411E-1,9.880862236E0
2.727161827E0,-2.219343036E-1,-1.172483116E-1,9.892826080E0
2.729587765E0,-2.338984162E-1,-1.292124242E-1,9.878469467E0
2.732013702E0,-2.315055877E-1,-1.100698411E-1,9.859326363E0
2.734439640E0,-2.219343036E-1,-1.052841991E-1,9.888040543E0
2.736865577E0,-2.458625287E-1,-9.571290761E-2,9.878469467E0
2.739291515E0,-2.219343036E-1,-1.148554832E-1,9.883255005E0
2.741717452E0,-2.338984162E-1,-1.196411327E-1,9.883255005E0
2.744143390E0,-2.243271172E-1,-9.332008660E-2,9.897611618E0
2.746569327E0,-2.315055877E-1,-1.100698411E-1,9.868897438E0
2.748995265E0,-2.267199457E-1,-1.172483116E-1,9.888040543E0
2.751421202E0,-2.291127741E-1,-1.124626622E-1,9.871291161E0
2.753847140E0,-2.123630047E-1,-9.810572863E-2,9.876076698E0
2.756273077E0,-2.051845491E-1,-1.124626622E-1,9.859326363E0
2.758698963E0,-2.267199457E-1,-1.028913707E-1,9.883255005E0
2.761124900E0,-2.219343036E-1,-9.571290761E-2,9.880862236E0
2.763550890E0,-2.315055877E-1,-1.172483116E-1,9.885647774E0
2.765976827E0,-2.338984162E-1,-1.316052526E-1,9.880862236E0
2.768402713E0,-2.578266263E-1,-1.244267747E-1,9.885647774E0
2.770828702E0,-2.315055877E-1,-1.172483116E-1,9.883255005E0
2.773254640E0,-2.291127741E-1,-1.052841991E-1,9.885647774E0
2.775680577E0,-2.003988922E-1,-8.614161611E-2,9.864111900E0
2.778106463E0,-2.147558331E-1,-1.004985496E-1,9.885647774E0
2.780532400E0,-2.338984162E-1,-1.244267747E-1,9.888040543E0
2.782958390E0,-2.267199457E-1,-1.004985496E-1,9.880862236E0
2.785384275E0,-2.554338276E-1,-1.268195957E-1,9.885647774E0
2.787810213E0,-2.315055877E-1,-1.148554832E-1,9.873683929E0
2.790236150E0,-2.458625287E-1,-1.268195957E-1,9.902397156E0
2.792662140E0,-2.171486616E-1,-1.196411327E-1,9.888040543E0
2.795088025E0,-2.458625287E-1,-1.196411327E-1,9.864111900E0
2.797513963E0,-2.267199457E-1,-8.614161611E-2,9.897611618E0
2.799939900E0,-2.410768867E-1,-9.810572863E-2,9.897611618E0
2.802365838E0,-2.267199457E-1,-1.004985496E-1,9.871291161E0
2.804791775E0,-2.315055877E-1,-1.124626622E-1,9.878469467E0
2.807217713E0,-2.410768867E-1,-1.172483116E-1,9.883255005E0
2.809643650E0,-2.267199457E-1,-9.571290761E-2,9.885647774E0
2.812069588E0,-2.338984162E-1,-1.172483116E-1,9.888040543E0
2.814495525E0,-2.291127741E-1,-1.172483116E-1,9.902397156E0
2.816921463E0,-2.219343036E-1,-1.148554832E-1,9.909575462E0
2.819347400E0,-2.554338276E-1,-1.100698411E-1,9.883255005E0
2.821773338E0,-2.530409992E-1,-8.614161611E-2,9.888040543E0
2.824199275E0,-2.291127741E-1,-8.853443712E-2,9.880862236E0
2.826625213E0,-2.506481707E-1,-1.339980662E-1,9.890433311E0
2.829051150E0,-2.386840582E-1,-1.220339537E-1,9.885647774E0
2.831477088E0,-2.482553422E-1,-9.810572863E-2,9.892826080E0
2.833903025E0,-2.267199457E-1,-1.028913707E-1,9.883255005E0
2.836328963E0,-2.123630047E-1,-9.332008660E-2,9.873683929E0
2.838754900E0,-2.482553422E-1,-1.220339537E-1,9.890433311E0
2.841180838E0,-2.171486616E-1,-1.004985496E-1,9.897611618E0
2.843606775E0,-2.362912297E-1,-1.100698411E-1,9.876076698E0
2.846032713E0,-2.123630047E-1,-9.332008660E-2,9.900004387E0
2.848458650E0,-2.147558331E-1,-1.052841991E-1,9.888040543E0
2.850884588E0,-2.315055877E-1,-9.571290761E-2,9.878469467E0
2.853310525E0,-2.195414752E-1,-1.220339537E-1,9.883255005E0
2.855736463E0,-2.267199457E-1,-9.092725813E-2,9.873683929E0
2.858162400E0,-2.219343036E-1,-9.092725813E-2,9.871291161E0
2.860588338E0,-2.051845491E-1,-1.339980662E-1,9.876076698E0
2.863014275E0,-2.195414752E-1,-1.268195957E-1,9.873683929E0
2.865440213E0,-2.267199457E-1,-1.220339537E-1,9.890433311E0
2.867866150E0,-2.219343036E-1,-1.100698411E-1,9.878469467E0
2.870292088E0,-2.434697002E-1,-1.268195957E-1,9.888040543E0
2.872718025E0,-2.410768867E-1,-1.172483116E-1,9.895218849E0
2.875143963E0,-2.386840582E-1,-1.028913707E-1,9.888040543E0
2.877569900E0,-2.219343036E-1,-1.076770201E-1,9.892826080E0
2.879995838E0,-2.386840582E-1,-1.220339537E-1,9.888040543E0
2.882421775E0,-2.434697002E-1,-1.268195957E-1,9.883255005E0
2.884847713E0,-2.243271172E-1,-1.172483116E-1,9.885647774E0
2.887273650E0,-2.338984162E-1,-1.052841991E-1,9.878469467E0
2.889699588E0,-2.291127741E-1,-1.196411327E-1,9.873683929E0
2.892125525E0,-2.219343036E-1,-1.100698411E-1,9.885647774E0
2.894551463E0,-2.123630047E-1,-1.316052526E-1,9.866504669E0
2.896977400E0,-2.458625287E-1,-1.339980662E-1,9.900004387E0
2.899403338E0,-2.219343036E-1,-1.124626622E-1,9.907182693E0
2.901829275E0,-2.315055877E-1,-1.244267747E-1,9.897611618E0
2.904255213E0,-2.554338276E-1,-1.220339537E-1,9.873683929E0
2.906681150E0,-2.482553422E-1,-1.339980662E-1,9.871291161E0
2.909107088E0,-2.147558331E-1,-9.332008660E-2,9.892826080E0
2.911533025E0,-2.338984162E-1,-8.853443712E-2,9.885647774E0
2.913958963E0,-2.482553422E-1,-8.853443712E-2,9.890433311E0
2.916384900E0,-2.362912297E-1,-1.052841991E-1,9.871291161E0
2.918810838E0,-2.362912297E-1,-1.172483116E-1,9.890433311E0
2.921236775E0,-2.410768867E-1,-1.100698411E-1,9.895218849E0
2.923662713E0,-2.458625287E-1,-9.092725813E-2,9.892826080E0
2.926088650E0,-2.386840582E-1,-8.853443712E-2,9.854540825E0
2.928514588E0,-2.123630047E-1,-1.052841991E-1,9.861719131E0
2.930940525E0,-2.195414752E-1,-1.100698411E-1,9.883255005E0
2.933366463E0,-2.338984162E-1,-1.220339537E-1,9.876076698E0
2.935792400E0,-2.362912297E-1,-1.076770201E-1,9.871291161E0
2.938218338E0,-2.386840582E-1,-1.244267747E-1,9.871291161E0
2.940644275E0,-2.506481707E-1,-1.220339537E-1,9.878469467E0
2.943070213E0,-2.291127741E-1,-1.076770201E-1,9.890433311E0
2.945496150E0,-2.506481707E-1,-1.172483116E-1,9.861719131E0
2.947922088E0,-2.243271172E-1,-1.148554832E-1,9.866504669E0
2.950348025E0,-2.243271172E-1,-1.028913707E-1,9.895218849E0
2.952773963E0,-2.506481707E-1,-1.076770201E-1,9.904789925E0
2.955199900E0,-2.051845491E-1,-1.052841991E-1,9.890433311E0
2.957625838E0,-2.267199457E-1,-1.124626622E-1,9.876076698E0
2.960051775E0,-2.315055877E-1,-9.571290761E-2,9.876076698E0
2.962477713E0,-2.267199457E-1,-1.028913707E-1,9.861719131E0
2.964903650E0,-2.075773627E-1,-1.124626622E-1,9.864111900E0
2.967329588E0,-2.123630047E-1,-1.052841991E-1,9.873683929E0
2.969755525E0,-2.171486616E-1,-1.076770201E-1,9.892826080E0
2.972181463E0,-2.530409992E-1,-1.172483116E-1,9.864111900E0
2.974607400E0,-2.530409992E-1,-1.124626622E-1,9.871291161E0
2.977033338E0,-2.434697002E-1,-1.004985496E-1,9.873683929E0
2.979459275E0,-2.386840582E-1,-9.332008660E-2,9.876076698E0
2.981885213E0,-2.410768867E-1,-1.100698411E-1,9.883255005E0
2.984311150E0,-2.315055877E-1,-1.028913707E-1,9.873683929E0
2.986737088E0,-2.434697002E-1,-1.100698411E-1,9.880862236E0
2.989163025E0,-2.578266263E-1,-1.124626622E-1,9.868897438E0
2.991588963E0,-2.243271172E-1,-1.100698411E-1,9.883255005E0
2.994014900E0,-2.338984162E-1,-1.052841991E-1,9.861719131E0
2.996440838E0,-2.434697002E-1,-1.244267747E-1,9.888040543E0
2.998866775E0,-2.291127741E-1,-1.004985496E-1,9.885647774E0
3.001292713E0,-2.291127741E-1,-1.028913707E-1,9.880862236E0
3.003718650E0,-2.458625287E-1,-1.100698411E-1,9.871291161E0
3.006144588E0,-2.243271172E-1,-1.076770201E-1,9.883255005E0
3.008570525E0,-2.171486616E-1,-1.172483116E-1,9.852148056E0
3.010996463E0,-2.458625287E-1,-1.339980662E-1,9.856933594E0
3.013422400E0,-2.362912297E-1,-1.028913707E-1,9.883255005E0
3.015848338E0,-2.410768867E-1,-1.052841991E-1,9.892826080E0
3.018274275E0,-2.434697002E-1,-1.004985496E-1,9.888040543E0
3.020700213E0,-2.482553422E-1,-1.076770201E-1,9.876076698E0
3.023126150E0,-2.338984162E-1,-1.172483116E-1,9.890433311E0
3.025552088E0,-2.362912297E-1,-9.332008660E-2,9.873683929E0
3.027978025E0,-2.291127741E-1,-1.004985496E-1,9.907182693E0
3.030403963E0,-2.147558331E-1,-1.292124242E-1,9.878469467E0
3.032829900E0,-2.099701911E-1,-1.052841991E-1,9.861719131E0
3.035255838E0,-2.219343036E-1,-1.172483116E-1,9.878469467E0
3.037681775E0,-2.362912297E-1,-1.148554832E-1,9.876076698E0
3.040107661E0,-2.267199457E-1,-1.100698411E-1,9.909575462E0
3.042533650E0,-2.458625287E-1,-1.028913707E-1,9.895218849E0
3.044959588E0,-2.267199457E-1,-9.571290761E-2,9.878469467E0
3.047385525E0,-2.315055877E-1,-1.148554832E-1,9.868897438E0
3.049811463E0,-2.171486616E-1,-1.052841991E-1,9.888040543E0
3.052237348E0,-2.338984162E-1,-1.148554832E-1,9.880862236E0
3.054663286E0,-2.315055877E-1,-1.004985496E-1,9.883255005E0
3.057089223E0,-2.267199457E-1,-9.571290761E-2,9.871291161E0
3.059515161E0,-2.243271172E-1,-1.076770201E-1,9.868897438E0
3.061941098E0,-2.195414752E-1,-1.339980662E-1,9.895218849E0
3.064367088E0,-2.267199457E-1,-1.148554832E-1,9.868897438E0
3.066792973E0,-2.267199457E-1,-1.076770201E-1,9.885647774E0
3.069218911E0,-2.123630047E-1,-1.004985496E-1,9.888040543E0
3.071644848E0,-2.458625287E-1,-1.268195957E-1,9.859326363E0
3.074070786E0,-2.602194548E-1,-1.316052526E-1,9.868897438E0
3.076496723E0,-2.267199457E-1,-1.124626622E-1,9.876076698E0
3.078922661E0,-2.267199457E-1,-1.076770201E-1,9.880862236E0
3.081348598E0,-2.410768867E-1,-1.196411327E-1,9.895218849E0
3.083774536E0,-2.386840582E-1,-1.052841991E-1,9.890433311E0
3.086200473E0,-2.243271172E-1,-1.052841991E-1,9.868897438E0
3.088626411E0,-2.434697002E-1,-1.100698411E-1,9.873683929E0
3.091052348E0,-2.482553422E-1,-7.896314561E-2,9.871291161E0
3.093478286E0,-2.386840582E-1,-1.004985496E-1,9.902397156E0
3.095904223E0,-2.099701911E-1,-1.052841991E-1,9.890433311E0
3.098330161E0,-2.147558331E-1,-8.374879509E-2,9.880862236E0
3.100756098E0,-2.219343036E-1,-1.100698411E-1,9.897611618E0
3.103182036E0,-2.386840582E-1,-8.853443712E-2,9.859326363E0
3.105607973E0,-2.362912297E-1,-1.004985496E-1,9.873683929E0
3.108033911E0,-2.291127741E-1,-1.363908947E-1,9.880862236E0
3.110459848E0,-2.267199457E-1,-1.196411327E-1,9.892826080E0
3.112885786E0,-2.434697002E-1,-9.092725813E-2,9.880862236E0
3.115311723E0,-2.434697002E-1,-1.148554832E-1,9.904789925E0
3.117737661E0,-2.243271172E-1,-1.028913707E-1,9.904789925E0
3.120163598E0,-2.291127741E-1,-1.076770201E-1,9.878469467E0
3.122589536E0,-2.315055877E-1,-1.100698411E-1,9.904789925E0
3.125015473E0,-2.650051117E-1,-1.244267747E-1,9.904789925E0
3.127441411E0,-2.291127741E-1,-9.810572863E-2,9.883255005E0
3.129867348E0,-2.338984162E-1,-1.076770201E-1,9.897611618E0
3.132293286E0,-2.482553422E-1,-1.316052526E-1,9.873683929E0
3.134719223E0,-2.171486616E-1,-1.196411327E-1,9.864111900E0
3.137145161E0,-2.291127741E-1,-8.853443712E-2,9.885647774E0
3.139571098E0,-2.195414752E-1,-9.571290761E-2,9.880862236E0
3.141997036E0,-2.362912297E-1,-1.196411327E-1,9.864111900E0
3.144422973E0,-2.434697002E-1,-1.028913707E-1,9.866504669E0
3.146848911E0,-2.482553422E-1,-1.220339537E-1,9.868897438E0
3.149274848E0,-2.506481707E-1,-1.148554832E-1,9.878469467E0
3.151700786E0,-2.434697002E-1,-1.052841991E-1,9.866504669E0
3.154126723E0,-2.362912297E-1,-1.076770201E-1,9.868897438E0
3.156552661E0,-2.195414752E-1,-1.100698411E-1,9.873683929E0
3.158978598E0,-2.195414752E-1,-1.100698411E-1,9.861719131E0
3.161404536E0,-2.458625287E-1,-1.076770201E-1,9.856933594E0
3.163830473E0,-2.386840582E-1,-1.076770201E-1,9.873683929E0
3.166256411E0,-2.458625287E-1,-1.220339537E-1,9.871291161E0
3.168682348E0,-2.410768867E-1,-1.220339537E-1,9.868897438E0
3.171108286E0,-2.386840582E-1,-1.076770201E-1,9.868897438E0
3.173534223E0,-2.219343036E-1,-1.268195957E-1,9.876076698E0
3.175960161E0,-2.291127741E-1,-1.363908947E-1,9.873683929E0
3.178386098E0,-2.482553422E-1,-1.004985496E-1,9.890433311E0
3.180812036E0,-2.386840582E-1,-1.292124242E-1,9.900004387E0
3.183237973E0,-2.027917206E-1,-1.100698411E-1,9.885647774E0
3.185663911E0,-2.267199457E-1,-1.004985496E-1,9.883255005E0
3.188089848E0,-2.458625287E-1,-1.100698411E-1,9.892826080E0
3.190515786E0,-2.195414752E-1,-1.387837082E-1,9.897611618E0
3.192941723E0,-2.338984162E-1,-1.100698411E-1,9.885647774E0
3.195367661E0,-2.362912297E-1,-1.052841991E-1,9.895218849E0
3.197793598E0,-2.362912297E-1,-8.614161611E-2,9.878469467E0
3.200219536E0,-2.386840582E-1,-9.092725813E-2,9.873683929E0
3.202645473E0,-2.362912297E-1,-9.810572863E-2,9.868897438E0
3.205071411E0,-2.243271172E-1,-1.172483116E-1,9.873683929E0
3.207497348E0,-2.506481707E-1,-1.220339537E-1,9.885647774E0
3.209923286E0,-2.554338276E-1,-1.268195957E-1,9.885647774E0
3.212349223E0,-2.410768867E-1,-1.292124242E-1,9.895218849E0
3.214775161E0,-2.482553422E-1,-1.052841991E-1,9.883255005E0
3.217201098E0,-2.099701911E-1,-8.853443712E-2,9.885647774E0
3.219627036E0,-2.267199457E-1,-9.810572863E-2,9.883255005E0
3.222052973E0,-2.147558331E-1,-1.052841991E-1,9.873683929E0
3.224478911E0,-2.362912297E-1,-1.124626622E-1,9.897611618E0
3.226904848E0,-2.243271172E-1,-1.148554832E-1,9.866504669E0
3.229330786E0,-2.434697002E-1,-1.363908947E-1,9.883255005E0
3.231756723E0,-2.506481707E-1,-9.810572863E-2,9.883255005E0
3.234182661E0,-2.386840582E-1,-1.052841991E-1,9.885647774E0
3.236608598E0,-2.506481707E-1,-1.076770201E-1,9.871291161E0
3.239034536E0,-2.482553422E-1,-1.028913707E-1,9.895218849E0
3.241460473E0,-2.195414752E-1,-1.148554832E-1,9.866504669E0
3.243886411E0,-2.410768867E-1,-1.268195957E-1,9.868897438E0
3.246312348E0,-2.362912297E-1,-1.292124242E-1,9.856933594E0
3.248738286E0,-2.386840582E-1,-1.076770201E-1,9.876076698E0
3.251164223E0,-2.530409992E-1,-9.810572863E-2,9.878469467E0
3.253590161E0,-2.530409992E-1,-1.172483116E-1,9.883255005E0
3.256016098E0,-2.410768867E-1,-1.148554832E-1,9.866504669E0
3.258442036E0,-2.123630047E-1,-1.124626622E-1,9.916754723E0
3.260867973E0,-2.362912297E-1,-1.124626622E-1,9.890433311E0
3.263293911E0,-2.458625287E-1,-1.244267747E-1,9.866504669E0
3.265719848E0,-2.410768867E-1,-1.124626622E-1,9.873683929E0
3.268145786E0,-2.410768867E-1,-1.148554832E-1,9.883255005E0
3.270571723E0,-2.386840582E-1,-9.332008660E-2,9.890433311E0
3.272997661E0,-2.338984162E-1,-1.268195957E-1,9.885647774E0
3.275423598E0,-2.506481707E-1,-1.172483116E-1,9.868897438E0
3.277849536E0,-2.482553422E-1,-1.292124242E-1,9.878469467E0
3.280275473E0,-2.482553422E-1,-1.268195957E-1,9.856933594E0
3.282701411E0,-2.291127741E-1,-1.148554832E-1,9.888040543E0
3.285127348E0,-2.219343036E-1,-1.076770201E-1,9.888040543E0
3.287553286E0,-2.267199457E-1,-9.571290761E-2,9.885647774E0
3.289979223E0,-2.338984162E-1,-1.052841991E-1,9.895218849E0
3.292405161E0,-2.338984162E-1,-1.268195957E-1,9.876076698E0
3.294831098E0,-2.362912297E-1,-1.100698411E-1,9.883255005E0
3.297257036E0,-2.291127741E-1,-1.100698411E-1,9.892826080E0
3.299682921E0,-2.219343036E-1,-1.004985496E-1,9.878469467E0
3.302108911E0,-2.147558331E-1,-1.268195957E-1,9.883255005E0
3.304534848E0,-2.458625287E-1,-9.092725813E-2,9.895218849E0
3.306960786E0,-2.338984162E-1,-1.220339537E-1,9.880862236E0
3.309386671E0,-2.171486616E-1,-1.172483116E-1,9.871291161E0
3.311812661E0,-2.027917206E-1,-9.092725813E-2,9.885647774E0
3.314238598E0,-2.362912297E-1,-1.100698411E-1,9.888040543E0
3.316664536E0,-2.267199457E-1,-8.853443712E-2,9.878469467E0
3.319090473E0,-2.315055877E-1,-1.196411327E-1,9.883255005E0
3.321516411E0,-2.458625287E-1,-1.148554832E-1,9.885647774E0
3.323942296E0,-2.530409992E-1,-1.148554832E-1,9.880862236E0
3.326368233E0,-2.434697002E-1,-1.124626622E-1,9.880862236E0
3.328794171E0,-2.362912297E-1,-1.148554832E-1,9.892826080E0
3.331220108E0,-2.482553422E-1,-1.052841991E-1,9.883255005E0
3.333646046E0,-2.410768867E-1,-1.220339537E-1,9.890433311E0
3.336071983E0,-2.099701911E-1,-1.100698411E-1,9.883255005E0
3.338497921E0,-2.027917206E-1,-1.220339537E-1,9.871291161E0
3.340923858E0,-2.027917206E-1,-1.268195957E-1,9.883255005E0
3.343349796E0,-2.410768867E-1,-1.268195957E-1,9.897611618E0
3.345775733E0,-2.458625287E-1,-1.052841991E-1,9.895218849E0
3.348201671E0,-2.673979402E-1,-1.004985496E-1,9.880862236E0
3.350627608E0,-2.386840582E-1,-1.052841991E-1,9.868897438E0
3.353053546E0,-2.338984162E-1,-9.810572863E-2,9.876076698E0
3.355479483E0,-2.338984162E-1,-9.810572863E-2,9.890433311E0
3.357905421E0,-2.267199457E-1,-9.810572863E-2,9.907182693E0
3.360331358E0,-2.267199457E-1,-1.339980662E-1,9.890433311E0
3.362757296E0,-2.578266263E-1,-1.268195957E-1,9.883255005E0
3.365183233E0,-2.315055877E-1,-1.028913707E-1,9.878469467E0
3.367609171E0,-2.362912297E-1,-1.004985496E-1,9.876076698E0
3.370035108E0,-2.291127741E-1,-1.124626622E-1,9.900004387E0
3.372461046E0,-2.362912297E-1,-1.172483116E-1,9.902397156E0
3.374886983E0,-2.243271172E-1,-1.148554832E-1,9.890433311E0
3.377312921E0,-2.243271172E-1,-1.268195957E-1,9.852148056E0
3.379738858E0,-2.530409992E-1,-1.172483116E-1,9.892826080E0
3.382164796E0,-2.267199457E-1,-1.028913707E-1,9.900004387E0
3.384590733E0,-2.338984162E-1,-1.100698411E-1,9.904789925E0
3.387016671E0,-2.338984162E-1,-1.124626622E-1,9.885647774E0
3.389442608E0,-2.267199457E-1,-1.148554832E-1,9.888040543E0
3.391868546E0,-2.243271172E-1,-1.292124242E-1,9.885647774E0
3.394294483E0,-2.386840582E-1,-1.220339537E-1,9.878469467E0
3.396720421E0,-2.171486616E-1,-1.076770201E-1,9.871291161E0
3.399146358E0,-2.123630047E-1,-1.148554832E-1,9.890433311E0
3.401572296E0,-2.147558331E-1,-1.076770201E-1,9.885647774E0
3.403998233E0,-2.386840582E-1,-1.268195957E-1,9.880862236E0
3.406424171E0,-2.243271172E-1,-1.172483116E-1,9.897611618E0
3.408850108E0,-2.578266263E-1,-1.196411327E-1,9.900004387E0
3.411276046E0,-2.434697002E-1,-1.004985496E-1,9.909575462E0
3.413701983E0,-2.171486616E-1,-1.339980662E-1,9.904789925E0
3.416127921E0,-2.075773627E-1,-1.100698411E-1,9.885647774E0
3.418553858E0,-2.386840582E-1,-1.028913707E-1,9.883255005E0
3.420979796E0,-2.315055877E-1,-1.148554832E-1,9.873683929E0
3.423405733E0,-2.243271172E-1,-9.332008660E-2,9.888040543E0
3.425831671E0,-2.458625287E-1,-1.244267747E-1,9.880862236E0
3.428257608E0,-2.362912297E-1,-1.028913707E-1,9.873683929E0
3.430683546E0,-2.458625287E-1,-1.387837082E-1,9.871291161E0
3.433109483E0,-2.219343036E-1,-1.316052526E-1,9.883255005E0
3.435535421E0,-2.410768867E-1,-1.076770201E-1,9.888040543E0
3.437961358E0,-2.386840582E-1,-1.172483116E-1,9.890433311E0
3.440387296E0,-2.243271172E-1,-8.614161611E-2,9.888040543E0
3.442813233E0,-2.243271172E-1,-8.853443712E-2,9.883255005E0
3.445239171E0,-2.386840582E-1,-9.092725813E-2,9.878469467E0
3.447665108E0,-2.195414752E-1,-1.076770201E-1,9.876076698E0
3.450091046E0,-2.243271172E-1,-1.172483116E-1,9.878469467E0
3.452516983E0,-2.338984162E-1,-1.196411327E-1,9.892826080E0
3.454942921E0,-2.506481707E-1,-1.196411327E-1,9.885647774E0
3.457368858E0,-2.362912297E-1,-1.339980662E-1,9.873683929E0
3.459794796E0,-2.386840582E-1,-1.196411327E-1,9.880862236E0
3.462220733E0,-2.219343036E-1,-1.052841991E-1,9.895218849E0
3.464646671E0,-2.291127741E-1,-1.100698411E-1,9.871291161E0
3.467072608E0,-2.362912297E-1,-1.052841991E-1,9.876076698E0
3.469498546E0,-2.315055877E-1,-1.028913707E-1,9.878469467E0
3.471924483E0,-2.338984162E-1,-8.374879509E-2,9.878469467E0
3.474350421E0,-2.147558331E-1,-1.004985496E-1,9.888040543E0
3.476776358E0,-2.267199457E-1,-1.196411327E-1,9.866504669E0
3.479202296E0,-2.434697002E-1,-1.339980662E-1,9.873683929E0
3.481628233E0,-2.410768867E-1,-1.124626622E-1,9.888040543E0
3.484054171E0,-2.243271172E-1,-1.292124242E-1,9.892826080E0
3.486480108E0,-2.338984162E-1,-1.004985496E-1,9.883255005E0
3.488906046E0,-2.219343036E-1,-1.244267747E-1,9.895218849E0
3.491331983E0,-2.219343036E-1,-1.028913707E-1,9.880862236E0
3.493757921E0,-2.195414752E-1,-1.028913707E-1,9.888040543E0
3.496183858E0,-2.554338276E-1,-1.268195957E-1,9.888040543E0
3.498609796E0,-2.434697002E-1,-9.092725813E-2,9.883255005E0
3.501035733E0,-2.386840582E-1,-1.076770201E-1,9.885647774E0
3.503461671E0,-2.554338276E-1,-1.196411327E-1,9.868897438E0
3.505887608E0,-2.267199457E-1,-1.196411327E-1,9.861719131E0
3.508313546E0,-2.482553422E-1,-1.028913707E-1,9.866504669E0
3.510739483E0,-2.219343036E-1,-1.052841991E-1,9.878469467E0
3.513165421E0,-2.410768867E-1,-1.268195957E-1,9.885647774E0
3.515591358E0,-2.386840582E-1,-1.100698411E-1,9.873683929E0
3.518017296E0,-2.506481707E-1,-1.052841991E-1,9.873683929E0
3.520443233E0,-2.267199457E-1,-9.332008660E-2,9.861719131E0
3.522869171E0,-2.291127741E-1,-1.052841991E-1,9.885647774E0
3.525295108E0,-2.243271172E-1,-1.196411327E-1,9.911968231E0
3.527721046E0,-2.171486616E-1,-1.172483116E-1,9.880862236E0
3.530146983E0,-2.482553422E-1,-1.004985496E-1,9.873683929E0
3.532572921E0,-2.315055877E-1,-1.244267747E-1,9.888040543E0
3.534998858E0,-2.219343036E-1,-1.172483116E-1,9.895218849E0
3.537424796E0,-2.195414752E-1,-1.124626622E-1,9.883255005E0
3.539850733E0,-2.458625287E-1,-1.100698411E-1,9.880862236E0
3.542276671E0,-2.434697002E-1,-1.028913707E-1,9.888040543E0
3.544702556E0,-2.434697002E-1,-1.076770201E-1,9.897611618E0
3.547128546E0,-2.434697002E-1,-1.244267747E-1,9.876076698E0
3.549554483E0,-2.650051117E-1,-1.292124242E-1,9.885647774E0
3.551980421E0,-2.315055877E-1,-1.148554832E-1,9.873683929E0
3.554406358E0,-2.147558331E-1,-1.124626622E-1,9.888040543E0
3.556832296E0,-2.338984162E-1,-1.028913707E-1,9.885647774E0
3.559258233E0,-2.578266263E-1,-9.810572863E-2,9.890433311E0
3.561684171E0,-2.075773627E-1,-1.028913707E-1,9.900004387E0
3.564110056E0,-2.410768867E-1,-1.028913707E-1,9.878469467E0
3.566536046E0,-2.315055877E-1,-1.124626622E-1,9.895218849E0
3.568961983E0,-2.410768867E-1,-1.052841991E-1,9.885647774E0
3.571387869E0,-2.147558331E-1,-9.332008660E-2,9.876076698E0
3.573813858E0,-2.410768867E-1,-9.810572863E-2,9.864111900E0
3.576239744E0,-2.434697002E-1,-1.124626622E-1,9.900004387E0
3.578665681E0,-2.171486616E-1,-1.148554832E-1,9.868897438E0
3.581091619E0,-2.291127741E-1,-1.339980662E-1,9.880862236E0
3.583517556E0,-2.219343036E-1,-1.172483116E-1,9.885647774E0
3.585943494E0,-2.291127741E-1,-1.148554832E-1,9.885647774E0
3.588369431E0,-2.410768867E-1,-1.076770201E-1,9.892826080E0
3.590795369E0,-2.578266263E-1,-1.268195957E-1,9.873683929E0
3.593221306E0,-2.386840582E-1,-1.076770201E-1,9.900004387E0
3.595647244E0,-2.291127741E-1,-8.614161611E-2,9.897611618E0
3.598073181E0,-2.362912297E-1,-1.316052526E-1,9.902397156E0
3.600499119E0,-2.291127741E-1,-1.052841991E-1,9.888040543E0
3.602925056E0,-2.195414752E-1,-9.092725813E-2,9.902397156E0
3.605350994E0,-2.243271172E-1,-9.332008660E-2,9.876076698E0
3.607776931E0,-2.147558331E-1,-1.124626622E-1,9.885647774E0
3.610202869E0,-2.171486616E-1,-9.571290761E-2,9.897611618E0
3.612628806E0,-2.219343036E-1,-8.614161611E-2,9.895218849E0
3.615054744E0,-2.410768867E-1,-9.810572863E-2,9.885647774E0
3.617480681E0,-2.410768867E-1,-1.244267747E-1,9.885647774E0
3.619906619E0,-2.506481707E-1,-1.220339537E-1,9.895218849E0
3.622332556E0,-2.530409992E-1,-1.028913707E-1,9.895218849E0
3.624758494E0,-2.315055877E-1,-1.172483116E-1,9.876076698E0
3.627184431E0,-2.267199457E-1,-1.196411327E-1,9.864111900E0
3.629610369E0,-2.219343036E-1,-1.244267747E-1,9.861719131E0
3.632036306E0,-2.291127741E-1,-1.100698411E-1,9.876076698E0
3.634462244E0,-2.482553422E-1,-1.076770201E-1,9.885647774E0
3.636888181E0,-2.362912297E-1,-1.196411327E-1,9.907182693E0
3.639314119E0,-2.434697002E-1,-1.148554832E-1,9.883255005E0
3.641740056E0,-2.171486616E-1,-9.810572863E-2,9.876076698E0
3.644165994E0,-2.554338276E-1,-1.100698411E-1,9.866504669E0
3.646591931E0,-2.027917206E-1,-1.316052526E-1,9.880862236E0
3.649017869E0,-2.099701911E-1,-1.220339537E-1,9.902397156E0
3.651443806E0,-2.267199457E-1,-1.124626622E-1,9.883255005E0
3.653869744E0,-2.386840582E-1,-1.076770201E-1,9.873683929E0
3.656295681E0,-2.147558331E-1,-1.292124242E-1,9.864111900E0
3.658721619E0,-2.386840582E-1,-1.148554832E-1,9.883255005E0
3.661147556E0,-2.386840582E-1,-9.092725813E-2,9.892826080E0
3.663573494E0,-2.338984162E-1,-9.810572863E-2,9.890433311E0
3.665999431E0,-2.267199457E-1,-1.220339537E-1,9.878469467E0
3.668425369E0,-2.482553422E-1,-1.100698411E-1,9.871291161E0
3.670851306E0,-2.434697002E-1,-9.571290761E-2,9.876076698E0
3.673277244E0,-2.338984162E-1,-1.148554832E-1,9.888040543E0
3.675703181E0,-2.362912297E-1,-9.810572863E-2,9.890433311E0
3.678129119E0,-2.315055877E-1,-1.196411327E-1,9.895218849E0
3.680555056E0,-2.315055877E-1,-1.028913707E-1,9.878469467E0
3.682980994E0,-2.386840582E-1,-1.076770201E-1,9.880862236E0
3.685406931E0,-2.219343036E-1,-1.148554832E-1,9.880862236E0
3.687832869E0,-2.362912297E-1,-1.100698411E-1,9.892826080E0
3.690258806E0,-2.099701911E-1,-1.220339537E-1,9.890433311E0
3.692684744E0,-2.386840582E-1,-9.571290761E-2,9.878469467E0
3.695110681E0,-2.027917206E-1,-1.124626622E-1,9.880862236E0
3.697536619E0,-2.219343036E-1,-1.028913707E-1,9.890433311E0
3.699962556E0,-2.434697002E-1,-1.172483116E-1,9.888040543E0
3.702388494E0,-2.243271172E-1,-1.148554832E-1,9.883255005E0
3.704814431E0,-2.434697002E-1,-1.100698411E-1,9.871291161E0
3.707240369E0,-2.195414752E-1,-1.100698411E-1,9.871291161E0
3.709666306E0,-2.410768867E-1,-9.810572863E-2,9.897611618E0
3.712092244E0,-2.386840582E-1,-1.124626622E-1,9.895218849E0
3.714518181E0,-2.219343036E-1,-1.028913707E-1,9.895218849E0
3.716944119E0,-2.338984162E-1,-1.172483116E-1,9.883255005E0
3.719370056E0,-2.386840582E-1,-1.292124242E-1,9.904789925E0
3.721795994E0,-2.147558331E-1,-1.339980662E-1,9.890433311E0
3.724221931E0,-2.338984162E-1,-1.028913707E-1,9.878469467E0
3.726647869E0,-2.315055877E-1,-1.244267747E-1,9.880862236E0
3.729073806E0,-2.123630047E-1,-1.100698411E-1,9.873683929E0
3.731499744E0,-2.267199457E-1,-1.100698411E-1,9.880862236E0
3.733925681E0,-2.291127741E-1,-1.196411327E-1,9.871291161E0
3.736351619E0,-2.458625287E-1,-9.810572863E-2,9.900004387E0
3.738777556E0,-2.315055877E-1,-9.092725813E-2,9.873683929E0
3.741203494E0,-2.410768867E-1,-1.196411327E-1,9.876076698E0
3.743629431E0,-2.147558331E-1,-1.172483116E-1,9.892826080E0
3.746055369E0,-2.315055877E-1,-1.172483116E-1,9.876076698E0
3.748481306E0,-2.195414752E-1,-1.148554832E-1,9.902397156E0
3.750907244E0,-2.410768867E-1,-1.148554832E-1,9.885647774E0
3.753333181E0,-2.291127741E-1,-1.076770201E-1,9.888040543E0
3.755759119E0,-2.171486616E-1,-1.316052526E-1,9.883255005E0
3.758185056E0,-2.075773627E-1,-1.124626622E-1,9.900004387E0
3.760610994E0,-2.482553422E-1,-9.571290761E-2,9.888040543E0
3.763036931E0,-2.362912297E-1,-9.810572863E-2,9.904789925E0
3.765462869E0,-2.338984162E-1,-1.100698411E-1,9.897611618E0
3.767888806E0,-2.362912297E-1,-1.076770201E-1,9.880862236E0
3.770314744E0,-2.267199457E-1,-1.052841991E-1,9.866504669E0
3.772740681E0,-2.386840582E-1,-9.332008660E-2,9.883255005E0
3.775166619E0,-2.434697002E-1,-9.332008660E-2,9.890433311E0
3.777592556E0,-2.267199457E-1,-1.004985496E-1,9.890433311E0
3.780018494E0,-2.338984162E-1,-1.052841991E-1,9.876076698E0
3.782444431E0,-2.147558331E-1,-1.124626622E-1,9.873683929E0
3.784870369E0,-2.075773627E-1,-1.268195957E-1,9.873683929E0
3.787296306E0,-2.338984162E-1,-1.028913707E-1,9.873683929E0
3.789722244E0,-2.291127741E-1,-1.028913707E-1,9.873683929E0
3.792148129E0,-2.506481707E-1,-1.052841991E-1,9.880862236E0
3.794574119E0,-2.434697002E-1,-1.148554832E-1,9.864111900E0
3.797000056E0,-2.147558331E-1,-1.220339537E-1,9.878469467E0
3.799425942E0,-2.171486616E-1,-1.052841991E-1,9.890433311E0
3.801851879E0,-2.458625287E-1,-1.172483116E-1,9.890433311E0
3.804277817E0,-2.243271172E-1,-1.028913707E-1,9.888040543E0
3.806703806E0,-2.291127741E-1,-1.172483116E-1,9.878469467E0
3.809129744E0,-2.315055877E-1,-1.220339537E-1,9.859326363E0
3.811555629E0,-2.171486616E-1,-1.196411327E-1,9.868897438E0
3.813981619E0,-2.386840582E-1,-9.571290761E-2,9.885647774E0
3.816407556E0,-2.315055877E-1,-1.363908947E-1,9.876076698E0
3.818833442E0,-2.338984162E-1,-1.148554832E-1,9.885647774E0
3.821259379E0,-2.051845491E-1,-1.052841991E-1,9.888040543E0
3.823685317E0,-2.267199457E-1,-1.316052526E-1,9.897611618E0
3.826111254E0,-2.315055877E-1,-1.148554832E-1,9.895218849E0
3.828537192E0,-2.195414752E-1,-1.220339537E-1,9.883255005E0
3.830963129E0,-2.147558331E-1,-1.292124242E-1,9.900004387E0
3.833389067E0,-2.099701911E-1,-1.076770201E-1,9.880862236E0
3.835815004E0,-2.195414752E-1,-1.196411327E-1,9.895218849E0
3.838240942E0,-2.338984162E-1,-1.028913707E-1,9.878469467E0
3.840666879E0,-2.554338276E-1,-9.571290761E-2,9.873683929E0
3.843092817E0,-2.315055877E-1,-1.004985496E-1,9.885647774E0
3.845518754E0,-2.291127741E-1,-1.220339537E-1,9.873683929E0
3.847944692E0,-2.338984162E-1,-1.052841991E-1,9.900004387E0
3.850370629E0,-2.267199457E-1,-9.810572863E-2,9.885647774E0
3.852796567E0,-2.506481707E-1,-1.052841991E-1,9.880862236E0
3.855222504E0,-2.530409992E-1,-1.268195957E-1,9.888040543E0
3.857648442E0,-2.386840582E-1,-1.172483116E-1,9.868897438E0
3.860074379E0,-2.338984162E-1,-1.172483116E-1,9.866504669E0
3.862500317E0,-2.338984162E-1,-1.100698411E-1,9.883255005E0
3.864926254E0,-2.338984162E-1,-1.148554832E-1,9.878469467E0
3.867352192E0,-2.362912297E-1,-1.268195957E-1,9.888040543E0
3.869778129E0,-2.554338276E-1,-9.571290761E-2,9.888040543E0
3.872204067E0,-2.554338276E-1,-1.004985496E-1,9.892826080E0
3.874630004E0,-2.243271172E-1,-1.076770201E-1,9.892826080E0
3.877055942E0,-2.338984162E-1,-1.028913707E-1,9.888040543E0
3.879481879E0,-2.410768867E-1,-9.571290761E-2,9.885647774E0
3.881907817E0,-2.315055877E-1,-8.135596663E-2,9.885647774E0
3.884333754E0,-2.315055877E-1,-1.076770201E-1,9.883255005E0
3.886759692E0,-2.362912297E-1,-1.196411327E-1,9.890433311E0
3.889185629E0,-2.315055877E-1,-9.332008660E-2,9.880862236E0
3.891611567E0,-2.362912297E-1,-1.052841991E-1,9.880862236E0
3.894037504E0,-2.171486616E-1,-1.004985496E-1,9.876076698E0
3.896463442E0,-2.243271172E-1,-9.332008660E-2,9.876076698E0
3.898889379E0,-2.219343036E-1,-9.810572863E-2,9.904789925E0
3.901315317E0,-2.410768867E-1,-1.124626622E-1,9.900004387E0
3.903741254E0,-2.267199457E-1,-9.332008660E-2,9.878469467E0
3.906167192E0,-2.243271172E-1,-1.076770201E-1,9.871291161E0
3.908593129E0,-2.410768867E-1,-1.220339537E-1,9.890433311E0
3.911019067E0,-2.315055877E-1,-8.853443712E-2,9.888040543E0
3.913445004E0,-2.123630047E-1,-9.092725813E-2,9.883255005E0
3.915870942E0,-2.410768867E-1,-1.148554832E-1,9.873683929E0
3.918296879E0,-2.195414752E-1,-1.004985496E-1,9.880862236E0
3.920722817E0,-2.482553422E-1,-1.052841991E-1,9.864111900E0
3.923148754E0,-2.123630047E-1,-1.004985496E-1,9.888040543E0
3.925574692E0,-2.243271172E-1,-9.810572863E-2,9.883255005E0
3.928000629E0,-2.267199457E-1,-8.614161611E-2,9.888040543E0
3.930426567E0,-2.386840582E-1,-9.810572863E-2,9.871291161E0
3.932852504E0,-2.315055877E-1,-1.268195957E-1,9.878469467E0
3.935278442E0,-2.506481707E-1,-9.810572863E-2,9.876076698E0
3.937704379E0,-2.219343036E-1,-1.124626622E-1,9.868897438E0
3.940130317E0,-2.267199457E-1,-1.244267747E-1,9.885647774E0
3.942556254E0,-2.219343036E-1,-1.076770201E-1,9.880862236E0
3.944982192E0,-2.291127741E-1,-1.052841991E-1,9.888040543E0
3.947408129E0,-2.219343036E-1,-1.196411327E-1,9.895218849E0
3.949834067E0,-2.291127741E-1,-9.092725813E-2,9.880862236E0
3.952260004E0,-2.410768867E-1,-9.810572863E-2,9.873683929E0
3.954685942E0,-2.362912297E-1,-8.853443712E-2,9.861719131E0
3.957111879E0,-2.315055877E-1,-1.148554832E-1,9.876076698E0
3.959537817E0,-2.458625287E-1,-1.052841991E-1,9.890433311E0
3.961963754E0,-2.338984162E-1,-1.244267747E-1,9.878469467E0
3.964389692E0,-2.362912297E-1,-1.052841991E-1,9.878469467E0
3.966815629E0,-2.458625287E-1,-1.124626622E-1,9.876076698E0
3.969241567E0,-2.386840582E-1,-1.148554832E-1,9.878469467E0
3.971667504E0,-2.626122832E-1,-1.100698411E-1,9.868897438E0
3.974093442E0,-2.482553422E-1,-1.004985496E-1,9.864111900E0
3.976519379E0,-2.315055877E-1,-8.374879509E-2,9.892826080E0
3.978945317E0,-2.506481707E-1,-1.268195957E-1,9.880862236E0
3.981371254E0,-2.530409992E-1,-1.339980662E-1,9.880862236E0
3.983797192E0,-2.386840582E-1,-1.124626622E-1,9.897611618E0
3.986223129E0,-2.315055877E-1,-1.148554832E-1,9.878469467E0
3.988649067E0,-2.315055877E-1,-1.196411327E-1,9.856933594E0
3.991075004E0,-2.291127741E-1,-1.052841991E-1,9.897611618E0
3.993500942E0,-2.338984162E-1,-9.332008660E-2,9.885647774E0
3.995926879E0,-2.434697002E-1,-1.052841991E-1,9.871291161E0
3.998352817E0,-2.458625287E-1,-1.196411327E-1,9.864111900E0
4.000778754E0,-2.530409992E-1,-1.124626622E-1,9.892826080E0
4.003204692E0,-2.434697002E-1,-1.244267747E-1,9.895218849E0
4.005630629E0,-2.554338276E-1,-1.076770201E-1,9.866504669E0
4.008056567E0,-2.362912297E-1,-8.853443712E-2,9.880862236E0
4.010482452E0,-2.195414752E-1,-1.100698411E-1,9.880862236E0
4.012908442E0,-2.410768867E-1,-9.810572863E-2,9.892826080E0
4.015334327E0,-1.980060786E-1,-9.092725813E-2,9.888040543E0
4.017760317E0,-2.291127741E-1,-1.052841991E-1,9.888040543E0
4.020186202E0,-2.458625287E-1,-9.571290761E-2,9.892826080E0
4.022612140E0,-2.650051117E-1,-1.172483116E-1,9.880862236E0
4.025038129E0,-2.267199457E-1,-1.196411327E-1,9.895218849E0
4.027464067E0,-2.315055877E-1,-1.339980662E-1,9.892826080E0
4.029889952E0,-2.410768867E-1,-9.571290761E-2,9.873683929E0
4.032315890E0,-2.410768867E-1,-1.220339537E-1,9.883255005E0
4.034741827E0,-2.434697002E-1,-1.483550072E-1,9.861719131E0
4.037167765E0,-2.267199457E-1,-1.172483116E-1,9.861719131E0
4.039593702E0,-2.267199457E-1,-1.268195957E-1,9.885647774E0
4.042019640E0,-2.410768867E-1,-1.124626622E-1,9.861719131E0
4.044445577E0,-2.386840582E-1,-1.196411327E-1,9.873683929E0
4.046871515E0,-2.291127741E-1,-9.810572863E-2,9.878469467E0
4.049297452E0,-2.219343036E-1,-1.148554832E-1,9.864111900E0
4.051723390E0,-2.362912297E-1,-1.148554832E-1,9.892826080E0
4.054149327E0,-2.362912297E-1,-1.220339537E-1,9.892826080E0
4.056575265E0,-2.482553422E-1,-1.148554832E-1,9.868897438E0
4.059001202E0,-2.506481707E-1,-1.316052526E-1,9.861719131E0
4.061427140E0,-2.243271172E-1,-1.004985496E-1,9.878469467E0
4.063853077E0,-2.291127741E-1,-1.028913707E-1,9.895218849E0
4.066279015E0,-2.410768867E-1,-1.100698411E-1,9.890433311E0
4.068704952E0,-2.123630047E-1,-1.268195957E-1,9.876076698E0
4.071130890E0,-2.147558331E-1,-1.004985496E-1,9.873683929E0
4.073556827E0,-2.410768867E-1,-9.332008660E-2,9.892826080E0
4.075982765E0,-2.243271172E-1,-1.100698411E-1,9.873683929E0
4.078408702E0,-2.291127741E-1,-1.004985496E-1,9.897611618E0
4.080834640E0,-2.530409992E-1,-1.076770201E-1,9.880862236E0
4.083260577E0,-2.410768867E-1,-1.004985496E-1,9.890433311E0
4.085686515E0,-2.291127741E-1,-1.076770201E-1,9.866504669E0
4.088112452E0,-2.195414752E-1,-9.332008660E-2,9.864111900E0
4.090538390E0,-2.243271172E-1,-1.172483116E-1,9.885647774E0
4.092964327E0,-2.362912297E-1,-1.172483116E-1,9.888040543E0
4.095390265E0,-2.243271172E-1,-1.076770201E-1,9.895218849E0
4.097816202E0,-2.482553422E-1,-1.196411327E-1,9.878469467E0
4.100242140E0,-2.434697002E-1,-1.100698411E-1,9.902397156E0
4.102668077E0,-2.315055877E-1,-1.004985496E-1,9.883255005E0
4.105094015E0,-2.123630047E-1,-9.092725813E-2,9.890433311E0
4.107519952E0,-2.338984162E-1,-1.052841991E-1,9.873683929E0
4.109945890E0,-2.626122832E-1,-1.100698411E-1,9.883255005E0
4.112371827E0,-2.386840582E-1,-9.810572863E-2,9.873683929E0
4.114797765E0,-2.315055877E-1,-9.332008660E-2,9.890433311E0
4.117223702E0,-2.267199457E-1,-1.244267747E-1,9.890433311E0
4.119649640E0,-2.434697002E-1,-1.172483116E-1,9.878469467E0
4.122075577E0,-2.195414752E-1,-1.124626622E-1,9.880862236E0
4.124501515E0,-2.267199457E-1,-1.220339537E-1,9.873683929E0
4.126927452E0,-2.410768867E-1,-9.810572863E-2,9.878469467E0
4.129353390E0,-2.650051117E-1,-1.076770201E-1,9.868897438E0
4.131779327E0,-2.673979402E-1,-1.004985496E-1,9.892826080E0
4.134205265E0,-2.434697002E-1,-1.100698411E-1,9.890433311E0
4.136631202E0,-2.482553422E-1,-1.100698411E-1,9.890433311E0
4.139057140E0,-2.315055877E-1,-1.196411327E-1,9.895218849E0
4.141483077E0,-2.291127741E-1,-1.172483116E-1,9.880862236E0
4.143909015E0,-2.243271172E-1,-1.268195957E-1,9.861719131E0
4.146334952E0,-2.171486616E-1,-1.244267747E-1,9.859326363E0
4.148760890E0,-2.171486616E-1,-1.100698411E-1,9.868897438E0
4.151186827E0,-2.338984162E-1,-1.124626622E-1,9.885647774E0
4.153612765E0,-2.291127741E-1,-1.220339537E-1,9.890433311E0
4.156038702E0,-2.171486616E-1,-9.092725813E-2,9.888040543E0
4.158464640E0,-2.506481707E-1,-1.028913707E-1,9.888040543E0
4.160890577E0,-2.386840582E-1,-1.124626622E-1,9.873683929E0
4.163316515E0,-2.554338276E-1,-9.810572863E-2,9.880862236E0
4.165742452E0,-2.458625287E-1,-1.172483116E-1,9.880862236E0
4.168168390E0,-2.482553422E-1,-1.220339537E-1,9.876076698E0
4.170594327E0,-2.482553422E-1,-1.196411327E-1,9.878469467E0
4.173020265E0,-2.482553422E-1,-1.220339537E-1,9.873683929E0
4.175446202E0,-2.123630047E-1,-1.100698411E-1,9.876076698E0
4.177872140E0,-2.482553422E-1,-9.571290761E-2,9.878469467E0
4.180298077E0,-2.315055877E-1,-1.196411327E-1,9.888040543E0
4.182724015E0,-2.267199457E-1,-1.148554832E-1,9.914361954E0
4.185149952E0,-2.099701911E-1,-1.196411327E-1,9.880862236E0
4.187575890E0,-2.386840582E-1,-1.316052526E-1,9.873683929E0
4.190001827E0,-2.362912297E-1,-1.292124242E-1,9.885647774E0
4.192427765E0,-2.410768867E-1,-9.571290761E-2,9.868897438E0
4.194853702E0,-2.147558331E-1,-1.052841991E-1,9.859326363E0
4.197279640E0,-2.315055877E-1,-1.076770201E-1,9.895218849E0
4.199705577E0,-2.410768867E-1,-9.810572863E-2,9.880862236E0
4.202131515E0,-2.386840582E-1,-8.853443712E-2,9.880862236E0
4.204557452E0,-2.506481707E-1,-8.853443712E-2,9.876076698E0
4.206983390E0,-2.338984162E-1,-1.028913707E-1,9.876076698E0
4.209409327E0,-2.386840582E-1,-1.028913707E-1,9.878469467E0
4.211835265E0,-2.410768867E-1,-9.810572863E-2,9.868897438E0
4.214261202E0,-2.410768867E-1,-9.571290761E-2,9.885647774E0
4.216687088E0,-2.291127741E-1,-1.220339537E-1,9.868897438E0
4.219113025E0,-2.410768867E-1,-9.332008660E-2,9.880862236E0
4.221538963E0,-2.291127741E-1,-1.076770201E-1,9.878469467E0
4.223964900E0,-2.099701911E-1,-1.076770201E-1,9.883255005E0
4.226390838E0,-1.908276081E-1,-1.052841991E-1,9.854540825E0
4.228816827E0,-2.243271172E-1,-1.004985496E-1,9.866504669E0
4.231242713E0,-2.171486616E-1,-1.172483116E-1,9.856933594E0
4.233668650E0,-2.171486616E-1,-1.220339537E-1,9.878469467E0
4.236094640E0,-2.434697002E-1,-1.148554832E-1,9.878469467E0
4.238520525E0,-2.410768867E-1,-9.571290761E-2,9.876076698E0
4.240946463E0,-2.195414752E-1,-1.172483116E-1,9.883255005E0
4.243372400E0,-2.147558331E-1,-1.148554832E-1,9.880862236E0
4.245798338E0,-2.338984162E-1,-1.124626622E-1,9.878469467E0
4.248224275E0,-2.338984162E-1,-1.196411327E-1,9.892826080E0
4.250650213E0,-2.602194548E-1,-1.244267747E-1,9.892826080E0
4.253076150E0,-2.171486616E-1,-9.092725813E-2,9.866504669E0
4.255502088E0,-2.338984162E-1,-1.076770201E-1,9.864111900E0
4.257928025E0,-2.338984162E-1,-1.148554832E-1,9.878469467E0
4.260353963E0,-2.362912297E-1,-1.052841991E-1,9.878469467E0
4.262779900E0,-2.482553422E-1,-1.316052526E-1,9.866504669E0
4.265205838E0,-2.362912297E-1,-1.316052526E-1,9.885647774E0
4.267631775E0,-2.338984162E-1,-1.100698411E-1,9.859326363E0
4.270057713E0,-2.291127741E-1,-1.100698411E-1,9.868897438E0
4.272483650E0,-2.362912297E-1,-1.387837082E-1,9.883255005E0
4.274909588E0,-2.195414752E-1,-1.507478207E-1,9.888040543E0
4.277335525E0,-2.291127741E-1,-1.076770201E-1,9.892826080E0
4.279761463E0,-2.338984162E-1,-1.004985496E-1,9.866504669E0
4.282187400E0,-2.291127741E-1,-1.124626622E-1,9.888040543E0
4.284613338E0,-2.410768867E-1,-9.092725813E-2,9.892826080E0
4.287039275E0,-2.291127741E-1,-1.244267747E-1,9.900004387E0
4.289465213E0,-2.410768867E-1,-1.244267747E-1,9.873683929E0
4.291891150E0,-2.315055877E-1,-1.244267747E-1,9.883255005E0
4.294317088E0,-2.506481707E-1,-1.004985496E-1,9.892826080E0
4.296743025E0,-2.554338276E-1,-9.092725813E-2,9.885647774E0
4.299168963E0,-2.386840582E-1,-8.853443712E-2,9.871291161E0
4.301594900E0,-2.338984162E-1,-1.100698411E-1,9.892826080E0
4.304020838E0,-2.315055877E-1,-9.332008660E-2,9.871291161E0
4.306446775E0,-2.315055877E-1,-1.052841991E-1,9.876076698E0
4.308872713E0,-2.362912297E-1,-1.052841991E-1,9.876076698E0
4.311298650E0,-2.530409992E-1,-1.220339537E-1,9.883255005E0
4.313724588E0,-2.626122832E-1,-1.244267747E-1,9.866504669E0
4.316150525E0,-2.315055877E-1,-1.100698411E-1,9.880862236E0
4.318576463E0,-2.338984162E-1,-1.148554832E-1,9.885647774E0
4.321002400E0,-2.291127741E-1,-1.387837082E-1,9.871291161E0
4.323428338E0,-2.123630047E-1,-1.172483116E-1,9.876076698E0
4.325854275E0,-2.458625287E-1,-1.100698411E-1,9.888040543E0
4.328280213E0,-2.602194548E-1,-1.100698411E-1,9.880862236E0
4.330706150E0,-2.410768867E-1,-1.196411327E-1,9.871291161E0
4.333132088E0,-2.219343036E-1,-1.124626622E-1,9.866504669E0
4.335558025E0,-2.219343036E-1,-1.196411327E-1,9.880862236E0
4.337983963E0,-2.386840582E-1,-1.076770201E-1,9.876076698E0
4.340409900E0,-2.291127741E-1,-1.316052526E-1,9.883255005E0
4.342835838E0,-2.267199457E-1,-1.124626622E-1,9.900004387E0
4.345261775E0,-2.506481707E-1,-1.004985496E-1,9.880862236E0
4.347687713E0,-2.243271172E-1,-1.292124242E-1,9.885647774E0
4.350113650E0,-2.386840582E-1,-1.268195957E-1,9.873683929E0
4.352539588E0,-2.291127741E-1,-1.028913707E-1,9.883255005E0
4.354965525E0,-2.291127741E-1,-1.196411327E-1,9.885647774E0
4.357391463E0,-2.362912297E-1,-1.268195957E-1,9.878469467E0
4.359817400E0,-2.219343036E-1,-1.316052526E-1,9.890433311E0
4.362243338E0,-2.243271172E-1,-9.810572863E-2,9.904789925E0
4.364669275E0,-2.386840582E-1,-1.268195957E-1,9.888040543E0
4.367095213E0,-2.338984162E-1,-1.268195957E-1,9.890433311E0
4.369521150E0,-2.291127741E-1,-1.076770201E-1,9.895218849E0
4.371947088E0,-2.147558331E-1,-1.076770201E-1,9.873683929E0
4.374373025E0,-2.530409992E-1,-1.100698411E-1,9.897611618E0
4.376798963E0,-2.434697002E-1,-1.076770201E-1,9.861719131E0
4.379224900E0,-2.147558331E-1,-1.148554832E-1,9.890433311E0
4.381650838E0,-2.243271172E-1,-1.076770201E-1,9.888040543E0
4.384076775E0,-2.338984162E-1,-1.268195957E-1,9.883255005E0
4.386502713E0,-2.267199457E-1,-9.092725813E-2,9.888040543E0
4.388928650E0,-2.386840582E-1,-1.148554832E-1,9.897611618E0
4.391354588E0,-2.626122832E-1,-1.148554832E-1,9.890433311E0
4.393780525E0,-2.315055877E-1,-1.411765367E-1,9.871291161E0
4.396206463E0,-2.410768867E-1,-1.172483116E-1,9.885647774E0
4.398632400E0,-2.291127741E-1,-1.148554832E-1,9.871291161E0
4.401058338E0,-2.195414752E-1,-1.076770201E-1,9.868897438E0
4.403484275E0,-2.243271172E-1,-1.148554832E-1,9.868897438E0
4.405910161E0,-2.458625287E-1,-1.196411327E-1,9.878469467E0
4.408336150E0,-2.434697002E-1,-1.076770201E-1,9.864111900E0
4.410762088E0,-2.386840582E-1,-1.244267747E-1,9.883255005E0
4.413188025E0,-2.338984162E-1,-8.614161611E-2,9.866504669E0
4.415613963E0,-2.410768867E-1,-1.052841991E-1,9.880862236E0
4.418039848E0,-2.171486616E-1,-1.244267747E-1,9.885647774E0
4.420465786E0,-2.362912297E-1,-1.172483116E-1,9.883255005E0
4.422891775E0,-2.386840582E-1,-1.076770201E-1,9.911968231E0
4.425317661E0,-2.338984162E-1,-1.196411327E-1,9.880862236E0
4.427743598E0,-2.410768867E-1,-1.124626622E-1,9.885647774E0
4.430169536E0,-2.338984162E-1,-1.124626622E-1,9.859326363E0
4.432595473E0,-2.410768867E-1,-1.244267747E-1,9.861719131E0
4.435021411E0,-2.434697002E-1,-1.292124242E-1,9.880862236E0
4.437447348E0,-2.338984162E-1,-1.268195957E-1,9.890433311E0
4.439873286E0,-2.362912297E-1,-1.220339537E-1,9.880862236E0
4.442299223E0,-2.434697002E-1,-1.124626622E-1,9.876076698E0
4.444725161E0,-2.243271172E-1,-1.387837082E-1,9.878469467E0
4.447151098E0,-2.243271172E-1,-1.220339537E-1,9.868897438E0
4.449577036E0,-2.410768867E-1,-1.292124242E-1,9.873683929E0
4.452002973E0,-2.171486616E-1,-1.124626622E-1,9.880862236E0
4.454428911E0,-2.434697002E-1,-1.028913707E-1,9.888040543E0
4.456854848E0,-2.482553422E-1,-1.124626622E-1,9.885647774E0
4.459280786E0,-2.267199457E-1,-1.148554832E-1,9.895218849E0
4.461706723E0,-2.506481707E-1,-1.052841991E-1,9.885647774E0
4.464132661E0,-2.386840582E-1,-8.853443712E-2,9.900004387E0
4.466558598E0,-2.171486616E-1,-1.292124242E-1,9.878469467E0
4.468984536E0,-2.219343036E-1,-1.076770201E-1,9.864111900E0
4.471410473E0,-2.291127741E-1,-1.076770201E-1,9.883255005E0
4.473836411E0,-2.434697002E-1,-1.172483116E-1,9.868897438E0
4.476262348E0,-2.458625287E-1,-9.092725813E-2,9.847362518E0
4.478688286E0,-2.434697002E-1,-1.148554832E-1,9.868897438E0
4.481114223E0,-2.410768867E-1,-1.076770201E-1,9.878469467E0
4.483540161E0,-2.075773627E-1,-1.100698411E-1,9.888040543E0
4.485966098E0,-2.099701911E-1,-1.028913707E-1,9.892826080E0
4.488392036E0,-2.338984162E-1,-1.076770201E-1,9.888040543E0
4.490817973E0,-2.386840582E-1,-9.810572863E-2,9.897611618E0
4.493243911E0,-2.315055877E-1,-1.316052526E-1,9.888040543E0
4.495669848E0,-2.243271172E-1,-1.028913707E-1,9.883255005E0
4.498095786E0,-2.243271172E-1,-8.614161611E-2,9.878469467E0
4.500521723E0,-2.506481707E-1,-1.004985496E-1,9.871291161E0
4.502947661E0,-2.530409992E-1,-9.332008660E-2,9.890433311E0
4.505373598E0,-2.362912297E-1,-9.571290761E-2,9.892826080E0
4.507799536E0,-2.267199457E-1,-1.076770201E-1,9.892826080E0
4.510225473E0,-2.410768867E-1,-1.052841991E-1,9.871291161E0
4.512651411E0,-2.506481707E-1,-1.052841991E-1,9.856933594E0
4.515077348E0,-2.291127741E-1,-1.220339537E-1,9.885647774E0
4.517503286E0,-2.291127741E-1,-1.196411327E-1,9.904789925E0
4.519929223E0,-2.195414752E-1,-1.268195957E-1,9.890433311E0
4.522355161E0,-2.003988922E-1,-1.124626622E-1,9.878469467E0
4.524781098E0,-1.980060786E-1,-1.076770201E-1,9.885647774E0
4.527207036E0,-2.243271172E-1,-1.220339537E-1,9.876076698E0
4.529632973E0,-2.291127741E-1,-1.316052526E-1,9.883255005E0
4.532058911E0,-2.267199457E-1,-1.172483116E-1,9.885647774E0
4.534484848E0,-2.434697002E-1,-1.387837082E-1,9.883255005E0
4.536910786E0,-2.267199457E-1,-1.076770201E-1,9.861719131E0
4.539336723E0,-2.386840582E-1,-9.571290761E-2,9.883255005E0
4.541762661E0,-2.338984162E-1,-9.092725813E-2,9.892826080E0
4.544188598E0,-2.195414752E-1,-1.004985496E-1,9.871291161E0
4.546614536E0,-2.673979402E-1,-8.853443712E-2,9.871291161E0
4.549040473E0,-2.243271172E-1,-1.052841991E-1,9.892826080E0
4.551466411E0,-2.315055877E-1,-1.004985496E-1,9.885647774E0
4.553892348E0,-2.386840582E-1,-1.028913707E-1,9.876076698E0
4.556318286E0,-2.530409992E-1,-1.124626622E-1,9.878469467E0
4.558744223E0,-2.291127741E-1,-1.196411327E-1,9.878469467E0
4.561170161E0,-2.386840582E-1,-9.810572863E-2,9.878469467E0
4.563596098E0,-2.338984162E-1,-1.292124242E-1,9.885647774E0
4.566022036E0,-2.362912297E-1,-1.244267747E-1,9.873683929E0
4.568447973E0,-2.171486616E-1,-1.268195957E-1,9.885647774E0
4.570873911E0,-2.315055877E-1,-1.220339537E-1,9.888040543E0
4.573299848E0,-2.386840582E-1,-1.100698411E-1,9.873683929E0
4.575725786E0,-2.267199457E-1,-1.316052526E-1,9.880862236E0
4.578151723E0,-2.458625287E-1,-1.100698411E-1,9.873683929E0
4.580577661E0,-2.410768867E-1,-1.148554832E-1,9.888040543E0
4.583003546E0,-2.291127741E-1,-1.004985496E-1,9.878469467E0
4.585429483E0,-2.434697002E-1,-1.148554832E-1,9.880862236E0
4.587855421E0,-2.291127741E-1,-1.004985496E-1,9.876076698E0
4.590281358E0,-2.075773627E-1,-9.092725813E-2,9.885647774E0
4.592707296E0,-2.243271172E-1,-1.052841991E-1,9.880862236E0
4.595133286E0,-2.171486616E-1,-8.853443712E-2,9.895218849E0
4.597559171E0,-2.195414752E-1,-1.076770201E-1,9.868897438E0
4.599985108E0,-2.291127741E-1,-1.028913707E-1,9.904789925E0
4.602411098E0,-2.243271172E-1,-1.196411327E-1,9.895218849E0
4.604836983E0,-2.338984162E-1,-1.124626622E-1,9.897611618E0
4.607262921E0,-2.315055877E-1,-1.148554832E-1,9.864111900E0
4.609688858E0,-2.195414752E-1,-1.100698411E-1,9.876076698E0
4.612114796E0,-2.267199457E-1,-1.196411327E-1,9.871291161E0
4.614540733E0,-2.243271172E-1,-1.124626622E-1,9.878469467E0
4.616966671E0,-2.386840582E-1,-1.052841991E-1,9.890433311E0
4.619392608E0,-2.075773627E-1,-8.614161611E-2,9.876076698E0
4.621818546E0,-2.315055877E-1,-9.092725813E-2,9.878469467E0
4.624244483E0,-2.410768867E-1,-9.810572863E-2,9.890433311E0
4.626670421E0,-2.171486616E-1,-1.196411327E-1,9.883255005E0
4.629096358E0,-2.362912297E-1,-1.292124242E-1,9.885647774E0
4.631522296E0,-2.458625287E-1,-1.004985496E-1,9.873683929E0
4.633948233E0,-2.386840582E-1,-1.196411327E-1,9.880862236E0
4.636374171E0,-2.315055877E-1,-1.316052526E-1,9.885647774E0
4.638800108E0,-2.291127741E-1,-1.220339537E-1,9.892826080E0
4.641226046E0,-2.458625287E-1,-1.148554832E-1,9.876076698E0
4.643651983E0,-2.171486616E-1,-1.244267747E-1,9.890433311E0
4.646077921E0,-2.195414752E-1,-1.196411327E-1,9.864111900E0
4.648503858E0,-2.267199457E-1,-9.571290761E-2,9.883255005E0
4.650929796E0,-2.410768867E-1,-1.100698411E-1,9.883255005E0
4.653355733E0,-2.410768867E-1,-1.292124242E-1,9.883255005E0
4.655781671E0,-2.434697002E-1,-1.220339537E-1,9.873683929E0
4.658207608E0,-2.554338276E-1,-1.100698411E-1,9.883255005E0
4.660633546E0,-2.434697002E-1,-1.100698411E-1,9.876076698E0
4.663059483E0,-2.650051117E-1,-1.028913707E-1,9.885647774E0
4.665485421E0,-2.697907388E-1,-9.092725813E-2,9.885647774E0
4.667911358E0,-2.171486616E-1,-1.124626622E-1,9.876076698E0
4.670337296E0,-2.362912297E-1,-1.172483116E-1,9.864111900E0
4.672763233E0,-2.219343036E-1,-1.148554832E-1,9.852148056E0
4.675189171E0,-2.219343036E-1,-1.076770201E-1,9.878469467E0
4.677615108E0,-2.147558331E-1,-9.332008660E-2,9.888040543E0
4.680041046E0,-2.386840582E-1,-1.004985496E-1,9.876076698E0
4.682466983E0,-2.291127741E-1,-1.052841991E-1,9.892826080E0
4.684892921E0,-2.386840582E-1,-1.052841991E-1,9.890433311E0
4.687318858E0,-2.386840582E-1,-1.052841991E-1,9.856933594E0
4.689744796E0,-2.243271172E-1,-8.374879509E-2,9.888040543E0
4.692170733E0,-2.458625287E-1,-9.092725813E-2,9.866504669E0
4.694596671E0,-2.123630047E-1,-8.853443712E-2,9.880862236E0
4.697022608E0,-2.458625287E-1,-1.028913707E-1,9.880862236E0
4.699448546E0,-2.362912297E-1,-1.076770201E-1,9.888040543E0
4.701874483E0,-2.434697002E-1,-1.124626622E-1,9.890433311E0
4.704300421E0,-2.410768867E-1,-1.220339537E-1,9.890433311E0
4.706726358E0,-2.434697002E-1,-1.124626622E-1,9.864111900E0
4.709152296E0,-2.362912297E-1,-1.076770201E-1,9.885647774E0
4.711578233E0,-2.267199457E-1,-1.052841991E-1,9.880862236E0
4.714004171E0,-2.362912297E-1,-7.896314561E-2,9.883255005E0
4.716430108E0,-2.338984162E-1,-9.571290761E-2,9.873683929E0
4.718856046E0,-2.195414752E-1,-1.148554832E-1,9.873683929E0
4.721281983E0,-2.267199457E-1,-1.076770201E-1,9.873683929E0
4.723707921E0,-2.386840582E-1,-1.052841991E-1,9.895218849E0
4.726133858E0,-2.315055877E-1,-1.100698411E-1,9.883255005E0
4.728559796E0,-2.338984162E-1,-1.172483116E-1,9.880862236E0
4.730985733E0,-2.554338276E-1,-1.316052526E-1,9.861719131E0
4.733411671E0,-2.243271172E-1,-1.435693651E-1,9.859326363E0
4.735837608E0,-2.243271172E-1,-1.148554832E-1,9.873683929E0
4.738263546E0,-2.147558331E-1,-1.100698411E-1,9.883255005E0
4.740689483E0,-2.291127741E-1,-1.244267747E-1,9.868897438E0
4.743115421E0,-2.267199457E-1,-1.100698411E-1,9.883255005E0
4.745541358E0,-2.554338276E-1,-7.657032460E-2,9.883255005E0
4.747967296E0,-2.458625287E-1,-1.220339537E-1,9.888040543E0
4.750393233E0,-2.434697002E-1,-1.148554832E-1,9.866504669E0
4.752819171E0,-2.051845491E-1,-1.172483116E-1,9.876076698E0
4.755245108E0,-2.219343036E-1,-8.374879509E-2,9.876076698E0
4.757671046E0,-2.219343036E-1,-1.148554832E-1,9.880862236E0
4.760096983E0,-2.434697002E-1,-1.004985496E-1,9.890433311E0
4.762522869E0,-2.243271172E-1,-1.292124242E-1,9.878469467E0
4.764948858E0,-2.458625287E-1,-1.172483116E-1,9.892826080E0
4.767374796E0,-2.650051117E-1,-9.571290761E-2,9.885647774E0
4.769800733E0,-2.386840582E-1,-1.124626622E-1,9.883255005E0
4.772226671E0,-2.554338276E-1,-9.092725813E-2,9.873683929E0
4.774652556E0,-2.458625287E-1,-1.316052526E-1,9.885647774E0
4.777078494E0,-2.338984162E-1,-1.316052526E-1,9.868897438E0
4.779504431E0,-2.291127741E-1,-9.810572863E-2,9.880862236E0
4.781930369E0,-2.362912297E-1,-9.571290761E-2,9.871291161E0
4.784356306E0,-2.171486616E-1,-1.076770201E-1,9.880862236E0
4.786782244E0,-2.195414752E-1,-9.332008660E-2,9.885647774E0
4.789208181E0,-2.315055877E-1,-1.172483116E-1,9.876076698E0
4.791634119E0,-2.195414752E-1,-1.052841991E-1,9.883255005E0
4.794060056E0,-2.434697002E-1,-1.244267747E-1,9.895218849E0
4.796485994E0,-2.243271172E-1,-1.076770201E-1,9.890433311E0
4.798911931E0,-2.434697002E-1,-1.244267747E-1,9.902397156E0
4.801337869E0,-2.386840582E-1,-1.124626622E-1,9.885647774E0
4.803763806E0,-2.482553422E-1,-1.268195957E-1,9.902397156E0
4.806189744E0,-2.482553422E-1,-1.172483116E-1,9.902397156E0
4.808615681E0,-2.219343036E-1,-1.076770201E-1,9.897611618E0
4.811041619E0,-2.410768867E-1,-1.172483116E-1,9.885647774E0
4.813467556E0,-2.243271172E-1,-1.244267747E-1,9.883255005E0
4.815893494E0,-2.338984162E-1,-1.100698411E-1,9.883255005E0
4.818319431E0,-2.338984162E-1,-1.220339537E-1,9.892826080E0
4.820745369E0,-2.434697002E-1,-9.571290761E-2,9.888040543E0
4.823171306E0,-2.362912297E-1,-9.571290761E-2,9.888040543E0
4.825597244E0,-2.458625287E-1,-1.076770201E-1,9.895218849E0
4.828023181E0,-2.458625287E-1,-9.810572863E-2,9.871291161E0
4.830449119E0,-2.458625287E-1,-1.124626622E-1,9.880862236E0
4.832875056E0,-2.386840582E-1,-1.052841991E-1,9.868897438E0
4.835300994E0,-2.315055877E-1,-1.124626622E-1,9.902397156E0
4.837726931E0,-2.267199457E-1,-9.092725813E-2,9.866504669E0
4.840152869E0,-2.338984162E-1,-9.571290761E-2,9.888040543E0
4.842578806E0,-2.123630047E-1,-1.220339537E-1,9.878469467E0
4.845004744E0,-2.362912297E-1,-9.332008660E-2,9.876076698E0
4.847430681E0,-2.386840582E-1,-1.244267747E-1,9.868897438E0
4.849856619E0,-2.147558331E-1,-1.196411327E-1,9.890433311E0
4.852282556E0,-2.410768867E-1,-9.092725813E-2,9.880862236E0
4.854708494E0,-2.386840582E-1,-1.076770201E-1,9.861719131E0
