"Time (s)","Gyroscope x (rad/s)","Gyroscope y (rad/s)","Gyroscope z (rad/s)"
9.691667100E-2,6.337540224E-3,1.832541777E-3,1.527118147E-4
9.934255600E-2,6.337540224E-3,3.665083554E-3,-2.290677279E-3
1.017684940E-1,4.504998680E-3,3.665083554E-3,3.206948051E-3
1.041944310E-1,3.894151188E-3,-6.108472589E-4,-3.512371797E-3
1.066203690E-1,1.450762269E-3,1.221694518E-3,3.817795310E-3
1.090463060E-1,1.450762269E-3,-0.000000000E0,-1.679830020E-3
1.114722440E-1,2.290677221E-4,-1.832541777E-3,2.596100792E-3
1.138981810E-1,8.399150101E-4,-0.000000000E0,-1.068982761E-3
1.163241190E-1,-2.825168660E-3,-3.665083554E-3,1.374406274E-3
1.187500560E-1,-2.214321401E-3,-3.665083554E-3,-2.290677279E-3
1.211759940E-1,-3.436015919E-3,-3.054236295E-3,-1.679830020E-3
1.236019310E-1,-3.436015919E-3,-3.054236295E-3,1.374406274E-3
1.260278690E-1,-2.825168660E-3,-1.221694518E-3,-2.290677279E-3
1.284538060E-1,-1.603474026E-3,-1.832541777E-3,1.985253533E-3
1.308797440E-1,-1.603474026E-3,-6.108472589E-4,-2.290677279E-3
1.333056810E-1,-1.603474026E-3,6.108472589E-4,1.527118147E-4
1.357316190E-1,-9.926267667E-4,6.108472589E-4,-2.290677279E-3
1.381575040E-1,8.399150101E-4,6.108472589E-4,7.635590737E-4
1.405834420E-1,-3.817795368E-4,1.221694518E-3,1.374406274E-3
1.430093790E-1,8.399150101E-4,1.832541777E-3,1.527118147E-4
1.454353170E-1,2.672456671E-3,-6.108472589E-4,7.635590737E-4
1.478612540E-1,1.450762269E-3,1.832541777E-3,-4.581354442E-4
1.502871920E-1,2.061609412E-3,-0.000000000E0,1.527118147E-4
1.527131290E-1,2.061609412E-3,-6.108472589E-4,-4.581354442E-4
1.551390670E-1,2.672456671E-3,-3.054236295E-3,1.985253533E-3
1.575650040E-1,1.450762269E-3,-1.832541777E-3,7.635590737E-4
1.599909420E-1,2.290677221E-4,-0.000000000E0,1.374406274E-3
1.624168790E-1,2.290677221E-4,-0.000000000E0,-4.581354442E-4
1.648428170E-1,-3.817795368E-4,1.221694518E-3,-4.581354442E-4
1.672687540E-1,1.450762269E-3,-0.000000000E0,-4.581354442E-4
1.696946920E-1,-3.817795368E-4,-1.221694518E-3,-1.068982761E-3
1.721206290E-1,-9.926267667E-4,6.108472589E-4,-4.581354442E-4
1.745465670E-1,8.399150101E-4,-1.221694518E-3,-1.679830020E-3
1.769725040E-1,-3.817795368E-4,-6.108472589E-4,1.527118147E-4
1.793983900E-1,2.290677221E-4,6.108472589E-4,-1.068982761E-3
1.818243270E-1,-3.817795368E-4,-1.221694518E-3,7.635590737E-4
1.842502650E-1,2.290677221E-4,-1.221694518E-3,-4.581354442E-4
1.866762020E-1,2.290677221E-4,-0.000000000E0,1.527118147E-4
1.891021400E-1,2.290677221E-4,-1.221694518E-3,7.635590737E-4
1.915280770E-1,2.290677221E-4,-0.000000000E0,-4.581354442E-4
1.939540150E-1,8.399150101E-4,-1.832541777E-3,1.527118147E-4
1.963799520E-1,1.450762269E-3,-1.221694518E-3,7.635590737E-4
1.988058900E-1,8.399150101E-4,-0.000000000E0,-4.581354442E-4
2.012318270E-1,8.399150101E-4,-6.108472589E-4,-4.581354442E-4
2.036577650E-1,1.450762269E-3,-6.108472589E-4,-4.581354442E-4
2.060837020E-1,8.399150101E-4,-6.108472589E-4,1.527118147E-4
2.085096400E-1,2.061609412E-3,-1.221694518E-3,7.635590737E-4
2.109355770E-1,2.061609412E-3,6.108472589E-4,1.527118147E-4
2.133615150E-1,1.450762269E-3,-6.108472589E-4,7.635590737E-4
2.157874520E-1,2.290677221E-4,-1.832541777E-3,-4.581354442E-4
2.182133900E-1,1.450762269E-3,6.108472589E-4,1.374406274E-3
2.206392750E-1,8.399150101E-4,-1.221694518E-3,1.527118147E-4
2.230652130E-1,-3.817795368E-4,-1.221694518E-3,-4.581354442E-4
2.254911500E-1,8.399150101E-4,-0.000000000E0,7.635590737E-4
2.279170880E-1,8.399150101E-4,6.108472589E-4,1.527118147E-4
2.303430250E-1,1.450762269E-3,-6.108472589E-4,1.527118147E-4
2.327689630E-1,2.290677221E-4,-0.000000000E0,-4.581354442E-4
2.351949000E-1,8.399150101E-4,-0.000000000E0,-4.581354442E-4
2.376208380E-1,8.399150101E-4,-1.221694518E-3,-2.290677279E-3
2.400467750E-1,-3.817795368E-4,-1.221694518E-3,-4.581354442E-4
2.424727130E-1,1.450762269E-3,-0.000000000E0,7.635590737E-4
2.448986500E-1,2.290677221E-4,-0.000000000E0,7.635590737E-4
2.473245880E-1,8.399150101E-4,-6.108472589E-4,7.635590737E-4
2.497505250E-1,2.290677221E-4,-6.108472589E-4,-1.679830020E-3
2.521764630E-1,2.290677221E-4,6.108472589E-4,7.635590737E-4
2.546024000E-1,2.290677221E-4,-1.221694518E-3,-4.581354442E-4
2.570283380E-1,2.290677221E-4,-6.108472589E-4,1.527118147E-4
2.594542750E-1,2.290677221E-4,-1.221694518E-3,7.635590737E-4
2.618802130E-1,2.290677221E-4,-0.000000000E0,1.527118147E-4
2.643060980E-1,2.290677221E-4,1.221694518E-3,-4.581354442E-4
2.667320360E-1,8.399150101E-4,-1.221694518E-3,1.527118147E-4
2.691579730E-1,8.399150101E-4,-6.108472589E-4,1.527118147E-4
2.715839110E-1,1.450762269E-3,-0.000000000E0,1.527118147E-4
2.740098480E-1,2.290677221E-4,1.221694518E-3,1.374406274E-3
2.764357860E-1,8.399150101E-4,-1.221694518E-3,-4.581354442E-4
2.788617230E-1,2.290677221E-4,-0.000000000E0,1.374406274E-3
2.812876610E-1,8.399150101E-4,-0.000000000E0,1.527118147E-4
2.837135980E-1,2.061609412E-3,-0.000000000E0,-4.581354442E-4
2.861395360E-1,8.399150101E-4,-6.108472589E-4,-1.068982761E-3
2.885654730E-1,-3.817795368E-4,6.108472589E-4,-1.068982761E-3
2.909914110E-1,-3.817795368E-4,-6.108472589E-4,1.527118147E-4
2.934173480E-1,8.399150101E-4,-6.108472589E-4,-4.581354442E-4
2.958432860E-1,8.399150101E-4,-0.000000000E0,7.635590737E-4
2.982692230E-1,2.290677221E-4,-1.221694518E-3,1.527118147E-4
3.006951610E-1,2.290677221E-4,6.108472589E-4,1.527118147E-4
3.031210980E-1,8.399150101E-4,-1.221694518E-3,1.527118147E-4
3.055470360E-1,1.450762269E-3,-6.108472589E-4,1.527118147E-4
3.079729210E-1,2.290677221E-4,-6.108472589E-4,1.374406274E-3
3.103989110E-1,8.399150101E-4,-1.221694518E-3,7.635590737E-4
3.128247960E-1,8.399150101E-4,6.108472589E-4,1.374406274E-3
3.152507330E-1,2.290677221E-4,-0.000000000E0,-4.581354442E-4
3.176766710E-1,-9.926267667E-4,-0.000000000E0,1.527118147E-4
3.201026080E-1,-9.926267667E-4,-6.108472589E-4,1.985253533E-3
3.225285460E-1,8.399150101E-4,-6.108472589E-4,-4.581354442E-4
3.249544830E-1,1.450762269E-3,-6.108472589E-4,1.527118147E-4
3.273804210E-1,8.399150101E-4,-1.221694518E-3,-1.068982761E-3
3.298063580E-1,1.450762269E-3,-6.108472589E-4,-4.581354442E-4
3.322322960E-1,2.290677221E-4,-6.108472589E-4,7.635590737E-4
3.346582330E-1,8.399150101E-4,6.108472589E-4,1.527118147E-4
3.370841710E-1,8.399150101E-4,-0.000000000E0,7.635590737E-4
3.395101080E-1,2.290677221E-4,6.108472589E-4,1.374406274E-3
3.419360460E-1,-3.817795368E-4,6.108472589E-4,-4.581354442E-4
3.443619830E-1,-9.926267667E-4,6.108472589E-4,1.527118147E-4
3.467879210E-1,2.290677221E-4,6.108472589E-4,1.527118147E-4
3.492138580E-1,1.450762269E-3,-0.000000000E0,7.635590737E-4
3.516397960E-1,8.399150101E-4,6.108472589E-4,-4.581354442E-4
3.540657330E-1,2.672456671E-3,-6.108472589E-4,1.527118147E-4
3.564916710E-1,-3.817795368E-4,-6.108472589E-4,1.527118147E-4
3.589176080E-1,2.672456671E-3,-2.443389036E-3,-1.068982761E-3
3.613435460E-1,-9.926267667E-4,-6.108472589E-4,-4.581354442E-4
3.637694310E-1,8.399150101E-4,-1.221694518E-3,-1.679830020E-3
3.661953690E-1,2.290677221E-4,-1.221694518E-3,-4.581354442E-4
3.686213060E-1,-9.926267667E-4,-0.000000000E0,1.527118147E-4
3.710472440E-1,-3.817795368E-4,-6.108472589E-4,7.635590737E-4
3.734731810E-1,-9.926267667E-4,-0.000000000E0,1.527118147E-4
3.758991190E-1,-3.817795368E-4,-6.108472589E-4,7.635590737E-4
3.783250560E-1,-3.817795368E-4,6.108472589E-4,-4.581354442E-4
3.807509940E-1,-9.926267667E-4,6.108472589E-4,-4.581354442E-4
3.831769310E-1,8.399150101E-4,-6.108472589E-4,1.527118147E-4
3.856028690E-1,2.290677221E-4,-0.000000000E0,-4.581354442E-4
3.880288060E-1,8.399150101E-4,-1.221694518E-3,1.527118147E-4
3.904547440E-1,2.290677221E-4,-1.832541777E-3,7.635590737E-4
3.928806810E-1,1.450762269E-3,6.108472589E-4,1.985253533E-3
3.953066190E-1,2.290677221E-4,-1.221694518E-3,1.374406274E-3
3.977325560E-1,2.061609412E-3,-1.832541777E-3,-4.581354442E-4
4.001584940E-1,8.399150101E-4,-6.108472589E-4,1.527118147E-4
4.025844310E-1,-9.926267667E-4,-6.108472589E-4,1.527118147E-4
4.050103690E-1,-9.926267667E-4,-6.108472589E-4,-4.581354442E-4
4.074363060E-1,2.290677221E-4,-6.108472589E-4,-4.581354442E-4
4.098622440E-1,2.290677221E-4,-1.221694518E-3,-1.068982761E-3
4.122881810E-1,2.290677221E-4,-1.221694518E-3,7.635590737E-4
4.147141190E-1,2.290677221E-4,-6.108472589E-4,-4.581354442E-4
4.171400040E-1,2.290677221E-4,-2.443389036E-3,-1.068982761E-3
4.195659420E-1,2.290677221E-4,6.108472589E-4,7.635590737E-4
4.219918790E-1,-3.817795368E-4,-6.108472589E-4,1.527118147E-4
4.244178170E-1,2.290677221E-4,-6.108472589E-4,7.635590737E-4
4.268437540E-1,2.061609412E-3,-6.108472589E-4,-4.581354442E-4
4.292696920E-1,2.290677221E-4,-1.221694518E-3,-4.581354442E-4
4.316956290E-1,-3.817795368E-4,6.108472589E-4,-4.581354442E-4
4.341215670E-1,2.290677221E-4,-0.000000000E0,-4.581354442E-4
4.365475040E-1,2.290677221E-4,-0.000000000E0,1.527118147E-4
4.389734420E-1,2.290677221E-4,-2.443389036E-3,-4.581354442E-4
4.413993790E-1,2.061609412E-3,-0.000000000E0,-1.068982761E-3
4.438253170E-1,1.450762269E-3,-1.221694518E-3,-1.068982761E-3
4.462512540E-1,8.399150101E-4,-6.108472589E-4,-4.581354442E-4
4.486771920E-1,2.061609412E-3,6.108472589E-4,1.527118147E-4
4.511031290E-1,8.399150101E-4,-6.108472589E-4,1.527118147E-4
4.535290670E-1,-3.817795368E-4,-1.221694518E-3,1.527118147E-4
4.559550040E-1,8.399150101E-4,6.108472589E-4,-1.068982761E-3
4.583809420E-1,8.399150101E-4,-0.000000000E0,1.527118147E-4
4.608068790E-1,2.290677221E-4,-6.108472589E-4,7.635590737E-4
4.632328170E-1,1.450762269E-3,-1.221694518E-3,1.527118147E-4
4.656587540E-1,1.450762269E-3,-0.000000000E0,-4.581354442E-4
4.680846920E-1,2.290677221E-4,-6.108472589E-4,7.635590737E-4
4.705106290E-1,8.399150101E-4,1.221694518E-3,1.374406274E-3
4.729365150E-1,-3.817795368E-4,-0.000000000E0,7.635590737E-4
4.753625040E-1,2.290677221E-4,-6.108472589E-4,1.374406274E-3
4.777883900E-1,2.290677221E-4,1.221694518E-3,7.635590737E-4
4.802143270E-1,2.290677221E-4,6.108472589E-4,1.527118147E-4
4.826402650E-1,8.399150101E-4,-6.108472589E-4,-1.068982761E-3
4.850662020E-1,1.450762269E-3,6.108472589E-4,1.374406274E-3
4.874921400E-1,-9.926267667E-4,-0.000000000E0,-4.581354442E-4
4.899180770E-1,-3.817795368E-4,6.108472589E-4,7.635590737E-4
4.923440150E-1,8.399150101E-4,-6.108472589E-4,1.527118147E-4
4.947699520E-1,1.450762269E-3,-6.108472589E-4,1.527118147E-4
4.971958900E-1,8.399150101E-4,-1.832541777E-3,1.527118147E-4
4.996218270E-1,2.290677221E-4,-0.000000000E0,7.635590737E-4
5.020477650E-1,8.399150101E-4,-0.000000000E0,-4.581354442E-4
5.044737020E-1,2.290677221E-4,6.108472589E-4,-1.068982761E-3
5.068996400E-1,8.399150101E-4,-1.221694518E-3,1.527118147E-4
5.093255770E-1,2.290677221E-4,6.108472589E-4,-1.068982761E-3
5.117515150E-1,8.399150101E-4,-6.108472589E-4,-1.068982761E-3
5.141774520E-1,1.450762269E-3,-0.000000000E0,1.527118147E-4
5.166033900E-1,2.290677221E-4,6.108472589E-4,1.374406274E-3
5.190293270E-1,2.290677221E-4,-1.221694518E-3,1.374406274E-3
5.214552650E-1,8.399150101E-4,6.108472589E-4,1.527118147E-4
5.238812020E-1,2.061609412E-3,-0.000000000E0,1.527118147E-4
5.263071400E-1,8.399150101E-4,-0.000000000E0,-4.581354442E-4
5.287330770E-1,-9.926267667E-4,-1.221694518E-3,7.635590737E-4
5.311590150E-1,8.399150101E-4,6.108472589E-4,1.985253533E-3
5.335849520E-1,-9.926267667E-4,-0.000000000E0,-1.068982761E-3
5.360108900E-1,2.290677221E-4,6.108472589E-4,-1.068982761E-3
5.384368270E-1,8.399150101E-4,-0.000000000E0,-4.581354442E-4
5.408627650E-1,-3.817795368E-4,1.832541777E-3,1.527118147E-4
5.432887020E-1,-9.926267667E-4,-6.108472589E-4,1.527118147E-4
5.457146400E-1,-9.926267667E-4,-0.000000000E0,-4.581354442E-4
5.481405250E-1,-3.817795368E-4,6.108472589E-4,-4.581354442E-4
5.505664630E-1,-9.926267667E-4,6.108472589E-4,-4.581354442E-4
5.529924000E-1,8.399150101E-4,-1.832541777E-3,-4.581354442E-4
5.554183380E-1,8.399150101E-4,-1.221694518E-3,-4.581354442E-4
5.578442750E-1,8.399150101E-4,-6.108472589E-4,-4.581354442E-4
5.602702130E-1,2.290677221E-4,-1.221694518E-3,7.635590737E-4
5.626961500E-1,1.450762269E-3,-1.221694518E-3,-4.581354442E-4
5.651220880E-1,2.061609412E-3,-0.000000000E0,-4.581354442E-4
5.675480250E-1,1.450762269E-3,1.221694518E-3,-4.581354442E-4
5.699739630E-1,-9.926267667E-4,-6.108472589E-4,-4.581354442E-4
5.723999000E-1,1.450762269E-3,-0.000000000E0,1.527118147E-4
5.748258380E-1,2.061609412E-3,-6.108472589E-4,-4.581354442E-4
5.772517750E-1,8.399150101E-4,-1.221694518E-3,7.635590737E-4
5.796777130E-1,2.290677221E-4,-6.108472589E-4,-4.581354442E-4
5.821036500E-1,8.399150101E-4,-0.000000000E0,1.374406274E-3
5.845295880E-1,8.399150101E-4,-0.000000000E0,1.527118147E-4
5.869555250E-1,-3.817795368E-4,1.221694518E-3,7.635590737E-4
5.893814630E-1,8.399150101E-4,6.108472589E-4,1.527118147E-4
5.918074000E-1,-3.817795368E-4,-1.221694518E-3,1.527118147E-4
5.942333380E-1,8.399150101E-4,-1.221694518E-3,7.635590737E-4
5.966592750E-1,1.450762269E-3,-6.108472589E-4,-4.581354442E-4
5.990852130E-1,2.290677221E-4,-0.000000000E0,-4.581354442E-4
6.015111500E-1,2.290677221E-4,-0.000000000E0,1.527118147E-4
6.039370880E-1,2.290677221E-4,-6.108472589E-4,1.527118147E-4
6.063630250E-1,1.450762269E-3,-0.000000000E0,7.635590737E-4
6.087889630E-1,2.061609412E-3,-0.000000000E0,-1.068982761E-3
6.112148480E-1,8.399150101E-4,-1.221694518E-3,-4.581354442E-4
6.136407860E-1,1.450762269E-3,-0.000000000E0,1.985253533E-3
6.160667750E-1,8.399150101E-4,-0.000000000E0,-4.581354442E-4
6.184926610E-1,8.399150101E-4,-0.000000000E0,7.635590737E-4
6.209186500E-1,2.290677221E-4,6.108472589E-4,-4.581354442E-4
6.233445360E-1,2.290677221E-4,-0.000000000E0,-1.068982761E-3
6.257704730E-1,-3.817795368E-4,-1.832541777E-3,1.527118147E-4
6.281964110E-1,-3.817795368E-4,-0.000000000E0,1.527118147E-4
6.306223480E-1,2.290677221E-4,-1.832541777E-3,1.527118147E-4
6.330482860E-1,-3.817795368E-4,-1.221694518E-3,-1.068982761E-3
6.354742230E-1,8.399150101E-4,-0.000000000E0,-4.581354442E-4
6.379001610E-1,-3.817795368E-4,-6.108472589E-4,1.527118147E-4
6.403260980E-1,8.399150101E-4,-6.108472589E-4,1.527118147E-4
6.427520360E-1,8.399150101E-4,-1.221694518E-3,-4.581354442E-4
6.451779730E-1,2.290677221E-4,-0.000000000E0,1.374406274E-3
6.476039110E-1,2.290677221E-4,6.108472589E-4,7.635590737E-4
6.500298480E-1,1.450762269E-3,-0.000000000E0,7.635590737E-4
6.524557860E-1,1.450762269E-3,6.108472589E-4,-1.068982761E-3
6.548817230E-1,1.450762269E-3,-1.221694518E-3,1.527118147E-4
6.573076610E-1,-9.926267667E-4,6.108472589E-4,7.635590737E-4
6.597335980E-1,1.450762269E-3,-6.108472589E-4,-1.679830020E-3
6.621595360E-1,-3.817795368E-4,-0.000000000E0,1.527118147E-4
6.645854730E-1,-3.817795368E-4,-6.108472589E-4,1.527118147E-4
6.670114110E-1,1.450762269E-3,-6.108472589E-4,1.527118147E-4
6.694373480E-1,2.290677221E-4,-6.108472589E-4,-1.068982761E-3
6.718632860E-1,2.290677221E-4,6.108472589E-4,-4.581354442E-4
6.742892230E-1,-3.817795368E-4,-0.000000000E0,1.527118147E-4
6.767151610E-1,8.399150101E-4,-6.108472589E-4,1.527118147E-4
6.791410980E-1,1.450762269E-3,-0.000000000E0,7.635590737E-4
6.815670360E-1,2.290677221E-4,-2.443389036E-3,7.635590737E-4
6.839929730E-1,-3.817795368E-4,-6.108472589E-4,1.527118147E-4
6.864189110E-1,-9.926267667E-4,-0.000000000E0,-4.581354442E-4
6.888448480E-1,2.290677221E-4,-1.221694518E-3,1.527118147E-4
6.912707330E-1,2.672456671E-3,-6.108472589E-4,1.527118147E-4
6.936966710E-1,8.399150101E-4,6.108472589E-4,1.527118147E-4
6.961226610E-1,-9.926267667E-4,-0.000000000E0,-1.068982761E-3
6.985485980E-1,2.290677221E-4,-6.108472589E-4,1.527118147E-4
7.009745360E-1,2.290677221E-4,-6.108472589E-4,1.527118147E-4
7.034004210E-1,-3.817795368E-4,6.108472589E-4,1.527118147E-4
7.058263580E-1,2.290677221E-4,-1.221694518E-3,7.635590737E-4
7.082522960E-1,8.399150101E-4,-6.108472589E-4,-1.068982761E-3
7.106782330E-1,2.290677221E-4,-6.108472589E-4,-4.581354442E-4
7.131041710E-1,8.399150101E-4,-1.832541777E-3,-4.581354442E-4
7.155301080E-1,2.290677221E-4,-1.221694518E-3,1.374406274E-3
7.179560460E-1,8.399150101E-4,6.108472589E-4,1.527118147E-4
7.203819830E-1,2.290677221E-4,-6.108472589E-4,7.635590737E-4
7.228079210E-1,1.450762269E-3,-6.108472589E-4,-4.581354442E-4
7.252338580E-1,2.290677221E-4,-1.221694518E-3,7.635590737E-4
7.276597960E-1,2.290677221E-4,-6.108472589E-4,7.635590737E-4
7.300857330E-1,-9.926267667E-4,-6.108472589E-4,-4.581354442E-4
7.325116710E-1,8.399150101E-4,-6.108472589E-4,7.635590737E-4
7.349376080E-1,2.061609412E-3,-1.221694518E-3,-4.581354442E-4
7.373635460E-1,2.290677221E-4,-6.108472589E-4,1.527118147E-4
7.397894830E-1,2.290677221E-4,-6.108472589E-4,-1.679830020E-3
7.422154210E-1,2.290677221E-4,6.108472589E-4,-4.581354442E-4
7.446413580E-1,-3.817795368E-4,6.108472589E-4,1.527118147E-4
7.470672960E-1,-3.817795368E-4,6.108472589E-4,1.527118147E-4
7.494932330E-1,-1.603474026E-3,-1.221694518E-3,-1.068982761E-3
7.519191710E-1,-9.926267667E-4,-1.221694518E-3,7.635590737E-4
7.543451080E-1,2.290677221E-4,-0.000000000E0,-4.581354442E-4
7.567710460E-1,1.450762269E-3,-0.000000000E0,1.374406274E-3
7.591969830E-1,8.399150101E-4,-0.000000000E0,7.635590737E-4
7.616229210E-1,2.290677221E-4,-0.000000000E0,-4.581354442E-4
7.640488580E-1,-3.817795368E-4,-6.108472589E-4,1.374406274E-3
7.664747960E-1,2.290677221E-4,-1.221694518E-3,1.374406274E-3
7.689007330E-1,8.399150101E-4,6.108472589E-4,-4.581354442E-4
7.713266710E-1,-3.817795368E-4,1.221694518E-3,1.527118147E-4
7.737526080E-1,2.290677221E-4,1.221694518E-3,7.635590737E-4
7.761785460E-1,2.061609412E-3,-0.000000000E0,-4.581354442E-4
7.786044830E-1,2.290677221E-4,6.108472589E-4,-1.068982761E-3
7.810304210E-1,2.290677221E-4,-1.221694518E-3,-4.581354442E-4
7.834563580E-1,8.399150101E-4,-0.000000000E0,1.527118147E-4
7.858822960E-1,1.450762269E-3,-6.108472589E-4,-4.581354442E-4
7.883082330E-1,8.399150101E-4,-6.108472589E-4,-4.581354442E-4
7.907341190E-1,1.450762269E-3,-1.832541777E-3,7.635590737E-4
7.931601080E-1,2.290677221E-4,-0.000000000E0,1.374406274E-3
7.955859940E-1,1.450762269E-3,-1.221694518E-3,-1.068982761E-3
7.980119310E-1,8.399150101E-4,1.221694518E-3,-4.581354442E-4
8.004378690E-1,2.290677221E-4,1.221694518E-3,1.527118147E-4
8.028638060E-1,-1.603474026E-3,6.108472589E-4,1.374406274E-3
8.052897440E-1,-3.817795368E-4,-0.000000000E0,7.635590737E-4
8.077156810E-1,1.450762269E-3,-0.000000000E0,1.374406274E-3
8.101416190E-1,-3.817795368E-4,1.221694518E-3,7.635590737E-4
8.125675560E-1,-3.817795368E-4,-6.108472589E-4,-4.581354442E-4
8.149934940E-1,8.399150101E-4,-1.832541777E-3,1.527118147E-4
8.174194310E-1,-9.926267667E-4,1.832541777E-3,1.527118147E-4
8.198453690E-1,-9.926267667E-4,-0.000000000E0,-1.068982761E-3
8.222713060E-1,8.399150101E-4,-0.000000000E0,-4.581354442E-4
8.246972440E-1,2.061609412E-3,-0.000000000E0,-1.068982761E-3
8.271231810E-1,2.290677221E-4,-1.221694518E-3,-4.581354442E-4
8.295491190E-1,1.450762269E-3,-6.108472589E-4,7.635590737E-4
8.319750560E-1,8.399150101E-4,-0.000000000E0,1.527118147E-4
8.344009940E-1,1.450762269E-3,-1.221694518E-3,-1.068982761E-3
8.368269310E-1,-9.926267667E-4,6.108472589E-4,-1.068982761E-3
8.392528690E-1,2.290677221E-4,-6.108472589E-4,-1.068982761E-3
8.416788060E-1,8.399150101E-4,-0.000000000E0,-2.290677279E-3
8.441047440E-1,2.290677221E-4,6.108472589E-4,-1.679830020E-3
8.465306810E-1,2.290677221E-4,-0.000000000E0,-1.679830020E-3
8.489566190E-1,2.290677221E-4,-1.221694518E-3,1.527118147E-4
8.513825560E-1,2.290677221E-4,-1.221694518E-3,-4.581354442E-4
8.538084940E-1,2.290677221E-4,-1.221694518E-3,7.635590737E-4
8.562344310E-1,8.399150101E-4,-6.108472589E-4,7.635590737E-4
8.586603690E-1,8.399150101E-4,-0.000000000E0,-4.581354442E-4
8.610863060E-1,-3.817795368E-4,-1.221694518E-3,1.527118147E-4
8.635122440E-1,2.290677221E-4,-6.108472589E-4,1.527118147E-4
8.659381810E-1,-9.926267667E-4,-1.221694518E-3,1.527118147E-4
8.683641190E-1,8.399150101E-4,-6.108472589E-4,1.527118147E-4
8.707900560E-1,2.290677221E-4,-6.108472589E-4,1.527118147E-4
8.732159940E-1,8.399150101E-4,-0.000000000E0,1.527118147E-4
8.756419310E-1,-3.817795368E-4,-0.000000000E0,-1.068982761E-3
8.780678690E-1,2.290677221E-4,-0.000000000E0,1.527118147E-4
8.804938060E-1,8.399150101E-4,6.108472589E-4,7.635590737E-4
8.829197440E-1,2.290677221E-4,-0.000000000E0,1.527118147E-4
8.853456810E-1,8.399150101E-4,1.221694518E-3,7.635590737E-4
8.877715670E-1,-1.603474026E-3,-6.108472589E-4,1.527118147E-4
8.901975560E-1,8.399150101E-4,-6.108472589E-4,-4.581354442E-4
8.926234940E-1,8.399150101E-4,-1.221694518E-3,7.635590737E-4
8.950493790E-1,2.290677221E-4,-6.108472589E-4,1.527118147E-4
8.974753170E-1,8.399150101E-4,-0.000000000E0,1.527118147E-4
8.999012540E-1,8.399150101E-4,-6.108472589E-4,1.527118147E-4
9.023271920E-1,8.399150101E-4,-0.000000000E0,7.635590737E-4
9.047531290E-1,-3.817795368E-4,-1.221694518E-3,-4.581354442E-4
9.071790670E-1,8.399150101E-4,-1.221694518E-3,-4.581354442E-4
9.096050040E-1,2.290677221E-4,-0.000000000E0,1.527118147E-4
9.120309420E-1,8.399150101E-4,-0.000000000E0,7.635590737E-4
9.144568790E-1,2.061609412E-3,-0.000000000E0,-4.581354442E-4
9.168828170E-1,8.399150101E-4,-6.108472589E-4,1.527118147E-4
9.193087540E-1,-3.817795368E-4,-1.221694518E-3,-4.581354442E-4
9.217346920E-1,2.290677221E-4,-1.832541777E-3,1.527118147E-4
9.241606290E-1,8.399150101E-4,-1.221694518E-3,1.527118147E-4
9.265865670E-1,1.450762269E-3,-1.221694518E-3,1.527118147E-4
9.290125040E-1,1.450762269E-3,-0.000000000E0,7.635590737E-4
9.314384420E-1,8.399150101E-4,-6.108472589E-4,-4.581354442E-4
9.338643790E-1,2.061609412E-3,-0.000000000E0,7.635590737E-4
9.362903170E-1,1.450762269E-3,-1.221694518E-3,1.527118147E-4
9.387162540E-1,2.290677221E-4,-1.221694518E-3,1.527118147E-4
9.411421920E-1,2.290677221E-4,-6.108472589E-4,7.635590737E-4
9.435681290E-1,2.290677221E-4,6.108472589E-4,7.635590737E-4
9.459940670E-1,8.399150101E-4,-1.221694518E-3,-1.679830020E-3
9.484200040E-1,8.399150101E-4,-1.221694518E-3,7.635590737E-4
9.508459420E-1,2.290677221E-4,-0.000000000E0,1.527118147E-4
9.532718790E-1,2.290677221E-4,-6.108472589E-4,1.374406274E-3
9.556978170E-1,2.290677221E-4,-1.221694518E-3,7.635590737E-4
9.581237540E-1,-3.817795368E-4,-1.221694518E-3,-4.581354442E-4
9.605496920E-1,2.290677221E-4,-0.000000000E0,1.527118147E-4
9.629756290E-1,2.290677221E-4,-6.108472589E-4,7.635590737E-4
9.654015670E-1,-3.817795368E-4,-6.108472589E-4,7.635590737E-4
9.678275040E-1,-9.926267667E-4,-6.108472589E-4,1.374406274E-3
9.702534420E-1,1.450762269E-3,-1.832541777E-3,7.635590737E-4
9.726793790E-1,2.290677221E-4,-1.221694518E-3,-4.581354442E-4
9.751053170E-1,2.290677221E-4,-6.108472589E-4,1.527118147E-4
9.775312540E-1,2.290677221E-4,6.108472589E-4,1.374406274E-3
9.799571920E-1,2.290677221E-4,-0.000000000E0,7.635590737E-4
9.823831290E-1,2.290677221E-4,-0.000000000E0,-1.068982761E-3
9.848090670E-1,2.290677221E-4,-0.000000000E0,1.527118147E-4
9.872350040E-1,2.290677221E-4,-0.000000000E0,1.374406274E-3
9.896609420E-1,2.290677221E-4,-0.000000000E0,1.985253533E-3
9.920868790E-1,2.290677221E-4,-0.000000000E0,7.635590737E-4
9.945128170E-1,2.290677221E-4,-0.000000000E0,1.374406274E-3
9.969387540E-1,-3.817795368E-4,-6.108472589E-4,7.635590737E-4
9.993646920E-1,2.290677221E-4,6.108472589E-4,-4.581354442E-4
1.001790629E0,8.399150101E-4,6.108472589E-4,1.527118147E-4
1.004216567E0,1.450762269E-3,-6.108472589E-4,-1.068982761E-3
1.006642504E0,-3.817795368E-4,-6.108472589E-4,-1.679830020E-3
1.009068442E0,-9.926267667E-4,-0.000000000E0,1.527118147E-4
1.011494379E0,2.290677221E-4,-1.221694518E-3,1.527118147E-4
1.013920317E0,-3.817795368E-4,-1.832541777E-3,7.635590737E-4
1.016346254E0,-3.817795368E-4,-6.108472589E-4,-4.581354442E-4
1.018772192E0,-3.817795368E-4,-1.832541777E-3,1.527118147E-4
1.021198129E0,2.290677221E-4,-1.221694518E-3,7.635590737E-4
1.023624015E0,2.290677221E-4,-1.221694518E-3,-4.581354442E-4
1.026049952E0,8.399150101E-4,-6.108472589E-4,1.527118147E-4
1.028475890E0,8.399150101E-4,6.108472589E-4,1.527118147E-4
1.030901879E0,8.399150101E-4,1.221694518E-3,-1.679830020E-3
1.033327765E0,8.399150101E-4,-6.108472589E-4,-1.068982761E-3
1.035753702E0,2.290677221E-4,-1.832541777E-3,7.635590737E-4
1.038179640E0,2.290677221E-4,-1.221694518E-3,7.635590737E-4
1.040605577E0,-3.817795368E-4,-1.221694518E-3,1.374406274E-3
1.043031515E0,-3.817795368E-4,-1.832541777E-3,-4.581354442E-4
1.045457452E0,-3.817795368E-4,6.108472589E-4,-4.581354442E-4
1.047883390E0,8.399150101E-4,6.108472589E-4,2.596100792E-3
1.050309327E0,1.450762269E-3,6.108472589E-4,1.374406274E-3
1.052735265E0,8.399150101E-4,-0.000000000E0,7.635590737E-4
1.055161202E0,-3.817795368E-4,-6.108472589E-4,-4.581354442E-4
1.057587140E0,8.399150101E-4,-6.108472589E-4,1.527118147E-4
1.060013077E0,-3.817795368E-4,6.108472589E-4,-4.581354442E-4
1.062439015E0,2.290677221E-4,-6.108472589E-4,-4.581354442E-4
1.064864952E0,-3.817795368E-4,6.108472589E-4,1.527118147E-4
1.067290890E0,2.290677221E-4,-0.000000000E0,1.527118147E-4
1.069716827E0,-3.817795368E-4,6.108472589E-4,1.374406274E-3
1.072142765E0,2.290677221E-4,-1.832541777E-3,-1.068982761E-3
1.074568702E0,8.399150101E-4,-0.000000000E0,1.527118147E-4
1.076994640E0,8.399150101E-4,-0.000000000E0,1.527118147E-4
1.079420577E0,2.061609412E-3,-0.000000000E0,1.527118147E-4
1.081846515E0,8.399150101E-4,-6.108472589E-4,-1.068982761E-3
1.084272452E0,-3.817795368E-4,6.108472589E-4,1.374406274E-3
1.086698390E0,2.290677221E-4,-0.000000000E0,1.527118147E-4
1.089124327E0,-1.603474026E-3,6.108472589E-4,-4.581354442E-4
1.091550265E0,-3.817795368E-4,-1.221694518E-3,1.527118147E-4
1.093976202E0,1.450762269E-3,-6.108472589E-4,-4.581354442E-4
1.096402140E0,8.399150101E-4,6.108472589E-4,1.527118147E-4
1.098828077E0,-3.817795368E-4,-6.108472589E-4,7.635590737E-4
1.101254015E0,-3.817795368E-4,-1.221694518E-3,-4.581354442E-4
1.103679952E0,-3.817795368E-4,-0.000000000E0,1.527118147E-4
1.106105890E0,1.450762269E-3,-6.108472589E-4,1.527118147E-4
1.108531827E0,1.450762269E-3,-6.108472589E-4,-1.068982761E-3
1.110957765E0,2.061609412E-3,-6.108472589E-4,7.635590737E-4
1.113383702E0,1.450762269E-3,6.108472589E-4,7.635590737E-4
1.115809640E0,1.450762269E-3,-0.000000000E0,7.635590737E-4
1.118235577E0,8.399150101E-4,-0.000000000E0,1.527118147E-4
1.120661515E0,8.399150101E-4,-0.000000000E0,1.527118147E-4
1.123087452E0,-9.926267667E-4,6.108472589E-4,7.635590737E-4
1.125513390E0,2.290677221E-4,-0.000000000E0,1.527118147E-4
1.127939327E0,1.450762269E-3,-1.221694518E-3,-4.581354442E-4
1.130365265E0,2.061609412E-3,-1.832541777E-3,1.527118147E-4
1.132791202E0,-9.926267667E-4,-1.221694518E-3,-4.581354442E-4
1.135217140E0,-3.817795368E-4,-1.221694518E-3,-1.068982761E-3
1.137643077E0,2.290677221E-4,-6.108472589E-4,7.635590737E-4
1.140069015E0,2.290677221E-4,6.108472589E-4,7.635590737E-4
1.142494952E0,-3.817795368E-4,-0.000000000E0,-1.068982761E-3
1.144920890E0,-9.926267667E-4,-6.108472589E-4,7.635590737E-4
1.147346827E0,-3.817795368E-4,1.221694518E-3,1.527118147E-4
1.149772765E0,-3.817795368E-4,6.108472589E-4,7.635590737E-4
1.152198702E0,-9.926267667E-4,6.108472589E-4,-1.679830020E-3
1.154624640E0,8.399150101E-4,-1.221694518E-3,-1.068982761E-3
1.157050577E0,2.061609412E-3,-6.108472589E-4,1.527118147E-4
1.159476515E0,1.450762269E-3,-0.000000000E0,-1.068982761E-3
1.161902452E0,1.450762269E-3,6.108472589E-4,1.527118147E-4
1.164328390E0,2.290677221E-4,-0.000000000E0,1.527118147E-4
1.166754327E0,8.399150101E-4,-0.000000000E0,1.527118147E-4
1.169180265E0,1.450762269E-3,6.108472589E-4,1.527118147E-4
1.171606202E0,2.290677221E-4,6.108472589E-4,1.374406274E-3
1.174032140E0,2.290677221E-4,-0.000000000E0,7.635590737E-4
1.176458077E0,2.290677221E-4,6.108472589E-4,-4.581354442E-4
1.178883963E0,8.399150101E-4,-0.000000000E0,-4.581354442E-4
1.181309900E0,2.290677221E-4,1.221694518E-3,1.527118147E-4
1.183735838E0,2.290677221E-4,-6.108472589E-4,-1.068982761E-3
1.186161775E0,-9.926267667E-4,-0.000000000E0,1.527118147E-4
1.188587765E0,-9.926267667E-4,-6.108472589E-4,-1.068982761E-3
1.191013650E0,2.290677221E-4,-2.443389036E-3,-4.581354442E-4
1.193439588E0,-3.817795368E-4,-1.221694518E-3,1.527118147E-4
1.195865525E0,2.290677221E-4,-2.443389036E-3,-4.581354442E-4
1.198291463E0,8.399150101E-4,-6.108472589E-4,-4.581354442E-4
1.200717400E0,1.450762269E-3,1.221694518E-3,1.527118147E-4
1.203143338E0,-3.817795368E-4,6.108472589E-4,-4.581354442E-4
1.205569275E0,-3.817795368E-4,-0.000000000E0,1.527118147E-4
1.207995213E0,2.290677221E-4,-0.000000000E0,-4.581354442E-4
1.210421150E0,8.399150101E-4,-6.108472589E-4,1.527118147E-4
1.212847088E0,-2.214321401E-3,-1.832541777E-3,7.635590737E-4
1.215273025E0,-3.817795368E-4,-0.000000000E0,7.635590737E-4
1.217698963E0,1.450762269E-3,-6.108472589E-4,1.527118147E-4
1.220124900E0,1.450762269E-3,-6.108472589E-4,7.635590737E-4
1.222550838E0,8.399150101E-4,-6.108472589E-4,1.527118147E-4
1.224976775E0,2.290677221E-4,-6.108472589E-4,-1.068982761E-3
1.227402713E0,-3.817795368E-4,-6.108472589E-4,7.635590737E-4
1.229828650E0,-3.817795368E-4,-1.221694518E-3,1.527118147E-4
1.232254588E0,2.290677221E-4,-6.108472589E-4,1.985253533E-3
1.234680525E0,2.290677221E-4,-1.221694518E-3,1.374406274E-3
1.237106463E0,-3.817795368E-4,-0.000000000E0,1.985253533E-3
1.239532400E0,2.061609412E-3,-0.000000000E0,-4.581354442E-4
1.241958338E0,2.290677221E-4,6.108472589E-4,7.635590737E-4
1.244384275E0,8.399150101E-4,1.221694518E-3,1.374406274E-3
1.246810213E0,1.450762269E-3,-1.832541777E-3,1.374406274E-3
1.249236150E0,8.399150101E-4,-6.108472589E-4,1.527118147E-4
1.251662088E0,2.290677221E-4,6.108472589E-4,-1.068982761E-3
1.254088025E0,2.290677221E-4,-6.108472589E-4,1.527118147E-4
1.256513963E0,8.399150101E-4,6.108472589E-4,-4.581354442E-4
1.258939900E0,-3.817795368E-4,6.108472589E-4,1.985253533E-3
1.261365838E0,-3.817795368E-4,-0.000000000E0,-4.581354442E-4
1.263791775E0,-3.817795368E-4,6.108472589E-4,1.527118147E-4
1.266217713E0,8.399150101E-4,6.108472589E-4,-1.068982761E-3
1.268643650E0,-3.817795368E-4,-0.000000000E0,-1.068982761E-3
1.271069588E0,2.290677221E-4,6.108472589E-4,7.635590737E-4
1.273495525E0,8.399150101E-4,-0.000000000E0,1.527118147E-4
1.275921463E0,2.290677221E-4,-0.000000000E0,1.527118147E-4
1.278347400E0,2.290677221E-4,1.221694518E-3,1.527118147E-4
1.280773338E0,8.399150101E-4,-0.000000000E0,-4.581354442E-4
1.283199275E0,8.399150101E-4,-0.000000000E0,-4.581354442E-4
1.285625213E0,2.290677221E-4,-6.108472589E-4,-4.581354442E-4
1.288051150E0,-3.817795368E-4,-1.221694518E-3,-4.581354442E-4
1.290477088E0,-3.817795368E-4,6.108472589E-4,1.527118147E-4
1.292903025E0,-3.817795368E-4,-0.000000000E0,1.985253533E-3
1.295328963E0,8.399150101E-4,-6.108472589E-4,7.635590737E-4
1.297754900E0,-3.817795368E-4,-1.221694518E-3,7.635590737E-4
1.300180838E0,8.399150101E-4,6.108472589E-4,1.374406274E-3
1.302606775E0,-3.817795368E-4,6.108472589E-4,1.527118147E-4
1.305032713E0,1.450762269E-3,-0.000000000E0,-1.068982761E-3
1.307458650E0,2.290677221E-4,-6.108472589E-4,1.527118147E-4
1.309884588E0,-9.926267667E-4,1.221694518E-3,-4.581354442E-4
1.312310525E0,1.450762269E-3,-0.000000000E0,1.527118147E-4
1.314736463E0,8.399150101E-4,-6.108472589E-4,1.374406274E-3
1.317162400E0,-3.817795368E-4,6.108472589E-4,7.635590737E-4
1.319588338E0,2.290677221E-4,-1.221694518E-3,1.374406274E-3
1.322014275E0,8.399150101E-4,-6.108472589E-4,1.985253533E-3
1.324440213E0,2.290677221E-4,-6.108472589E-4,7.635590737E-4
1.326866150E0,2.290677221E-4,-0.000000000E0,-4.581354442E-4
1.329292088E0,8.399150101E-4,-6.108472589E-4,1.527118147E-4
1.331718025E0,2.290677221E-4,-0.000000000E0,1.527118147E-4
1.334143963E0,2.290677221E-4,-6.108472589E-4,1.527118147E-4
1.336569900E0,-3.817795368E-4,-0.000000000E0,1.374406274E-3
1.338995838E0,2.290677221E-4,-6.108472589E-4,7.635590737E-4
1.341421775E0,8.399150101E-4,-0.000000000E0,7.635590737E-4
1.343847713E0,-3.817795368E-4,1.221694518E-3,1.374406274E-3
1.346273650E0,2.290677221E-4,-6.108472589E-4,7.635590737E-4
1.348699536E0,1.450762269E-3,-1.221694518E-3,1.374406274E-3
1.351125525E0,2.290677221E-4,-1.832541777E-3,-4.581354442E-4
1.353551411E0,2.290677221E-4,-6.108472589E-4,-1.068982761E-3
1.355977400E0,-3.817795368E-4,1.221694518E-3,-1.068982761E-3
1.358403286E0,8.399150101E-4,-1.221694518E-3,1.527118147E-4
1.360829275E0,8.399150101E-4,-2.443389036E-3,-1.679830020E-3
1.363255161E0,1.450762269E-3,-0.000000000E0,-4.581354442E-4
1.365681098E0,8.399150101E-4,-1.221694518E-3,1.527118147E-4
1.368107088E0,1.450762269E-3,-1.221694518E-3,1.527118147E-4
1.370532973E0,8.399150101E-4,6.108472589E-4,-1.068982761E-3
1.372958911E0,2.290677221E-4,-0.000000000E0,-4.581354442E-4
1.375384848E0,8.399150101E-4,-0.000000000E0,7.635590737E-4
1.377810786E0,-9.926267667E-4,-1.221694518E-3,1.527118147E-4
1.380236723E0,8.399150101E-4,6.108472589E-4,1.374406274E-3
1.382662661E0,8.399150101E-4,-0.000000000E0,-4.581354442E-4
1.385088598E0,-9.926267667E-4,6.108472589E-4,1.527118147E-4
1.387514536E0,-3.817795368E-4,-0.000000000E0,1.527118147E-4
1.389940473E0,-1.603474026E-3,6.108472589E-4,1.527118147E-4
1.392366411E0,-3.817795368E-4,-0.000000000E0,1.527118147E-4
1.394792348E0,-3.817795368E-4,-0.000000000E0,-1.068982761E-3
1.397218286E0,-3.817795368E-4,-1.221694518E-3,-4.581354442E-4
1.399644223E0,1.450762269E-3,-6.108472589E-4,1.527118147E-4
1.402070161E0,-3.817795368E-4,6.108472589E-4,7.635590737E-4
1.404496098E0,8.399150101E-4,-6.108472589E-4,-1.068982761E-3
1.406922036E0,2.061609412E-3,-6.108472589E-4,-4.581354442E-4
1.409347973E0,1.450762269E-3,-0.000000000E0,1.374406274E-3
1.411773911E0,-3.817795368E-4,-6.108472589E-4,1.374406274E-3
1.414199848E0,2.290677221E-4,-1.221694518E-3,-4.581354442E-4
1.416625786E0,8.399150101E-4,-1.832541777E-3,7.635590737E-4
1.419051723E0,-3.817795368E-4,-0.000000000E0,7.635590737E-4
1.421477661E0,8.399150101E-4,-6.108472589E-4,7.635590737E-4
1.423903598E0,8.399150101E-4,-1.221694518E-3,-4.581354442E-4
1.426329536E0,2.290677221E-4,-1.221694518E-3,-4.581354442E-4
1.428755473E0,8.399150101E-4,-0.000000000E0,-1.068982761E-3
1.431181411E0,8.399150101E-4,-1.221694518E-3,7.635590737E-4
1.433607348E0,1.450762269E-3,-0.000000000E0,-4.581354442E-4
1.436033286E0,2.290677221E-4,-0.000000000E0,1.527118147E-4
1.438459223E0,1.450762269E-3,-1.832541777E-3,7.635590737E-4
1.440885161E0,2.290677221E-4,-1.221694518E-3,7.635590737E-4
1.443311098E0,1.450762269E-3,-6.108472589E-4,7.635590737E-4
1.445737036E0,1.450762269E-3,-0.000000000E0,7.635590737E-4
1.448162973E0,2.061609412E-3,-0.000000000E0,1.374406274E-3
1.450588911E0,2.290677221E-4,1.832541777E-3,1.527118147E-4
1.453014848E0,2.290677221E-4,-0.000000000E0,1.374406274E-3
1.455440786E0,-3.817795368E-4,-0.000000000E0,-4.581354442E-4
1.457866723E0,-1.603474026E-3,6.108472589E-4,-1.679830020E-3
1.460292661E0,2.290677221E-4,-6.108472589E-4,-1.068982761E-3
1.462718598E0,8.399150101E-4,-0.000000000E0,-4.581354442E-4
1.465144536E0,-3.817795368E-4,-1.832541777E-3,1.527118147E-4
1.467570473E0,2.290677221E-4,6.108472589E-4,1.374406274E-3
1.469996411E0,2.290677221E-4,-1.221694518E-3,1.527118147E-4
1.472422348E0,8.399150101E-4,6.108472589E-4,7.635590737E-4
1.474848286E0,2.061609412E-3,6.108472589E-4,7.635590737E-4
1.477274223E0,1.450762269E-3,6.108472589E-4,-4.581354442E-4
1.479700161E0,8.399150101E-4,6.108472589E-4,1.527118147E-4
1.482126098E0,1.450762269E-3,-1.221694518E-3,1.527118147E-4
1.484552036E0,-9.926267667E-4,-6.108472589E-4,7.635590737E-4
1.486977973E0,-3.817795368E-4,1.832541777E-3,1.527118147E-4
1.489403911E0,8.399150101E-4,-6.108472589E-4,-4.581354442E-4
1.491829848E0,8.399150101E-4,-1.221694518E-3,7.635590737E-4
1.494255786E0,2.290677221E-4,6.108472589E-4,1.527118147E-4
1.496681723E0,2.290677221E-4,-0.000000000E0,1.527118147E-4
1.499107661E0,1.450762269E-3,-1.221694518E-3,1.527118147E-4
1.501533598E0,-3.817795368E-4,6.108472589E-4,1.527118147E-4
1.503959536E0,2.290677221E-4,6.108472589E-4,1.527118147E-4
1.506385473E0,-3.817795368E-4,6.108472589E-4,1.374406274E-3
1.508811411E0,2.290677221E-4,-0.000000000E0,1.985253533E-3
1.511237348E0,8.399150101E-4,-6.108472589E-4,-4.581354442E-4
1.513663286E0,2.290677221E-4,6.108472589E-4,1.527118147E-4
1.516089223E0,2.290677221E-4,-1.832541777E-3,-1.068982761E-3
1.518515161E0,8.399150101E-4,-6.108472589E-4,-1.068982761E-3
1.520941098E0,1.450762269E-3,-1.221694518E-3,-1.679830020E-3
1.523367036E0,1.450762269E-3,-0.000000000E0,-1.068982761E-3
1.525792973E0,2.290677221E-4,-0.000000000E0,1.527118147E-4
1.528218911E0,2.290677221E-4,6.108472589E-4,7.635590737E-4
1.530644848E0,8.399150101E-4,1.832541777E-3,-1.068982761E-3
1.533070786E0,1.450762269E-3,6.108472589E-4,-4.581354442E-4
1.535496723E0,-9.926267667E-4,6.108472589E-4,1.527118147E-4
1.537922661E0,-3.817795368E-4,1.221694518E-3,-4.581354442E-4
1.540348598E0,2.290677221E-4,6.108472589E-4,-4.581354442E-4
1.542774536E0,8.399150101E-4,-1.221694518E-3,-1.068982761E-3
1.545200473E0,-3.817795368E-4,-1.832541777E-3,7.635590737E-4
1.547626411E0,-9.926267667E-4,-6.108472589E-4,7.635590737E-4
1.550052348E0,2.672456671E-3,-0.000000000E0,1.527118147E-4
1.552478286E0,2.061609412E-3,-1.221694518E-3,7.635590737E-4
1.554904223E0,8.399150101E-4,-6.108472589E-4,1.527118147E-4
1.557330108E0,2.290677221E-4,-0.000000000E0,1.527118147E-4
1.559756098E0,-9.926267667E-4,-6.108472589E-4,1.527118147E-4
1.562182036E0,2.290677221E-4,-0.000000000E0,1.527118147E-4
1.564607973E0,8.399150101E-4,-6.108472589E-4,1.374406274E-3
1.567033858E0,8.399150101E-4,1.221694518E-3,-4.581354442E-4
1.569459796E0,1.450762269E-3,-6.108472589E-4,1.527118147E-4
1.571885733E0,8.399150101E-4,6.108472589E-4,1.374406274E-3
1.574311723E0,-3.817795368E-4,1.221694518E-3,1.527118147E-4
1.576737661E0,-3.817795368E-4,6.108472589E-4,-4.581354442E-4
1.579163598E0,-3.817795368E-4,-0.000000000E0,1.527118147E-4
1.581589483E0,5.344913807E-4,-3.054236295E-4,-6.108472589E-4
1.584015473E0,5.344913807E-4,-9.162708884E-4,1.221694518E-3
1.586441358E0,1.145338640E-3,3.054236295E-4,-0.000000000E0
1.588867296E0,-7.635590737E-5,3.054236295E-4,-0.000000000E0
1.591293233E0,-7.635590737E-5,3.054236295E-4,-1.221694518E-3
1.593719171E0,5.344913807E-4,3.054236295E-4,-1.221694518E-3
1.596145108E0,5.344913807E-4,9.162708884E-4,-1.221694518E-3
1.598571046E0,5.344913807E-4,-9.926267667E-4,-0.000000000E0
1.600996983E0,-7.635590737E-5,2.290677221E-4,6.108472589E-4
1.603422921E0,5.344913807E-4,2.290677221E-4,-0.000000000E0
1.605848858E0,-1.527118147E-4,2.290677221E-4,1.221694518E-3
1.608274796E0,-7.635590737E-4,-9.926267667E-4,6.108472589E-4
1.610700733E0,-1.527118147E-4,2.290677221E-4,-6.108472589E-4
1.613126671E0,-7.635590737E-4,-3.817795368E-4,6.108472589E-4
1.615552608E0,-1.527118147E-4,-3.817795368E-4,-6.108472589E-4
1.617978546E0,4.581354442E-4,2.290677221E-4,-6.108472589E-4
1.620404483E0,-1.527118147E-4,-9.926267667E-4,-6.108472589E-4
1.622830421E0,4.581354442E-4,-9.926267667E-4,6.108472589E-4
1.625256358E0,-7.635590737E-4,-3.817795368E-4,-1.832541777E-3
1.627682296E0,4.581354442E-4,2.290677221E-4,-6.108472589E-4
1.630108233E0,-7.635590737E-4,-3.817795368E-4,-1.221694518E-3
1.632534171E0,-7.635590737E-4,2.290677221E-4,-0.000000000E0
1.634960108E0,-7.635590737E-4,-9.926267667E-4,1.221694518E-3
1.637386046E0,4.581354442E-4,2.290677221E-4,6.108472589E-4
1.639811983E0,4.581354442E-4,2.290677221E-4,-6.108472589E-4
1.642237921E0,-1.527118147E-4,2.290677221E-4,-0.000000000E0
1.644663858E0,-1.527118147E-4,-3.817795368E-4,0.000000000E0
1.647089796E0,4.581354442E-4,-9.926267667E-4,1.221694518E-3
1.649515733E0,-1.374406274E-3,-9.926267667E-4,1.832541777E-3
1.651941671E0,-1.374406274E-3,8.399150101E-4,6.108472589E-4
1.654367608E0,4.581354442E-4,-3.817795368E-4,0.000000000E0
1.656793546E0,1.068982761E-3,-2.214321401E-3,0.000000000E0
1.659219483E0,-7.635590737E-4,1.450762269E-3,1.832541777E-3
1.661645421E0,-1.527118147E-4,-3.817795368E-4,0.000000000E0
1.664071358E0,1.068982761E-3,2.290677221E-4,-1.221694518E-3
1.666497296E0,4.581354442E-4,-1.603474026E-3,-6.108472589E-4
1.668923233E0,-1.527118147E-4,-1.603474026E-3,-6.108472589E-4
1.671349171E0,-1.374406274E-3,2.290677221E-4,-1.221694518E-3
1.673775108E0,4.581354442E-4,2.290677221E-4,0.000000000E0
1.676201046E0,-1.527118147E-4,-9.926267667E-4,-6.108472589E-4
1.678626983E0,-1.374406274E-3,1.450762269E-3,0.000000000E0
1.681052921E0,-1.527118147E-4,8.399150101E-4,-6.108472589E-4
1.683478858E0,4.581354442E-4,2.290677221E-4,0.000000000E0
1.685904796E0,1.068982761E-3,2.290677221E-4,0.000000000E0
1.688330733E0,-1.527118147E-4,-3.817795368E-4,-1.221694518E-3
1.690756671E0,-1.527118147E-4,2.290677221E-4,6.108472589E-4
1.693182608E0,4.581354442E-4,2.290677221E-4,-6.108472589E-4
1.695608546E0,-7.635590737E-4,2.290677221E-4,0.000000000E0
1.698034483E0,-1.527118147E-4,2.290677221E-4,-6.108472589E-4
1.700460421E0,4.581354442E-4,1.450762269E-3,-1.221694518E-3
1.702886358E0,-7.635590737E-4,-3.817795368E-4,0.000000000E0
1.705312296E0,-1.527118147E-4,2.290677221E-4,6.108472589E-4
1.707738233E0,-1.527118147E-4,-1.603474026E-3,6.108472589E-4
1.710164171E0,1.068982761E-3,-9.926267667E-4,-6.108472589E-4
1.712590108E0,1.068982761E-3,8.399150101E-4,-6.108472589E-4
1.715016046E0,4.581354442E-4,-9.926267667E-4,-6.108472589E-4
1.717441983E0,-1.527118147E-4,-1.603474026E-3,-6.108472589E-4
1.719867921E0,4.581354442E-4,-3.817795368E-4,-6.108472589E-4
1.722293858E0,4.581354442E-4,1.450762269E-3,0.000000000E0
1.724719796E0,-1.527118147E-4,-3.817795368E-4,0.000000000E0
1.727145733E0,-1.527118147E-4,2.290677221E-4,-6.108472589E-4
1.729571671E0,4.581354442E-4,2.290677221E-4,6.108472589E-4
1.731997608E0,-1.527118147E-4,2.290677221E-4,1.221694518E-3
1.734423546E0,-7.635590737E-4,-1.603474026E-3,6.108472589E-4
1.736849483E0,-7.635590737E-4,2.290677221E-4,0.000000000E0
1.739275421E0,-1.527118147E-4,1.450762269E-3,-6.108472589E-4
1.741701358E0,1.679830020E-3,1.450762269E-3,0.000000000E0
1.744127296E0,1.679830020E-3,2.290677221E-4,0.000000000E0
1.746553233E0,4.581354442E-4,-3.817795368E-4,0.000000000E0
1.748979171E0,-1.527118147E-4,-3.817795368E-4,1.221694518E-3
1.751405108E0,-1.374406274E-3,-9.926267667E-4,-6.108472589E-4
1.753831046E0,4.581354442E-4,-3.817795368E-4,0.000000000E0
1.756256983E0,-1.527118147E-4,-3.817795368E-4,1.221694518E-3
1.758682921E0,-1.527118147E-4,-9.926267667E-4,6.108472589E-4
1.761108858E0,4.581354442E-4,-3.817795368E-4,-6.108472589E-4
1.763534796E0,-1.527118147E-4,2.290677221E-4,0.000000000E0
1.765960733E0,-7.635590737E-4,-3.817795368E-4,7.635590737E-5
1.768386671E0,-7.635590737E-4,2.290677221E-4,7.635590737E-5
1.770812608E0,-7.635590737E-4,2.290677221E-4,7.635590737E-5
1.773238546E0,-1.527118147E-4,-9.926267667E-4,-5.344913807E-4
1.775664483E0,4.581354442E-4,-3.817795368E-4,1.908897655E-3
1.778090421E0,1.068982761E-3,2.290677221E-4,-1.145338640E-3
1.780516358E0,4.581354442E-4,-3.817795368E-4,7.635590737E-5
1.782942296E0,-1.527118147E-4,-9.926267667E-4,6.872031372E-4
1.785368233E0,4.581354442E-4,1.450762269E-3,-5.344913807E-4
1.787794171E0,4.581354442E-4,-9.926267667E-4,1.298050396E-3
1.790220108E0,-1.527118147E-4,-9.926267667E-4,7.635590737E-5
1.792646046E0,-1.527118147E-4,8.399150101E-4,7.635590737E-5
1.795071983E0,-7.635590737E-4,-3.817795368E-4,-5.344913807E-4
1.797497921E0,-1.527118147E-4,-3.817795368E-4,-5.344913807E-4
1.799923858E0,-7.635590737E-4,2.290677221E-4,-5.344913807E-4
1.802349796E0,-7.635590737E-4,2.290677221E-4,1.298050396E-3
1.804775733E0,-1.374406274E-3,8.399150101E-4,6.872031372E-4
1.807201671E0,-7.635590737E-4,8.399150101E-4,1.298050396E-3
1.809627608E0,-1.374406274E-3,2.290677221E-4,7.635590737E-5
1.812053546E0,4.581354442E-4,-3.817795368E-4,-5.344913807E-4
1.814479483E0,-1.527118147E-4,8.399150101E-4,-5.344913807E-4
1.816905421E0,4.581354442E-4,1.450762269E-3,-5.344913807E-4
1.819331358E0,-1.527118147E-4,-3.817795368E-4,6.872031372E-4
1.821757296E0,4.581354442E-4,8.399150101E-4,-1.145338640E-3
1.824183233E0,4.581354442E-4,2.290677221E-4,-5.344913807E-4
1.826609119E0,-7.635590737E-4,-2.214321401E-3,-1.145338640E-3
1.829035108E0,-1.527118147E-4,-9.926267667E-4,7.635590737E-5
1.831461046E0,-7.635590737E-4,8.399150101E-4,7.635590737E-5
1.833886983E0,-1.374406274E-3,2.290677221E-4,6.872031372E-4
1.836312921E0,4.581354442E-4,2.290677221E-4,7.635590737E-5
1.838738806E0,-7.635590737E-4,8.399150101E-4,7.635590737E-5
1.841164744E0,-1.527118147E-4,-1.603474026E-3,-1.145338640E-3
1.843590733E0,-1.527118147E-4,-3.817795368E-4,-1.756185899E-3
1.846016671E0,4.581354442E-4,-1.603474026E-3,6.872031372E-4
1.848442556E0,4.581354442E-4,8.399150101E-4,7.635590737E-5
1.850868494E0,4.581354442E-4,8.399150101E-4,-5.344913807E-4
1.853294431E0,1.068982761E-3,-3.817795368E-4,-1.145338640E-3
1.855720369E0,4.581354442E-4,-3.817795368E-4,7.635590737E-5
1.858146306E0,-1.527118147E-4,-9.926267667E-4,-5.344913807E-4
1.860572244E0,-7.635590737E-4,2.061609412E-3,7.635590737E-5
1.862998181E0,1.068982761E-3,-1.603474026E-3,7.635590737E-5
1.865424119E0,-7.635590737E-4,-9.926267667E-4,-5.344913807E-4
1.867850056E0,4.581354442E-4,8.399150101E-4,7.635590737E-5
1.870275994E0,-7.635590737E-4,8.399150101E-4,-5.344913807E-4
1.872701931E0,4.581354442E-4,8.399150101E-4,7.635590737E-5
1.875127869E0,1.068982761E-3,8.399150101E-4,-5.344913807E-4
1.877553806E0,4.581354442E-4,-3.817795368E-4,6.872031372E-4
1.879979744E0,4.581354442E-4,2.290677221E-4,1.908897655E-3
1.882405681E0,4.581354442E-4,1.450762269E-3,6.872031372E-4
1.884831619E0,-1.527118147E-4,2.290677221E-4,-5.344913807E-4
1.887257556E0,4.581354442E-4,8.399150101E-4,6.872031372E-4
1.889683494E0,-1.527118147E-4,-9.926267667E-4,7.635590737E-5
1.892109431E0,4.581354442E-4,-9.926267667E-4,6.872031372E-4
1.894535369E0,-1.527118147E-4,2.290677221E-4,7.635590737E-5
1.896961306E0,4.581354442E-4,-3.817795368E-4,-5.344913807E-4
1.899387244E0,-7.635590737E-4,2.290677221E-4,-5.344913807E-4
1.901813181E0,1.679830020E-3,8.399150101E-4,7.635590737E-5
1.904239119E0,4.581354442E-4,2.290677221E-4,6.872031372E-4
1.906665056E0,-1.527118147E-4,9.162708884E-4,7.635590737E-5
1.909090994E0,4.581354442E-4,-3.054236295E-4,7.635590737E-5
1.911516931E0,-7.635590737E-4,3.054236295E-4,6.872031372E-4
1.913942869E0,-1.527118147E-4,9.162708884E-4,7.635590737E-5
1.916368806E0,-7.635590737E-4,-3.817795368E-4,-1.145338640E-3
1.918794744E0,4.581354442E-4,-3.817795368E-4,7.635590737E-5
1.921220681E0,-7.635590737E-4,-3.817795368E-4,6.872031372E-4
1.923646619E0,-1.527118147E-4,-9.926267667E-4,7.635590737E-5
1.926072556E0,-7.635590737E-4,8.399150101E-4,7.635590737E-5
1.928498494E0,-1.527118147E-4,-9.926267667E-4,-1.145338640E-3
1.930924431E0,-7.635590737E-4,-9.926267667E-4,-5.344913807E-4
1.933350369E0,-7.635590737E-4,-9.926267667E-4,-5.344913807E-4
1.935776306E0,-1.985253533E-3,-3.817795368E-4,2.519744914E-3
1.938202244E0,4.581354442E-4,2.290677221E-4,-5.344913807E-4
1.940628181E0,1.068982761E-3,8.399150101E-4,7.635590737E-5
1.943054119E0,-7.635590737E-4,-9.926267667E-4,6.872031372E-4
1.945480056E0,1.068982761E-3,2.290677221E-4,7.635590737E-5
1.947905994E0,1.068982761E-3,-3.817795368E-4,-5.344913807E-4
1.950331931E0,4.581354442E-4,-3.817795368E-4,-5.344913807E-4
1.952757869E0,4.581354442E-4,2.290677221E-4,6.872031372E-4
1.955183806E0,1.068982761E-3,1.450762269E-3,7.635590737E-5
1.957609744E0,-1.527118147E-4,2.290677221E-4,7.635590737E-5
1.960035681E0,-7.635590737E-4,-3.817795368E-4,7.635590737E-5
1.962461619E0,1.068982761E-3,-3.817795368E-4,-5.344913807E-4
1.964887556E0,1.068982761E-3,2.290677221E-4,7.635590737E-5
1.967313494E0,-1.374406274E-3,2.290677221E-4,-5.344913807E-4
1.969739431E0,4.581354442E-4,2.290677221E-4,7.635590737E-5
1.972165369E0,4.581354442E-4,2.290677221E-4,7.635590737E-5
1.974591306E0,4.581354442E-4,-3.817795368E-4,6.872031372E-4
1.977017244E0,-7.635590737E-4,8.399150101E-4,6.872031372E-4
1.979443181E0,1.679830020E-3,-1.603474026E-3,7.635590737E-5
1.981869119E0,4.581354442E-4,-3.817795368E-4,7.635590737E-5
1.984295056E0,-7.635590737E-4,2.290677221E-4,-5.344913807E-4
1.986720994E0,-1.527118147E-4,-9.926267667E-4,6.872031372E-4
1.989146931E0,-7.635590737E-4,-9.926267667E-4,6.872031372E-4
1.991572869E0,4.581354442E-4,2.290677221E-4,-5.344913807E-4
1.993998806E0,-1.374406274E-3,-3.817795368E-4,6.872031372E-4
1.996424744E0,-7.635590737E-4,-3.817795368E-4,6.872031372E-4
1.998850681E0,-7.635590737E-4,-3.817795368E-4,-1.145338640E-3
2.001276619E0,-1.527118147E-4,-9.926267667E-4,-1.145338640E-3
2.003702556E0,-7.635590737E-4,-3.817795368E-4,-5.344913807E-4
2.006128494E0,1.068982761E-3,-3.817795368E-4,7.635590737E-5
2.008554431E0,4.581354442E-4,-9.926267667E-4,-1.145338640E-3
2.010980369E0,2.290677279E-3,-9.926267667E-4,7.635590737E-5
2.013406306E0,4.581354442E-4,-3.817795368E-4,-5.344913807E-4
2.015832244E0,-7.635590737E-4,2.290677221E-4,-5.344913807E-4
2.018258181E0,-1.527118147E-4,-3.817795368E-4,6.872031372E-4
2.020684119E0,1.068982761E-3,-3.817795368E-4,-5.344913807E-4
2.023110056E0,4.581354442E-4,1.450762269E-3,-1.145338640E-3
2.025535994E0,1.679830020E-3,1.450762269E-3,-1.756185899E-3
2.027961931E0,4.581354442E-4,-3.817795368E-4,-1.145338640E-3
2.030387869E0,-1.527118147E-4,-3.817795368E-4,2.519744914E-3
2.032813806E0,-1.374406274E-3,2.290677221E-4,6.872031372E-4
2.035239744E0,-7.635590737E-4,2.290677221E-4,7.635590737E-5
2.037665681E0,-7.635590737E-4,8.399150101E-4,-1.145338640E-3
2.040091619E0,-1.527118147E-4,2.290677221E-4,7.635590737E-5
2.042517556E0,-7.635590737E-4,-3.817795368E-4,6.872031372E-4
2.044943494E0,-7.635590737E-4,-3.817795368E-4,7.635590737E-5
2.047369431E0,-7.635590737E-4,1.527118147E-3,6.872031372E-4
2.049795369E0,-1.527118147E-4,-3.054236295E-4,7.635590737E-5
2.052221306E0,-1.527118147E-4,3.054236295E-4,6.872031372E-4
2.054647244E0,-1.374406274E-3,-3.054236295E-4,-5.344913807E-4
2.057073181E0,-1.374406274E-3,-9.162708884E-4,-1.145338640E-3
2.059499119E0,-1.374406274E-3,-9.162708884E-4,7.635590737E-5
2.061925056E0,-1.374406274E-3,-9.162708884E-4,6.872031372E-4
2.064350994E0,4.581354442E-4,-3.054236295E-4,7.635590737E-5
2.066776931E0,4.581354442E-4,3.054236295E-4,7.635590737E-5
2.069202869E0,-1.527118147E-4,-1.527118147E-3,6.872031372E-4
2.071628806E0,-7.635590737E-4,3.054236295E-4,-5.344913807E-4
2.074054744E0,-1.527118147E-4,3.054236295E-4,-5.344913807E-4
2.076480681E0,-1.527118147E-4,-9.162708884E-4,6.872031372E-4
2.078906619E0,-1.527118147E-4,-3.054236295E-4,6.872031372E-4
2.081332556E0,-1.527118147E-4,3.054236295E-4,7.635590737E-5
2.083758494E0,-1.527118147E-4,3.054236295E-4,7.635590737E-5
2.086184431E0,4.581354442E-4,9.162708884E-4,7.635590737E-5
2.088610369E0,-1.527118147E-4,3.054236295E-4,-5.344913807E-4
2.091036306E0,-1.527118147E-4,3.054236295E-4,6.872031372E-4
2.093462244E0,-1.527118147E-4,-3.054236295E-4,-5.344913807E-4
2.095888181E0,1.068982761E-3,-3.054236295E-4,6.872031372E-4
2.098314119E0,1.679830020E-3,3.054236295E-4,-5.344913807E-4
2.100740056E0,-1.374406274E-3,9.162708884E-4,6.872031372E-4
2.103165994E0,4.581354442E-4,3.054236295E-4,7.635590737E-5
2.105591931E0,-7.635590737E-4,-3.054236295E-4,7.635590737E-5
2.108017869E0,-7.635590737E-4,3.054236295E-4,-1.756185899E-3
2.110443806E0,-1.527118147E-4,-3.054236295E-4,7.635590737E-5
2.112869744E0,-1.374406274E-3,9.162708884E-4,6.872031372E-4
2.115295681E0,-1.527118147E-4,-3.054236295E-4,7.635590737E-5
2.117721619E0,-1.527118147E-4,-3.054236295E-4,-5.344913807E-4
2.120147556E0,4.581354442E-4,-3.054236295E-4,-5.344913807E-4
2.122573494E0,1.068982761E-3,-9.162708884E-4,6.872031372E-4
2.124999431E0,1.068982761E-3,9.162708884E-4,-1.756185899E-3
2.127425369E0,-1.527118147E-4,9.162708884E-4,7.635590737E-5
2.129851254E0,-1.374406274E-3,3.054236295E-4,6.872031372E-4
2.132277244E0,-1.527118147E-4,9.162708884E-4,6.872031372E-4
2.134703129E0,-7.635590737E-4,3.054236295E-4,-1.145338640E-3
2.137129067E0,-1.527118147E-4,9.162708884E-4,7.635590737E-5
2.139555004E0,4.581354442E-4,-9.162708884E-4,6.872031372E-4
2.141980942E0,-7.635590737E-4,9.162708884E-4,7.635590737E-5
2.144406931E0,1.068982761E-3,9.162708884E-4,2.519744914E-3
2.146832817E0,4.581354442E-4,3.054236295E-4,-5.344913807E-4
2.149258806E0,1.679830020E-3,-3.054236295E-4,7.635590737E-5
2.151684744E0,4.581354442E-4,3.054236295E-4,7.635590737E-5
2.154110629E0,4.581354442E-4,-9.162708884E-4,7.635590737E-5
2.156536567E0,-1.527118147E-4,9.162708884E-4,6.872031372E-4
2.158962504E0,-1.374406274E-3,3.054236295E-4,7.635590737E-5
2.161388442E0,-1.374406274E-3,-9.162708884E-4,7.635590737E-5
2.163814379E0,-1.527118147E-4,-1.527118147E-3,-5.344913807E-4
2.166240317E0,4.581354442E-4,3.054236295E-4,-1.756185899E-3
2.168666254E0,1.068982761E-3,9.162708884E-4,-5.344913807E-4
2.171092192E0,1.068982761E-3,3.054236295E-4,7.635590737E-5
2.173518129E0,-7.635590737E-4,-1.527118147E-3,-5.344913807E-4
2.175944067E0,-1.374406274E-3,3.054236295E-4,-5.344913807E-4
2.178370004E0,-1.527118147E-4,9.162708884E-4,7.635590737E-5
2.180795942E0,-1.527118147E-4,3.054236295E-4,6.872031372E-4
2.183221879E0,-1.527118147E-4,3.054236295E-4,7.635590737E-5
2.185647817E0,4.581354442E-4,3.054236295E-4,-1.756185899E-3
2.188073754E0,4.581354442E-4,3.054236295E-4,7.635590737E-5
2.190499692E0,4.581354442E-4,3.054236295E-4,7.635590737E-5
2.192925629E0,-1.527118147E-4,-3.054236295E-4,1.298050396E-3
2.195351567E0,-1.527118147E-4,1.527118147E-3,6.872031372E-4
2.197777504E0,-1.527118147E-4,3.054236295E-4,6.872031372E-4
2.200203442E0,-1.374406274E-3,-9.162708884E-4,6.872031372E-4
2.202629379E0,-1.374406274E-3,-3.054236295E-4,6.872031372E-4
2.205055317E0,4.581354442E-4,9.162708884E-4,6.872031372E-4
2.207481254E0,1.679830020E-3,3.054236295E-4,7.635590737E-5
2.209907192E0,4.581354442E-4,9.162708884E-4,7.635590737E-5
2.212333129E0,-7.635590737E-4,3.054236295E-4,6.872031372E-4
2.214759067E0,4.581354442E-4,-3.054236295E-4,-5.344913807E-4
2.217185004E0,4.581354442E-4,3.054236295E-4,1.298050396E-3
2.219610942E0,1.068982761E-3,3.054236295E-4,6.872031372E-4
2.222036879E0,-1.298050396E-3,-9.162708884E-4,-5.344913807E-4
2.224462817E0,-1.298050396E-3,-3.054236295E-4,-5.344913807E-4
2.226888754E0,5.344913807E-4,3.054236295E-4,1.298050396E-3
2.229314692E0,-7.635590737E-5,3.054236295E-4,7.635590737E-5
2.231740629E0,-7.635590737E-5,3.054236295E-4,7.635590737E-5
2.234166567E0,5.344913807E-4,-3.054236295E-4,-5.344913807E-4
2.236592504E0,1.145338640E-3,9.162708884E-4,-5.344913807E-4
2.239018442E0,-7.635590737E-5,3.054236295E-4,7.635590737E-5
2.241444379E0,-6.872031372E-4,3.054236295E-4,7.635590737E-5
2.243870317E0,5.344913807E-4,-3.054236295E-4,6.872031372E-4
2.246296254E0,-7.635590737E-5,1.527118147E-3,7.635590737E-5
2.248722192E0,5.344913807E-4,-3.054236295E-4,6.872031372E-4
2.251148129E0,-7.635590737E-5,9.162708884E-4,6.872031372E-4
2.253574067E0,5.344913807E-4,9.162708884E-4,1.298050396E-3
2.256000004E0,-7.635590737E-5,-3.054236295E-4,-5.344913807E-4
2.258425942E0,1.145338640E-3,-9.162708884E-4,-1.145338640E-3
2.260851879E0,5.344913807E-4,-1.527118147E-3,-5.344913807E-4
2.263277817E0,1.145338640E-3,-9.162708884E-4,6.872031372E-4
2.265703754E0,-7.635590737E-5,9.162708884E-4,6.872031372E-4
2.268129692E0,-7.635590737E-5,9.162708884E-4,6.872031372E-4
2.270555629E0,5.344913807E-4,3.054236295E-4,7.635590737E-5
2.272981567E0,1.145338640E-3,-3.054236295E-4,6.872031372E-4
2.275407504E0,5.344913807E-4,1.527118147E-3,-5.344913807E-4
2.277833442E0,1.145338640E-3,-9.162708884E-4,7.635590737E-5
2.280259379E0,-1.298050396E-3,3.054236295E-4,1.298050396E-3
2.282685317E0,-7.635590737E-5,-3.054236295E-4,6.872031372E-4
2.285111254E0,5.344913807E-4,3.054236295E-4,-1.145338640E-3
2.287537192E0,-1.298050396E-3,1.527118147E-3,-5.344913807E-4
2.289963129E0,5.344913807E-4,-3.054236295E-4,-5.344913807E-4
2.292389067E0,-7.635590737E-5,-2.214321401E-3,7.635590737E-5
2.294815004E0,-1.908897655E-3,-9.926267667E-4,-5.344913807E-4
2.297240942E0,5.344913807E-4,-3.817795368E-4,-5.344913807E-4
2.299666879E0,5.344913807E-4,-1.603474026E-3,6.872031372E-4
2.302092817E0,1.145338640E-3,-1.603474026E-3,7.635590737E-5
2.304518754E0,-6.872031372E-4,2.290677221E-4,6.872031372E-4
2.306944692E0,-6.872031372E-4,-3.817795368E-4,7.635590737E-5
2.309370629E0,1.145338640E-3,-9.926267667E-4,6.872031372E-4
2.311796567E0,-6.872031372E-4,2.290677221E-4,6.872031372E-4
2.314222504E0,-7.635590737E-5,1.450762269E-3,1.298050396E-3
2.316648442E0,-7.635590737E-5,8.399150101E-4,1.908897655E-3
2.319074379E0,-7.635590737E-5,-9.926267667E-4,6.872031372E-4
2.321500317E0,-7.635590737E-5,2.290677221E-4,-5.344913807E-4
2.323926254E0,4.581354442E-4,-9.926267667E-4,7.635590737E-5
2.326352192E0,-1.527118147E-4,2.290677221E-4,7.635590737E-5
2.328778129E0,-7.635590737E-4,2.290677221E-4,7.635590737E-5
2.331204067E0,-1.527118147E-4,-3.817795368E-4,6.872031372E-4
2.333630004E0,-1.527118147E-4,-9.926267667E-4,-5.344913807E-4
2.336055942E0,4.581354442E-4,-3.817795368E-4,-5.344913807E-4
2.338481879E0,-1.527118147E-4,-9.926267667E-4,6.872031372E-4
2.340907817E0,-7.635590737E-4,2.290677221E-4,-1.756185899E-3
2.343333754E0,-7.635590737E-4,2.290677221E-4,7.635590737E-5
2.345759692E0,4.581354442E-4,-3.817795368E-4,1.908897655E-3
2.348185629E0,-1.527118147E-4,-3.817795368E-4,1.908897655E-3
2.350611567E0,-7.635590737E-4,-3.817795368E-4,1.298050396E-3
2.353037504E0,-7.635590737E-4,-3.817795368E-4,6.872031372E-4
2.355463442E0,-7.635590737E-4,-3.817795368E-4,6.872031372E-4
2.357889379E0,-7.635590737E-4,-3.817795368E-4,7.635590737E-5
2.360315317E0,1.679830020E-3,2.290677221E-4,7.635590737E-5
2.362741254E0,4.581354442E-4,8.399150101E-4,7.635590737E-5
2.365167192E0,-7.635590737E-4,-9.926267667E-4,-1.145338640E-3
2.367593129E0,-1.527118147E-4,-3.817795368E-4,-1.145338640E-3
2.370019067E0,1.068982761E-3,1.450762269E-3,-1.832541777E-3
2.372445004E0,-1.527118147E-4,2.290677221E-4,1.221694518E-3
2.374870942E0,4.581354442E-4,-9.926267667E-4,1.221694518E-3
2.377296879E0,4.581354442E-4,2.290677221E-4,0.000000000E0
2.379722817E0,-7.635590737E-4,2.290677221E-4,6.108472589E-4
2.382148754E0,-7.635590737E-4,2.290677221E-4,6.108472589E-4
2.384574692E0,1.068982761E-3,-9.926267667E-4,0.000000000E0
2.387000629E0,4.581354442E-4,-3.817795368E-4,6.108472589E-4
2.389426567E0,-7.635590737E-4,8.399150101E-4,1.221694518E-3
2.391852504E0,4.581354442E-4,8.399150101E-4,0.000000000E0
2.394278442E0,-1.527118147E-4,-3.817795368E-4,6.108472589E-4
2.396704379E0,-1.527118147E-4,2.290677221E-4,-6.108472589E-4
2.399130317E0,-7.635590737E-4,-3.054236295E-4,6.108472589E-4
2.401556254E0,-1.374406274E-3,-3.054236295E-4,6.108472589E-4
2.403982192E0,-1.527118147E-4,-3.054236295E-4,0.000000000E0
2.406408129E0,-7.635590737E-4,3.054236295E-4,-1.832541777E-3
2.408834067E0,-1.527118147E-4,-9.162708884E-4,0.000000000E0
2.411260004E0,1.068982761E-3,-3.054236295E-4,-6.108472589E-4
2.413685942E0,1.679830020E-3,-1.527118147E-3,-6.108472589E-4
2.416111879E0,4.581354442E-4,-3.054236295E-4,0.000000000E0
2.418537817E0,4.581354442E-4,9.162708884E-4,2.443389036E-3
2.420963754E0,-7.635590737E-4,9.162708884E-4,-1.221694518E-3
2.423389692E0,4.581354442E-4,3.054236295E-4,-0.000000000E0
2.425815629E0,1.679830020E-3,-3.054236295E-4,-0.000000000E0
2.428241567E0,-7.635590737E-4,3.054236295E-4,-6.108472589E-4
2.430667504E0,-1.527118147E-4,-3.054236295E-4,6.108472589E-4
2.433093442E0,-1.527118147E-4,3.054236295E-4,-0.000000000E0
2.435519379E0,4.581354442E-4,-9.162708884E-4,1.221694518E-3
2.437945317E0,4.581354442E-4,-9.162708884E-4,-6.108472589E-4
2.440371254E0,-1.374406274E-3,-1.527118147E-3,-0.000000000E0
2.442797192E0,-7.635590737E-4,-9.162708884E-4,-0.000000000E0
2.445223129E0,-1.374406274E-3,-1.527118147E-3,-0.000000000E0
2.447649015E0,4.581354442E-4,3.054236295E-4,1.221694518E-3
2.450074952E0,4.581354442E-4,9.162708884E-4,-6.108472589E-4
2.452500942E0,4.581354442E-4,9.162708884E-4,-1.221694518E-3
2.454926827E0,4.581354442E-4,3.054236295E-4,-1.832541777E-3
2.457352817E0,-1.527118147E-4,3.054236295E-4,-1.221694518E-3
2.459778754E0,-7.635590737E-4,-9.162708884E-4,-0.000000000E0
2.462204692E0,-1.374406274E-3,-3.054236295E-4,6.108472589E-4
2.464630629E0,-1.527118147E-4,1.527118147E-3,6.108472589E-4
2.467056515E0,-7.635590737E-4,3.054236295E-4,-0.000000000E0
2.469482452E0,-7.635590737E-4,3.054236295E-4,6.108472589E-4
2.471908442E0,-7.635590737E-4,-3.054236295E-4,-1.221694518E-3
2.474334379E0,-1.527118147E-4,-3.054236295E-4,-0.000000000E0
2.476760265E0,-7.635590737E-4,3.054236295E-4,-0.000000000E0
2.479186202E0,4.581354442E-4,-9.162708884E-4,6.108472589E-4
2.481612140E0,-7.635590737E-4,-3.054236295E-4,1.221694518E-3
2.484038077E0,-7.635590737E-4,-9.162708884E-4,6.108472589E-4
2.486464015E0,4.581354442E-4,-9.162708884E-4,-0.000000000E0
2.488889952E0,1.068982761E-3,3.054236295E-4,5.344913807E-4
2.491315890E0,-7.635590737E-4,-3.054236295E-4,-7.635590737E-5
2.493741827E0,-1.527118147E-4,-3.054236295E-4,5.344913807E-4
2.496167765E0,4.581354442E-4,-1.527118147E-3,-6.872031372E-4
2.498593702E0,-1.527118147E-4,-9.162708884E-4,5.344913807E-4
2.501019640E0,-7.635590737E-4,9.162708884E-4,1.145338640E-3
2.503445577E0,-1.374406274E-3,3.054236295E-4,-6.872031372E-4
2.505871515E0,1.679830020E-3,1.527118147E-3,-7.635590737E-5
2.508297452E0,1.679830020E-3,-3.054236295E-4,-1.298050396E-3
2.510723390E0,1.068982761E-3,1.527118147E-3,5.344913807E-4
2.513149327E0,1.068982761E-3,9.162708884E-4,5.344913807E-4
2.515575265E0,1.068982761E-3,3.054236295E-4,5.344913807E-4
2.518001202E0,-7.635590737E-5,9.162708884E-4,-1.298050396E-3
2.520427140E0,-1.298050396E-3,-9.162708884E-4,-6.872031372E-4
2.522853077E0,-6.872031372E-4,-3.054236295E-4,5.344913807E-4
2.525279015E0,-7.635590737E-5,-3.054236295E-4,-1.298050396E-3
2.527704952E0,1.145338640E-3,3.054236295E-4,5.344913807E-4
2.530130890E0,5.344913807E-4,-3.054236295E-4,-7.635590737E-5
2.532556827E0,5.344913807E-4,3.054236295E-4,-7.635590737E-5
2.534982765E0,-7.635590737E-5,3.054236295E-4,-1.298050396E-3
2.537408702E0,5.344913807E-4,-9.162708884E-4,-7.635590737E-5
2.539834640E0,-7.635590737E-5,9.162708884E-4,-7.635590737E-5
2.542260577E0,5.344913807E-4,9.162708884E-4,-7.635590737E-5
2.544686515E0,-6.872031372E-4,-3.054236295E-4,-7.635590737E-5
2.547112452E0,-7.635590737E-5,-9.162708884E-4,5.344913807E-4
2.549538390E0,-1.298050396E-3,-3.054236295E-4,1.145338640E-3
2.551964327E0,-7.635590737E-5,-3.054236295E-4,-1.298050396E-3
2.554390265E0,-7.635590737E-5,3.054236295E-4,5.344913807E-4
2.556816202E0,-1.298050396E-3,9.162708884E-4,1.145338640E-3
2.559242140E0,-1.908897655E-3,3.054236295E-4,5.344913807E-4
2.561668077E0,-7.635590737E-5,-1.527118147E-3,1.145338640E-3
2.564094015E0,-6.872031372E-4,-9.162708884E-4,-7.635590737E-5
2.566519952E0,5.344913807E-4,-9.162708884E-4,-6.872031372E-4
2.568945890E0,-7.635590737E-5,-3.054236295E-4,-2.519744914E-3
2.571371827E0,1.756185899E-3,-9.162708884E-4,-1.298050396E-3
2.573797765E0,5.344913807E-4,-9.162708884E-4,-1.908897655E-3
2.576223702E0,-6.872031372E-4,-1.527118147E-3,-6.872031372E-4
2.578649640E0,-7.635590737E-5,-3.054236295E-4,-7.635590737E-5
2.581075577E0,-7.635590737E-5,9.162708884E-4,-7.635590737E-5
2.583501515E0,5.344913807E-4,3.054236295E-4,-6.872031372E-4
2.585927452E0,-6.872031372E-4,-9.162708884E-4,-1.298050396E-3
2.588353390E0,1.756185899E-3,1.527118147E-3,-7.635590737E-5
2.590779327E0,1.145338640E-3,9.162708884E-4,1.145338640E-3
2.593205265E0,1.145338640E-3,-9.162708884E-4,1.145338640E-3
2.595631202E0,-7.635590737E-5,-3.054236295E-4,-1.298050396E-3
2.598057140E0,5.344913807E-4,-3.054236295E-4,-7.635590737E-5
2.600483077E0,-6.872031372E-4,-9.162708884E-4,-7.635590737E-5
2.602909015E0,-1.908897655E-3,-3.054236295E-4,-6.872031372E-4
2.605334952E0,-1.298050396E-3,9.162708884E-4,-1.298050396E-3
2.607760890E0,5.344913807E-4,3.054236295E-4,-6.872031372E-4
2.610186827E0,-7.635590737E-5,-9.162708884E-4,-7.635590737E-5
2.612612765E0,-7.635590737E-5,-3.054236295E-4,5.344913807E-4
2.615038702E0,-1.298050396E-3,3.054236295E-4,-1.908897655E-3
2.617464640E0,-6.872031372E-4,-3.054236295E-4,5.344913807E-4
2.619890577E0,5.344913807E-4,2.214321401E-3,1.145338640E-3
2.622316515E0,-6.872031372E-4,9.926267667E-4,-7.635590737E-5
2.624742452E0,5.344913807E-4,3.817795368E-4,-7.635590737E-5
2.627168390E0,1.145338640E-3,-8.399150101E-4,-6.872031372E-4
2.629594327E0,-7.635590737E-5,-2.061609412E-3,-7.635590737E-5
2.632020265E0,-6.872031372E-4,3.817795368E-4,5.344913807E-4
2.634446202E0,1.145338640E-3,3.817795368E-4,-7.635590737E-5
2.636872140E0,5.344913807E-4,3.817795368E-4,1.145338640E-3
2.639298077E0,5.344913807E-4,3.817795368E-4,5.344913807E-4
2.641724015E0,-7.635590737E-5,-8.399150101E-4,5.344913807E-4
2.644149952E0,-1.298050396E-3,-2.290677221E-4,5.344913807E-4
2.646575890E0,-6.872031372E-4,-8.399150101E-4,-6.872031372E-4
2.649001827E0,-1.298050396E-3,-2.290677221E-4,5.344913807E-4
2.651427765E0,5.344913807E-4,3.817795368E-4,-7.635590737E-5
2.653853702E0,1.145338640E-3,-2.290677221E-4,-6.872031372E-4
2.656279640E0,-1.908897655E-3,3.817795368E-4,-1.221694518E-3
2.658705577E0,-7.635590737E-5,-2.290677221E-4,6.108472589E-4
2.661131515E0,-7.635590737E-5,-2.290677221E-4,1.221694518E-3
2.663557452E0,-7.635590737E-5,3.817795368E-4,1.832541777E-3
2.665983390E0,-6.872031372E-4,-2.290677221E-4,-6.108472589E-4
2.668409327E0,-1.298050396E-3,3.817795368E-4,-6.108472589E-4
2.670835265E0,1.145338640E-3,-2.290677221E-4,1.221694518E-3
2.673261202E0,-6.872031372E-4,-1.450762269E-3,1.221694518E-3
2.675687140E0,-7.635590737E-5,-2.290677221E-4,-0.000000000E0
2.678113077E0,-6.872031372E-4,3.817795368E-4,-0.000000000E0
2.680539015E0,-1.908897655E-3,9.926267667E-4,-6.108472589E-4
2.682964952E0,-1.298050396E-3,9.926267667E-4,-6.108472589E-4
2.685390890E0,5.344913807E-4,9.926267667E-4,-6.108472589E-4
2.687816827E0,1.145338640E-3,9.926267667E-4,6.108472589E-4
2.690242765E0,-1.298050396E-3,-2.290677221E-4,-0.000000000E0
2.692668702E0,5.344913807E-4,-2.290677221E-4,6.108472589E-4
2.695094640E0,-6.872031372E-4,-2.290677221E-4,6.108472589E-4
2.697520577E0,-6.872031372E-4,-1.450762269E-3,6.108472589E-4
2.699946515E0,5.344913807E-4,-8.399150101E-4,-6.108472589E-4
2.702372452E0,1.145338640E-3,3.817795368E-4,-1.832541777E-3
2.704798390E0,1.756185899E-3,-2.290677221E-4,-1.832541777E-3
2.707224327E0,-7.635590737E-5,-2.290677221E-4,1.832541777E-3
2.709650265E0,-6.872031372E-4,-2.290677221E-4,1.221694518E-3
2.712076202E0,5.344913807E-4,-2.290677221E-4,6.108472589E-4
2.714502140E0,-7.635590737E-5,3.817795368E-4,-0.000000000E0
2.716928077E0,-6.872031372E-4,3.817795368E-4,6.108472589E-4
2.719354015E0,-7.635590737E-5,-1.450762269E-3,6.108472589E-4
2.721779952E0,5.344913807E-4,3.817795368E-4,-1.832541777E-3
2.724205890E0,-6.872031372E-4,1.603474026E-3,1.221694518E-3
2.726631827E0,-1.298050396E-3,-2.290677221E-4,6.108472589E-4
2.729057765E0,1.145338640E-3,9.926267667E-4,6.108472589E-4
2.731483702E0,5.344913807E-4,3.817795368E-4,-6.108472589E-4
2.733909640E0,-7.635590737E-5,-2.290677221E-4,1.832541777E-3
2.736335577E0,5.344913807E-4,-2.290677221E-4,1.221694518E-3
2.738761515E0,-7.635590737E-5,-8.399150101E-4,-0.000000000E0
2.741187452E0,5.344913807E-4,9.926267667E-4,-0.000000000E0
2.743613390E0,1.756185899E-3,9.926267667E-4,6.108472589E-4
2.746039327E0,1.756185899E-3,3.817795368E-4,6.108472589E-4
2.748465265E0,-6.872031372E-4,3.817795368E-4,1.221694518E-3
2.750891202E0,1.756185899E-3,3.817795368E-4,-0.000000000E0
2.753317140E0,1.145338640E-3,-8.399150101E-4,-2.443389036E-3
2.755743077E0,5.344913807E-4,-2.290677221E-4,-0.000000000E0
2.758168963E0,-7.635590737E-5,3.817795368E-4,1.832541777E-3
2.760594900E0,-6.872031372E-4,3.817795368E-4,6.108472589E-4
2.763020890E0,1.145338640E-3,-2.290677221E-4,6.108472589E-4
2.765446827E0,-6.872031372E-4,-2.290677221E-4,6.108472589E-4
2.767872713E0,5.344913807E-4,-2.290677221E-4,-0.000000000E0
2.770298702E0,-6.872031372E-4,9.926267667E-4,-0.000000000E0
2.772724640E0,5.344913807E-4,1.603474026E-3,-0.000000000E0
2.775150577E0,5.344913807E-4,3.817795368E-4,6.108472589E-4
2.777576463E0,-7.635590737E-5,-2.290677221E-4,1.832541777E-3
2.780002400E0,-7.635590737E-5,3.817795368E-4,1.221694518E-3
2.782428390E0,-6.872031372E-4,3.817795368E-4,-1.221694518E-3
2.784854275E0,-7.635590737E-5,-2.290677221E-4,-0.000000000E0
2.787280213E0,-1.298050396E-3,-1.450762269E-3,-0.000000000E0
2.789706150E0,-1.298050396E-3,9.926267667E-4,6.108472589E-4
2.792132140E0,-6.872031372E-4,-2.290677221E-4,-0.000000000E0
2.794558025E0,5.344913807E-4,-8.399150101E-4,-7.635590737E-5
2.796983963E0,5.344913807E-4,-2.290677221E-4,-6.872031372E-4
2.799409900E0,1.145338640E-3,-2.290677221E-4,-1.298050396E-3
2.801835838E0,1.145338640E-3,9.926267667E-4,-1.298050396E-3
2.804261775E0,5.344913807E-4,1.603474026E-3,-7.635590737E-5
2.806687713E0,-7.635590737E-5,3.817795368E-4,5.344913807E-4
2.809113650E0,-7.635590737E-5,-2.290677221E-4,-6.872031372E-4
2.811539588E0,-6.872031372E-4,-2.290677221E-4,5.344913807E-4
2.813965525E0,-1.298050396E-3,-8.399150101E-4,1.145338640E-3
2.816391463E0,-6.872031372E-4,2.214321401E-3,-7.635590737E-5
2.818817400E0,-7.635590737E-5,-2.290677221E-4,-6.872031372E-4
2.821243338E0,1.145338640E-3,9.926267667E-4,5.344913807E-4
2.823669275E0,5.344913807E-4,9.926267667E-4,-6.872031372E-4
2.826095213E0,1.756185899E-3,3.817795368E-4,-7.635590737E-5
2.828521150E0,1.145338640E-3,2.214321401E-3,5.344913807E-4
2.830947088E0,1.145338640E-3,9.926267667E-4,-7.635590737E-5
2.833373025E0,5.344913807E-4,9.926267667E-4,-1.298050396E-3
2.835798963E0,5.344913807E-4,3.817795368E-4,1.145338640E-3
2.838224900E0,-6.872031372E-4,3.817795368E-4,-7.635590737E-5
2.840650838E0,1.145338640E-3,3.817795368E-4,-6.872031372E-4
2.843076775E0,-6.872031372E-4,3.817795368E-4,-7.635590737E-5
2.845502713E0,5.344913807E-4,-8.399150101E-4,5.344913807E-4
2.847928650E0,-7.635590737E-5,-8.399150101E-4,-6.872031372E-4
2.850354588E0,1.145338640E-3,3.817795368E-4,-1.298050396E-3
2.852780525E0,5.344913807E-4,3.817795368E-4,-7.635590737E-5
2.855206463E0,5.344913807E-4,3.817795368E-4,5.344913807E-4
2.857632400E0,1.756185899E-3,-1.450762269E-3,-1.298050396E-3
2.860058338E0,-7.635590737E-5,-2.290677221E-4,-6.872031372E-4
2.862484275E0,-7.635590737E-5,3.817795368E-4,-7.635590737E-5
2.864910213E0,5.344913807E-4,-8.399150101E-4,-6.872031372E-4
2.867336150E0,1.145338640E-3,-8.399150101E-4,-7.635590737E-5
2.869762088E0,-6.872031372E-4,-2.290677221E-4,1.145338640E-3
2.872188025E0,-6.872031372E-4,-2.290677221E-4,-6.872031372E-4
2.874613963E0,-1.298050396E-3,9.926267667E-4,-1.298050396E-3
2.877039900E0,-7.635590737E-5,-2.290677221E-4,5.344913807E-4
2.879465838E0,-7.635590737E-5,-2.290677221E-4,-7.635590737E-5
2.881891775E0,2.367033157E-3,-1.450762269E-3,-6.872031372E-4
2.884317713E0,-6.872031372E-4,9.926267667E-4,-6.872031372E-4
2.886743650E0,5.344913807E-4,-8.399150101E-4,-1.298050396E-3
2.889169588E0,1.145338640E-3,3.817795368E-4,-1.908897655E-3
2.891595525E0,1.145338640E-3,-8.399150101E-4,-6.872031372E-4
2.894021463E0,5.344913807E-4,-3.054236295E-4,-7.635590737E-5
2.896447400E0,-7.635590737E-5,3.054236295E-4,-6.872031372E-4
2.898873338E0,1.145338640E-3,-1.527118147E-3,-7.635590737E-5
2.901299275E0,5.344913807E-4,3.054236295E-4,5.344913807E-4
2.903725213E0,5.344913807E-4,9.162708884E-4,-7.635590737E-5
2.906151150E0,5.344913807E-4,-1.527118147E-3,-6.872031372E-4
2.908577088E0,-1.298050396E-3,-3.054236295E-4,-7.635590737E-5
2.911003025E0,-6.872031372E-4,-9.162708884E-4,-6.872031372E-4
2.913428963E0,-6.872031372E-4,3.054236295E-4,-1.298050396E-3
2.915854900E0,-7.635590737E-5,-3.054236295E-4,-1.298050396E-3
2.918280838E0,-6.872031372E-4,9.162708884E-4,-6.872031372E-4
2.920706775E0,5.344913807E-4,-3.054236295E-4,-7.635590737E-5
2.923132713E0,4.581354442E-4,3.054236295E-4,-1.298050396E-3
2.925558650E0,-7.635590737E-4,-3.054236295E-4,-6.872031372E-4
2.927984588E0,-1.527118147E-4,-3.054236295E-4,-7.635590737E-5
2.930410525E0,1.068982761E-3,9.162708884E-4,-7.635590737E-5
2.932836463E0,1.068982761E-3,-3.054236295E-4,-7.635590737E-5
2.935262400E0,4.581354442E-4,3.054236295E-4,-6.872031372E-4
2.937688338E0,-7.635590737E-4,-9.162708884E-4,5.344913807E-4
2.940114275E0,-1.527118147E-4,9.162708884E-4,-6.872031372E-4
2.942540213E0,-1.374406274E-3,3.054236295E-4,5.344913807E-4
2.944966150E0,-1.527118147E-4,-3.054236295E-4,5.344913807E-4
2.947392088E0,2.290677279E-3,3.054236295E-4,-7.635590737E-5
2.949818025E0,-7.635590737E-4,9.162708884E-4,-7.635590737E-5
2.952243963E0,1.068982761E-3,9.162708884E-4,5.344913807E-4
2.954669900E0,-1.374406274E-3,3.054236295E-4,5.344913807E-4
2.957095838E0,4.581354442E-4,-3.054236295E-4,-6.872031372E-4
2.959521775E0,-7.635590737E-4,3.054236295E-4,5.344913807E-4
2.961947713E0,1.068982761E-3,-3.054236295E-4,-1.298050396E-3
2.964373650E0,4.581354442E-4,3.054236295E-4,-0.000000000E0
2.966799588E0,-1.374406274E-3,9.162708884E-4,-0.000000000E0
2.969225525E0,4.581354442E-4,1.527118147E-3,-6.108472589E-4
2.971651463E0,-1.527118147E-4,9.162708884E-4,6.108472589E-4
2.974077400E0,-1.527118147E-4,1.527118147E-3,-6.108472589E-4
2.976503338E0,4.581354442E-4,9.162708884E-4,-0.000000000E0
2.978929275E0,-1.527118147E-4,1.527118147E-3,6.108472589E-4
2.981355213E0,4.581354442E-4,-1.527118147E-3,-6.108472589E-4
2.983781150E0,-1.527118147E-4,-3.054236295E-4,-0.000000000E0
2.986207088E0,-1.527118147E-4,1.527118147E-3,-6.108472589E-4
2.988633025E0,4.581354442E-4,-3.054236295E-4,-0.000000000E0
2.991058963E0,4.581354442E-4,3.054236295E-4,1.832541777E-3
2.993484900E0,-7.635590737E-4,-3.054236295E-4,-6.108472589E-4
2.995910838E0,-1.374406274E-3,-3.054236295E-4,-6.108472589E-4
2.998336775E0,1.679830020E-3,-9.162708884E-4,-0.000000000E0
3.000762713E0,-7.635590737E-4,-3.054236295E-4,-0.000000000E0
3.003188650E0,-7.635590737E-4,3.054236295E-4,-0.000000000E0
3.005614588E0,-1.527118147E-4,3.054236295E-4,-6.108472589E-4
3.008040525E0,1.068982761E-3,-3.054236295E-4,-1.221694518E-3
3.010466463E0,-1.527118147E-4,-3.054236295E-4,-6.108472589E-4
3.012892400E0,1.068982761E-3,-3.054236295E-4,-6.108472589E-4
3.015318338E0,1.068982761E-3,3.054236295E-4,-6.108472589E-4
3.017744275E0,-1.527118147E-4,-9.162708884E-4,1.221694518E-3
3.020170213E0,-1.374406274E-3,-1.527118147E-3,6.108472589E-4
3.022596150E0,1.068982761E-3,-9.162708884E-4,0.000000000E0
3.025022088E0,4.581354442E-4,3.054236295E-4,-6.108472589E-4
3.027448025E0,4.581354442E-4,1.527118147E-3,-6.108472589E-4
3.029873963E0,1.679830020E-3,9.162708884E-4,1.221694518E-3
3.032299900E0,-7.635590737E-4,3.054236295E-4,0.000000000E0
3.034725838E0,-7.635590737E-4,-3.054236295E-4,-1.832541777E-3
3.037151775E0,-7.635590737E-4,-9.162708884E-4,-6.108472589E-4
3.039577661E0,-7.635590737E-4,3.054236295E-4,1.832541777E-3
3.042003650E0,-1.374406274E-3,-9.162708884E-4,0.000000000E0
3.044429588E0,-1.527118147E-4,-3.054236295E-4,1.221694518E-3
3.046855525E0,-1.527118147E-4,3.054236295E-4,0.000000000E0
3.049281463E0,4.581354442E-4,-3.054236295E-4,1.221694518E-3
3.051707348E0,-2.290677221E-4,-3.054236295E-4,0.000000000E0
3.054133286E0,-8.399150101E-4,3.054236295E-4,1.221694518E-3
3.056559223E0,-2.290677221E-4,3.054236295E-4,-1.832541777E-3
3.058985161E0,9.926267667E-4,9.162708884E-4,0.000000000E0
3.061411098E0,-8.399150101E-4,-3.054236295E-4,6.108472589E-4
3.063837088E0,-8.399150101E-4,-3.054236295E-4,-1.832541777E-3
3.066262973E0,-2.290677221E-4,3.054236295E-4,-1.145338640E-3
3.068688911E0,3.817795368E-4,-9.162708884E-4,-5.344913807E-4
3.071114848E0,-2.290677221E-4,-3.054236295E-4,7.635590737E-5
3.073540786E0,3.817795368E-4,9.162708884E-4,-5.344913807E-4
3.075966723E0,-2.290677221E-4,3.054236295E-4,-1.145338640E-3
3.078392661E0,-2.061609412E-3,-3.054236295E-4,-5.344913807E-4
3.080818598E0,3.817795368E-4,3.054236295E-4,7.635590737E-5
3.083244536E0,-8.399150101E-4,1.527118147E-3,1.298050396E-3
3.085670473E0,9.926267667E-4,3.054236295E-4,1.298050396E-3
3.088096411E0,3.817795368E-4,3.054236295E-4,-5.344913807E-4
3.090522348E0,3.817795368E-4,1.527118147E-3,-5.344913807E-4
3.092948286E0,-2.290677221E-4,3.054236295E-4,7.635590737E-5
3.095374223E0,-2.290677221E-4,9.162708884E-4,-5.344913807E-4
3.097800161E0,-8.399150101E-4,9.162708884E-4,7.635590737E-5
3.100226098E0,3.817795368E-4,9.162708884E-4,6.872031372E-4
3.102652036E0,9.926267667E-4,9.162708884E-4,6.872031372E-4
3.105077973E0,-2.290677221E-4,-3.054236295E-4,7.635590737E-5
3.107503911E0,-8.399150101E-4,-9.162708884E-4,1.298050396E-3
3.109929848E0,-2.290677221E-4,9.162708884E-4,1.908897655E-3
3.112355786E0,-8.399150101E-4,9.162708884E-4,6.872031372E-4
3.114781723E0,9.926267667E-4,-3.054236295E-4,6.872031372E-4
3.117207661E0,3.817795368E-4,1.527118147E-3,7.635590737E-5
3.119633598E0,9.926267667E-4,9.162708884E-4,7.635590737E-5
3.122059536E0,1.603474026E-3,2.137965523E-3,-5.344913807E-4
3.124485473E0,3.817795368E-4,-9.162708884E-4,6.872031372E-4
3.126911411E0,3.817795368E-4,-3.054236295E-4,7.635590737E-5
3.129337348E0,-2.290677221E-4,9.162708884E-4,7.635590737E-5
3.131763286E0,3.817795368E-4,9.162708884E-4,-5.344913807E-4
3.134189223E0,-2.290677221E-4,9.162708884E-4,7.635590737E-5
3.136615161E0,-2.290677221E-4,-1.527118147E-3,-5.344913807E-4
3.139041098E0,3.817795368E-4,-3.817795368E-4,1.298050396E-3
3.141467036E0,-1.450762269E-3,8.399150101E-4,6.872031372E-4
3.143892973E0,-8.399150101E-4,-1.603474026E-3,-1.145338640E-3
3.146318911E0,9.926267667E-4,2.290677221E-4,-5.344913807E-4
3.148744848E0,-2.290677221E-4,2.290677221E-4,-1.145338640E-3
3.151170786E0,-1.450762269E-3,-9.926267667E-4,7.635590737E-5
3.153596723E0,3.817795368E-4,-3.817795368E-4,-5.344913807E-4
3.156022661E0,-2.290677221E-4,-3.817795368E-4,7.635590737E-5
3.158448598E0,3.817795368E-4,-3.817795368E-4,-5.344913807E-4
3.160874536E0,2.214321401E-3,2.290677221E-4,7.635590737E-5
3.163300473E0,9.926267667E-4,-3.817795368E-4,7.635590737E-5
3.165726411E0,-1.450762269E-3,8.399150101E-4,-5.344913807E-4
3.168152348E0,-2.290677221E-4,1.450762269E-3,-1.145338640E-3
3.170578286E0,3.817795368E-4,2.290677221E-4,-1.145338640E-3
3.173004223E0,9.926267667E-4,-9.926267667E-4,-1.145338640E-3
3.175430161E0,-8.399150101E-4,2.290677221E-4,7.635590737E-5
3.177856098E0,-8.399150101E-4,8.399150101E-4,7.635590737E-5
3.180282036E0,-2.290677221E-4,2.290677221E-4,7.635590737E-5
3.182707973E0,-2.290677221E-4,2.290677221E-4,7.635590737E-5
3.185133911E0,-2.290677221E-4,-3.817795368E-4,7.635590737E-5
3.187559848E0,-8.399150101E-4,2.290677221E-4,-1.756185899E-3
3.189985786E0,9.926267667E-4,-1.603474026E-3,-5.344913807E-4
3.192411723E0,-2.290677221E-4,-3.817795368E-4,-2.367033157E-3
3.194837661E0,-2.290677221E-4,8.399150101E-4,-5.344913807E-4
3.197263598E0,9.926267667E-4,-3.817795368E-4,-5.344913807E-4
3.199689536E0,-8.399150101E-4,-9.926267667E-4,7.635590737E-5
3.202115473E0,3.817795368E-4,8.399150101E-4,7.635590737E-5
3.204541411E0,3.817795368E-4,-3.817795368E-4,-5.344913807E-4
3.206967348E0,-1.450762269E-3,1.450762269E-3,7.635590737E-5
3.209393286E0,-2.290677221E-4,8.399150101E-4,7.635590737E-5
3.211819223E0,-2.290677221E-4,8.399150101E-4,7.635590737E-5
3.214245161E0,-2.290677221E-4,8.399150101E-4,-5.344913807E-4
3.216671098E0,-2.290677221E-4,-3.817795368E-4,7.635590737E-5
3.219097036E0,-2.290677221E-4,2.290677221E-4,1.298050396E-3
3.221522973E0,9.926267667E-4,-3.817795368E-4,7.635590737E-5
3.223948911E0,1.603474026E-3,8.399150101E-4,7.635590737E-5
3.226374848E0,3.817795368E-4,2.290677221E-4,7.635590737E-5
3.228800786E0,-2.290677221E-4,8.399150101E-4,6.872031372E-4
3.231226723E0,3.817795368E-4,-3.817795368E-4,7.635590737E-5
3.233652661E0,-2.290677221E-4,8.399150101E-4,-5.344913807E-4
3.236078598E0,3.817795368E-4,-9.926267667E-4,-5.344913807E-4
3.238504536E0,9.926267667E-4,-9.926267667E-4,7.635590737E-5
3.240930473E0,3.817795368E-4,-9.926267667E-4,6.872031372E-4
3.243356411E0,-2.290677221E-4,2.290677221E-4,1.298050396E-3
3.245782348E0,3.817795368E-4,2.290677221E-4,-5.344913807E-4
3.248208286E0,-2.290677221E-4,2.290677221E-4,1.298050396E-3
3.250634223E0,3.817795368E-4,-2.825168660E-3,7.635590737E-5
3.253060161E0,3.817795368E-4,2.290677221E-4,7.635590737E-5
3.255486098E0,-2.290677221E-4,-9.926267667E-4,7.635590737E-5
3.257912036E0,-2.290677221E-4,-9.926267667E-4,6.872031372E-4
3.260337973E0,-2.290677221E-4,-4.581354442E-4,-5.344913807E-4
3.262763911E0,-2.290677221E-4,1.527118147E-4,7.635590737E-5
3.265189848E0,-2.290677221E-4,1.527118147E-4,-5.344913807E-4
3.267615786E0,3.817795368E-4,-4.581354442E-4,-1.068982761E-3
3.270041723E0,9.926267667E-4,-1.068982761E-3,7.635590737E-4
3.272467661E0,3.817795368E-4,1.374406274E-3,-4.581354442E-4
3.274893598E0,1.603474026E-3,1.527118147E-4,1.527118147E-4
3.277319536E0,-8.399150101E-4,-4.581354442E-4,1.527118147E-4
3.279745473E0,-8.399150101E-4,7.635590737E-4,1.527118147E-4
3.282171411E0,-2.290677221E-4,-4.581354442E-4,7.635590737E-4
3.284597348E0,3.817795368E-4,1.527118147E-4,1.527118147E-4
3.287023286E0,9.926267667E-4,-1.068982761E-3,-1.068982761E-3
3.289449223E0,-2.290677221E-4,-1.679830020E-3,1.527118147E-4
3.291875161E0,-1.450762269E-3,1.527118147E-4,1.527118147E-4
3.294301098E0,-1.450762269E-3,-4.581354442E-4,-1.068982761E-3
3.296727036E0,-2.290677221E-4,-4.581354442E-4,1.527118147E-4
3.299152921E0,-2.290677221E-4,-4.581354442E-4,1.527118147E-4
3.301578911E0,-2.290677221E-4,-1.068982761E-3,1.374406274E-3
3.304004848E0,-8.399150101E-4,-4.581354442E-4,1.374406274E-3
3.306430786E0,-8.399150101E-4,-4.581354442E-4,1.374406274E-3
3.308856671E0,-8.399150101E-4,1.527118147E-4,-4.581354442E-4
3.311282661E0,3.817795368E-4,-1.068982761E-3,-1.068982761E-3
3.313708598E0,-2.290677221E-4,-1.679830020E-3,1.527118147E-4
3.316134536E0,-2.061609412E-3,-1.679830020E-3,-4.581354442E-4
3.318560473E0,-2.290677221E-4,7.635590737E-4,-4.581354442E-4
3.320986411E0,9.926267667E-4,1.374406274E-3,-4.581354442E-4
3.323412296E0,2.214321401E-3,-4.581354442E-4,-4.581354442E-4
3.325838233E0,9.926267667E-4,-1.068982761E-3,1.527118147E-4
3.328264171E0,9.926267667E-4,-1.068982761E-3,-4.581354442E-4
3.330690108E0,3.817795368E-4,-4.581354442E-4,-4.581354442E-4
3.333116046E0,-2.290677221E-4,1.527118147E-4,7.635590737E-4
3.335541983E0,9.926267667E-4,1.527118147E-4,1.527118147E-4
3.337967921E0,-1.450762269E-3,1.527118147E-4,7.635590737E-4
3.340393858E0,-2.290677221E-4,1.527118147E-4,7.635590737E-4
3.342819796E0,3.817795368E-4,7.635590737E-4,-1.679830020E-3
3.345245733E0,-8.399150101E-4,-3.817795368E-4,-4.581354442E-4
3.347671671E0,-8.399150101E-4,-3.817795368E-4,-4.581354442E-4
3.350097608E0,3.817795368E-4,8.399150101E-4,1.527118147E-4
3.352523546E0,-8.399150101E-4,8.399150101E-4,7.635590737E-4
3.354949483E0,-1.450762269E-3,2.290677221E-4,1.527118147E-4
3.357375421E0,-8.399150101E-4,-3.817795368E-4,7.635590737E-4
3.359801358E0,3.817795368E-4,-3.817795368E-4,1.527118147E-4
3.362227296E0,-2.290677221E-4,-9.926267667E-4,1.374406274E-3
3.364653233E0,3.817795368E-4,2.290677221E-4,-1.068982761E-3
3.367079171E0,-8.399150101E-4,8.399150101E-4,1.527118147E-4
3.369505108E0,-8.399150101E-4,2.290677221E-4,7.635590737E-4
3.371931046E0,9.926267667E-4,-3.817795368E-4,-4.581354442E-4
3.374356983E0,-2.290677221E-4,2.290677221E-4,-1.068982761E-3
3.376782921E0,-2.290677221E-4,-9.926267667E-4,7.635590737E-4
3.379208858E0,-8.399150101E-4,8.399150101E-4,1.527118147E-4
3.381634796E0,3.817795368E-4,2.290677221E-4,-1.068982761E-3
3.384060733E0,1.603474026E-3,8.399150101E-4,7.635590737E-4
3.386486671E0,3.817795368E-4,-3.817795368E-4,-4.581354442E-4
3.388912608E0,-1.450762269E-3,-9.926267667E-4,-4.581354442E-4
3.391338546E0,-8.399150101E-4,-3.817795368E-4,-1.679830020E-3
3.393764483E0,3.817795368E-4,-3.817795368E-4,1.527118147E-4
3.396190421E0,3.817795368E-4,-9.926267667E-4,-4.581354442E-4
3.398616358E0,-8.399150101E-4,-3.817795368E-4,1.527118147E-4
3.401042296E0,-1.450762269E-3,2.672456671E-3,1.527118147E-4
3.403468233E0,-2.290677221E-4,-3.817795368E-4,-4.581354442E-4
3.405894171E0,3.817795368E-4,-3.817795368E-4,-1.068982761E-3
3.408320108E0,-8.399150101E-4,-3.817795368E-4,1.527118147E-4
3.410746046E0,-2.290677221E-4,2.290677221E-4,1.374406274E-3
3.413171983E0,3.817795368E-4,2.290677221E-4,-4.581354442E-4
3.415597921E0,-2.290677221E-4,2.290677221E-4,1.374406274E-3
3.418023858E0,-2.290677221E-4,8.399150101E-4,-1.068982761E-3
3.420449796E0,9.926267667E-4,2.290677221E-4,1.527118147E-4
3.422875733E0,9.926267667E-4,-3.817795368E-4,1.985253533E-3
3.425301671E0,-1.450762269E-3,1.450762269E-3,-4.581354442E-4
3.427727608E0,-2.290677221E-4,2.290677221E-4,1.527118147E-4
3.430153546E0,-2.290677221E-4,2.290677221E-4,-1.679830020E-3
3.432579483E0,3.817795368E-4,8.399150101E-4,7.635590737E-4
3.435005421E0,-1.450762269E-3,2.290677221E-4,1.527118147E-4
3.437431358E0,-2.290677221E-4,2.290677221E-4,1.527118147E-4
3.439857296E0,-8.399150101E-4,2.672456671E-3,1.527118147E-4
3.442283233E0,-8.399150101E-4,1.450762269E-3,1.374406274E-3
3.444709171E0,-8.399150101E-4,2.290677221E-4,1.527118147E-4
3.447135108E0,-8.399150101E-4,8.399150101E-4,-1.068982761E-3
3.449561046E0,3.817795368E-4,-9.926267667E-4,7.635590737E-4
3.451986983E0,-2.290677221E-4,-3.817795368E-4,-4.581354442E-4
3.454412921E0,3.817795368E-4,-1.603474026E-3,1.374406274E-3
3.456838858E0,-2.290677221E-4,-9.926267667E-4,1.527118147E-4
3.459264796E0,-8.399150101E-4,1.450762269E-3,1.374406274E-3
3.461690733E0,3.817795368E-4,2.290677221E-4,1.374406274E-3
3.464116671E0,3.817795368E-4,-3.817795368E-4,7.635590737E-4
3.466542608E0,3.817795368E-4,2.290677221E-4,-1.068982761E-3
3.468968546E0,-2.290677221E-4,2.290677221E-4,1.527118147E-4
3.471394483E0,-8.399150101E-4,8.399150101E-4,-4.581354442E-4
3.473820421E0,3.817795368E-4,-3.817795368E-4,-1.068982761E-3
3.476246358E0,-2.290677221E-4,-9.926267667E-4,1.527118147E-4
3.478672296E0,-2.290677221E-4,-3.817795368E-4,-1.679830020E-3
3.481098233E0,-8.399150101E-4,-3.817795368E-4,-4.581354442E-4
3.483524171E0,-7.635590737E-4,8.399150101E-4,-4.581354442E-4
3.485950108E0,-7.635590737E-4,8.399150101E-4,-4.581354442E-4
3.488376046E0,-1.527118147E-4,-3.817795368E-4,-4.581354442E-4
3.490801983E0,-7.635590737E-4,2.290677221E-4,-1.068982761E-3
3.493227921E0,-1.527118147E-4,-3.817795368E-4,-4.581354442E-4
3.495653858E0,-7.635590737E-4,-3.817795368E-4,1.527118147E-4
3.498079796E0,1.068982761E-3,1.450762269E-3,1.527118147E-4
3.500505733E0,4.581354442E-4,8.399150101E-4,1.527118147E-4
3.502931671E0,-1.527118147E-4,8.399150101E-4,7.635590737E-4
3.505357608E0,4.581354442E-4,2.290677221E-4,-4.581354442E-4
3.507783546E0,-7.635590737E-4,-3.817795368E-4,7.635590737E-4
3.510209483E0,-7.635590737E-4,-9.926267667E-4,1.527118147E-4
3.512635421E0,-7.635590737E-4,-3.817795368E-4,1.527118147E-4
3.515061358E0,-7.635590737E-4,-3.817795368E-4,1.527118147E-4
3.517487296E0,1.068982761E-3,8.399150101E-4,7.635590737E-4
3.519913233E0,4.581354442E-4,-3.817795368E-4,1.527118147E-4
3.522339171E0,1.068982761E-3,1.450762269E-3,-4.581354442E-4
3.524765108E0,-1.527118147E-4,8.399150101E-4,1.527118147E-4
3.527191046E0,-7.635590737E-4,2.290677221E-4,-1.068982761E-3
3.529616983E0,-1.527118147E-4,8.399150101E-4,-1.068982761E-3
3.532042921E0,4.581354442E-4,-9.926267667E-4,-4.581354442E-4
3.534468858E0,-7.635590737E-4,-9.926267667E-4,7.635590737E-4
3.536894796E0,4.581354442E-4,2.290677221E-4,-1.068982761E-3
3.539320733E0,-1.527118147E-4,8.399150101E-4,-1.068982761E-3
3.541746671E0,-1.527118147E-4,1.450762269E-3,1.527118147E-4
3.544172556E0,-1.527118147E-4,1.450762269E-3,1.527118147E-4
3.546598546E0,-1.527118147E-4,2.290677221E-4,-4.581354442E-4
3.549024483E0,4.581354442E-4,-3.817795368E-4,-4.581354442E-4
3.551450421E0,-7.635590737E-4,-3.817795368E-4,-1.068982761E-3
3.553876358E0,1.679830020E-3,-3.817795368E-4,-1.068982761E-3
3.556302296E0,1.679830020E-3,-3.817795368E-4,1.527118147E-4
3.558728233E0,-7.635590737E-4,-3.817795368E-4,1.527118147E-4
3.561154171E0,4.581354442E-4,-3.817795368E-4,-4.581354442E-4
3.563580056E0,4.581354442E-4,-9.926267667E-4,1.527118147E-4
3.566006046E0,-1.985253533E-3,-9.926267667E-4,-4.581354442E-4
3.568431983E0,-7.635590737E-4,-3.817795368E-4,-4.581354442E-4
3.570857869E0,-7.635590737E-4,-9.926267667E-4,7.635590737E-4
3.573283858E0,-1.527118147E-4,8.399150101E-4,7.635590737E-4
3.575709744E0,1.068982761E-3,8.399150101E-4,1.527118147E-4
3.578135681E0,1.068982761E-3,1.450762269E-3,-4.581354442E-4
3.580561619E0,-1.527118147E-4,8.399150101E-4,1.527118147E-4
3.582987556E0,-7.635590737E-4,-9.926267667E-4,1.527118147E-4
3.585413494E0,2.290677279E-3,-3.817795368E-4,-4.581354442E-4
3.587839431E0,-1.527118147E-4,-3.817795368E-4,1.374406274E-3
3.590265369E0,-1.527118147E-4,-9.926267667E-4,1.527118147E-4
3.592691306E0,-1.527118147E-4,-3.817795368E-4,-1.068982761E-3
3.595117244E0,4.581354442E-4,-3.817795368E-4,1.527118147E-4
3.597543181E0,1.068982761E-3,-3.817795368E-4,1.527118147E-4
3.599969119E0,-7.635590737E-4,-3.817795368E-4,1.527118147E-4
3.602395056E0,-7.635590737E-4,1.450762269E-3,-4.581354442E-4
3.604820994E0,-1.374406274E-3,8.399150101E-4,1.527118147E-4
3.607246931E0,-7.635590737E-4,-9.926267667E-4,-1.068982761E-3
3.609672869E0,-1.527118147E-4,8.399150101E-4,-4.581354442E-4
3.612098806E0,1.068982761E-3,8.399150101E-4,-4.581354442E-4
3.614524744E0,1.068982761E-3,-1.603474026E-3,1.527118147E-4
3.616950681E0,-1.527118147E-4,-2.214321401E-3,7.635590737E-4
3.619376619E0,-1.527118147E-4,2.290677221E-4,7.635590737E-4
3.621802556E0,1.068982761E-3,2.290677221E-4,1.527118147E-4
3.624228494E0,4.581354442E-4,2.290677221E-4,7.635590737E-4
3.626654431E0,1.145338640E-3,-9.926267667E-4,1.374406274E-3
3.629080369E0,1.145338640E-3,-9.926267667E-4,-4.581354442E-4
3.631506306E0,-6.872031372E-4,8.399150101E-4,7.635590737E-4
3.633932244E0,-7.635590737E-5,8.399150101E-4,7.635590737E-4
3.636358181E0,5.344913807E-4,-3.817795368E-4,7.635590737E-4
3.638784119E0,-6.872031372E-4,-9.926267667E-4,1.527118147E-4
3.641210056E0,-7.635590737E-5,2.290677221E-4,1.527118147E-4
3.643635994E0,-6.872031372E-4,8.399150101E-4,1.527118147E-4
3.646061931E0,5.344913807E-4,-9.926267667E-4,7.635590737E-4
3.648487869E0,-6.872031372E-4,-3.817795368E-4,1.527118147E-4
3.650913806E0,-7.635590737E-5,-9.926267667E-4,-4.581354442E-4
3.653339744E0,5.344913807E-4,-3.817795368E-4,-4.581354442E-4
3.655765681E0,5.344913807E-4,2.290677221E-4,-4.581354442E-4
3.658191619E0,-6.872031372E-4,-9.926267667E-4,1.527118147E-4
3.660617556E0,1.145338640E-3,-3.817795368E-4,7.635590737E-4
3.663043494E0,-7.635590737E-5,2.290677221E-4,-4.581354442E-4
3.665469431E0,5.344913807E-4,-3.817795368E-4,-4.581354442E-4
3.667895369E0,-7.635590737E-5,-3.817795368E-4,-1.068982761E-3
3.670321306E0,5.344913807E-4,2.290677221E-4,1.527118147E-4
3.672747244E0,5.344913807E-4,2.290677221E-4,1.527118147E-4
3.675173181E0,1.145338640E-3,-2.214321401E-3,1.374406274E-3
3.677599119E0,-7.635590737E-5,-3.817795368E-4,1.527118147E-4
3.680025056E0,5.344913807E-4,-3.817795368E-4,-1.068982761E-3
3.682450994E0,5.344913807E-4,1.450762269E-3,1.527118147E-4
3.684876931E0,2.367033157E-3,8.399150101E-4,1.527118147E-4
3.687302869E0,-1.298050396E-3,8.399150101E-4,-4.581354442E-4
3.689728806E0,-7.635590737E-5,-9.926267667E-4,-4.581354442E-4
3.692154744E0,-1.527118147E-4,8.399150101E-4,1.527118147E-4
3.694580681E0,-7.635590737E-4,8.399150101E-4,-4.581354442E-4
3.697006619E0,1.068982761E-3,2.290677221E-4,1.527118147E-4
3.699432556E0,1.068982761E-3,-3.817795368E-4,1.527118147E-4
3.701858494E0,4.581354442E-4,-9.926267667E-4,1.527118147E-4
3.704284431E0,-1.527118147E-4,8.399150101E-4,-1.068982761E-3
3.706710369E0,4.581354442E-4,2.290677221E-4,1.527118147E-4
3.709136306E0,4.581354442E-4,-3.817795368E-4,1.527118147E-4
3.711562244E0,1.068982761E-3,-3.817795368E-4,1.527118147E-4
3.713988181E0,4.581354442E-4,2.290677221E-4,1.527118147E-4
3.716414119E0,4.581354442E-4,8.399150101E-4,-4.581354442E-4
3.718840056E0,-1.527118147E-4,-3.817795368E-4,1.527118147E-4
3.721265994E0,-1.527118147E-4,8.399150101E-4,1.527118147E-4
3.723691931E0,4.581354442E-4,-3.817795368E-4,7.635590737E-4
3.726117869E0,-1.527118147E-4,8.399150101E-4,7.635590737E-4
3.728543806E0,-1.527118147E-4,-9.926267667E-4,-4.581354442E-4
3.730969744E0,-1.527118147E-4,2.290677221E-4,-1.068982761E-3
3.733395681E0,-1.985253533E-3,8.399150101E-4,-4.581354442E-4
3.735821619E0,-1.527118147E-4,-3.817795368E-4,1.527118147E-4
3.738247556E0,1.068982761E-3,2.290677221E-4,-4.581354442E-4
3.740673494E0,1.068982761E-3,2.290677221E-4,1.374406274E-3
3.743099431E0,1.068982761E-3,8.399150101E-4,1.527118147E-4
3.745525369E0,-7.635590737E-4,-3.817795368E-4,1.527118147E-4
3.747951306E0,4.581354442E-4,8.399150101E-4,-4.581354442E-4
3.750377244E0,4.581354442E-4,2.290677221E-4,1.374406274E-3
3.752803181E0,-1.985253533E-3,1.450762269E-3,1.527118147E-4
3.755229119E0,-1.527118147E-4,-1.603474026E-3,1.374406274E-3
3.757655056E0,-7.635590737E-4,-9.926267667E-4,1.374406274E-3
3.760080994E0,-1.527118147E-4,-3.817795368E-4,1.527118147E-4
3.762506931E0,4.581354442E-4,-9.926267667E-4,-4.581354442E-4
3.764932869E0,-7.635590737E-4,8.399150101E-4,1.527118147E-4
3.767358806E0,-1.374406274E-3,8.399150101E-4,-1.068982761E-3
3.769784744E0,-1.527118147E-4,8.399150101E-4,-1.068982761E-3
3.772210681E0,4.581354442E-4,2.290677221E-4,-4.581354442E-4
3.774636619E0,4.581354442E-4,8.399150101E-4,7.635590737E-4
3.777062556E0,1.068982761E-3,-9.926267667E-4,1.527118147E-4
3.779488494E0,4.581354442E-4,2.290677221E-4,-4.581354442E-4
3.781914431E0,4.581354442E-4,8.399150101E-4,-4.581354442E-4
3.784340369E0,-1.527118147E-4,8.399150101E-4,1.374406274E-3
3.786766306E0,4.581354442E-4,-3.817795368E-4,1.527118147E-4
3.789192244E0,4.581354442E-4,-3.817795368E-4,-1.068982761E-3
3.791618129E0,-1.527118147E-4,-9.926267667E-4,7.635590737E-4
3.794044119E0,4.581354442E-4,-9.926267667E-4,1.527118147E-4
3.796470056E0,-7.635590737E-4,-3.817795368E-4,-1.679830020E-3
3.798895942E0,-1.527118147E-4,-3.817795368E-4,-1.068982761E-3
3.801321879E0,-1.527118147E-4,-3.817795368E-4,1.527118147E-4
3.803747817E0,-7.635590737E-4,8.399150101E-4,-4.581354442E-4
3.806173806E0,-1.527118147E-4,2.290677221E-4,1.527118147E-4
3.808599744E0,-1.527118147E-4,8.399150101E-4,7.635590737E-4
3.811025629E0,4.581354442E-4,2.290677221E-4,7.635590737E-4
3.813451619E0,-7.635590737E-4,-3.817795368E-4,1.527118147E-4
3.815877556E0,4.581354442E-4,-3.817795368E-4,-4.581354442E-4
3.818303442E0,-1.527118147E-4,8.399150101E-4,1.527118147E-4
3.820729379E0,1.068982761E-3,-3.817795368E-4,1.374406274E-3
3.823155317E0,-7.635590737E-4,2.290677221E-4,-1.068982761E-3
3.825581254E0,-7.635590737E-4,-3.817795368E-4,1.527118147E-4
3.828007192E0,-1.527118147E-4,2.290677221E-4,-4.581354442E-4
3.830433129E0,1.679830020E-3,2.290677221E-4,-4.581354442E-4
3.832859067E0,1.068982761E-3,8.399150101E-4,1.527118147E-4
3.835285004E0,-1.527118147E-4,2.290677221E-4,1.527118147E-4
3.837710942E0,-7.635590737E-4,-9.926267667E-4,7.635590737E-4
3.840136879E0,-1.985253533E-3,8.399150101E-4,7.635590737E-4
3.842562817E0,1.068982761E-3,-1.603474026E-3,1.527118147E-4
3.844988754E0,-1.527118147E-4,2.290677221E-4,1.527118147E-4
3.847414692E0,4.581354442E-4,2.290677221E-4,1.527118147E-4
3.849840629E0,-7.635590737E-4,2.290677221E-4,1.527118147E-4
3.852266567E0,-1.374406274E-3,2.290677221E-4,1.374406274E-3
3.854692504E0,1.068982761E-3,-9.926267667E-4,1.527118147E-4
3.857118442E0,-7.635590737E-4,-1.603474026E-3,7.635590737E-4
3.859544379E0,-7.635590737E-4,-3.817795368E-4,1.527118147E-4
3.861970317E0,-1.527118147E-4,-1.603474026E-3,-4.581354442E-4
3.864396254E0,-7.635590737E-4,2.290677221E-4,-4.581354442E-4
3.866822192E0,4.581354442E-4,2.290677221E-4,-4.581354442E-4
3.869248129E0,-7.635590737E-4,2.290677221E-4,-4.581354442E-4
3.871674067E0,-1.527118147E-4,2.290677221E-4,1.527118147E-4
3.874100004E0,-1.527118147E-4,2.290677221E-4,7.635590737E-4
3.876525942E0,-7.635590737E-4,-3.817795368E-4,7.635590737E-4
3.878951879E0,-7.635590737E-4,-3.817795368E-4,1.527118147E-4
3.881377817E0,-7.635590737E-4,2.290677221E-4,-1.068982761E-3
3.883803754E0,4.581354442E-4,-3.817795368E-4,-1.068982761E-3
3.886229692E0,4.581354442E-4,-9.926267667E-4,1.527118147E-4
3.888655629E0,1.068982761E-3,-9.926267667E-4,7.635590737E-4
3.891081567E0,2.290677279E-3,-9.926267667E-4,7.635590737E-4
3.893507504E0,-1.527118147E-4,-3.817795368E-4,1.527118147E-4
3.895933442E0,4.581354442E-4,2.290677221E-4,-4.581354442E-4
3.898359379E0,-1.527118147E-4,2.290677221E-4,-4.581354442E-4
3.900785317E0,1.068982761E-3,2.290677221E-4,1.527118147E-4
3.903211254E0,-1.527118147E-4,2.290677221E-4,-1.679830020E-3
3.905637192E0,1.068982761E-3,-3.817795368E-4,-4.581354442E-4
3.908063129E0,-7.635590737E-4,2.290677221E-4,1.374406274E-3
3.910489067E0,-1.985253533E-3,8.399150101E-4,-1.068982761E-3
3.912915004E0,-1.374406274E-3,-3.817795368E-4,-4.581354442E-4
3.915340942E0,-7.635590737E-4,2.290677221E-4,1.527118147E-4
3.917766879E0,-1.985253533E-3,-3.817795368E-4,-4.581354442E-4
3.920192817E0,-7.635590737E-4,-3.817795368E-4,-1.068982761E-3
3.922618754E0,4.581354442E-4,8.399150101E-4,-4.581354442E-4
3.925044692E0,1.068982761E-3,-9.926267667E-4,-1.068982761E-3
3.927470629E0,4.581354442E-4,-9.926267667E-4,1.527118147E-4
3.929896567E0,-1.527118147E-4,-3.817795368E-4,7.635590737E-4
3.932322504E0,4.581354442E-4,-3.817795368E-4,1.374406274E-3
3.934748442E0,1.068982761E-3,8.399150101E-4,1.985253533E-3
3.937174379E0,-1.527118147E-4,1.450762269E-3,-1.679830020E-3
3.939600317E0,-7.635590737E-4,2.290677221E-4,-1.068982761E-3
3.942026254E0,-1.527118147E-4,-3.817795368E-4,1.527118147E-4
3.944452192E0,1.068982761E-3,2.290677221E-4,1.527118147E-4
3.946878129E0,1.068982761E-3,-3.817795368E-4,-4.581354442E-4
3.949304067E0,-7.635590737E-4,2.290677221E-4,-4.581354442E-4
3.951730004E0,-7.635590737E-4,-9.926267667E-4,-4.581354442E-4
3.954155942E0,4.581354442E-4,8.399150101E-4,1.527118147E-4
3.956581879E0,-1.985253533E-3,2.290677221E-4,1.374406274E-3
3.959007817E0,4.581354442E-4,1.450762269E-3,7.635590737E-4
3.961433754E0,-7.635590737E-4,1.450762269E-3,1.527118147E-4
3.963859692E0,4.581354442E-4,-3.817795368E-4,-1.679830020E-3
3.966285629E0,1.679830020E-3,2.290677221E-4,-4.581354442E-4
3.968711567E0,4.581354442E-4,2.290677221E-4,-2.290677279E-3
3.971137504E0,-1.374406274E-3,8.399150101E-4,-4.581354442E-4
3.973563442E0,1.068982761E-3,-3.817795368E-4,1.374406274E-3
3.975989379E0,-1.527118147E-4,2.290677221E-4,1.374406274E-3
3.978415317E0,-1.527118147E-4,2.290677221E-4,1.527118147E-4
3.980841254E0,4.581354442E-4,-3.817795368E-4,1.527118147E-4
3.983267192E0,-1.527118147E-4,-3.817795368E-4,-4.581354442E-4
3.985693129E0,4.581354442E-4,2.290677221E-4,1.527118147E-4
3.988119067E0,2.290677279E-3,8.399150101E-4,-4.581354442E-4
3.990545004E0,-7.635590737E-4,-9.926267667E-4,7.635590737E-4
3.992970942E0,1.068982761E-3,2.290677221E-4,-1.679830020E-3
3.995396879E0,4.581354442E-4,-9.926267667E-4,1.374406274E-3
3.997822817E0,-7.635590737E-4,-9.926267667E-4,7.635590737E-4
4.000248754E0,-1.527118147E-4,-1.603474026E-3,-1.068982761E-3
4.002674692E0,-7.635590737E-4,2.290677221E-4,-1.068982761E-3
4.005100629E0,-7.635590737E-4,-3.817795368E-4,-4.581354442E-4
4.007526567E0,1.068982761E-3,-3.817795368E-4,7.635590737E-4
4.009952452E0,1.068982761E-3,-3.817795368E-4,7.635590737E-4
4.012378442E0,-1.527118147E-4,2.290677221E-4,1.527118147E-4
4.014804327E0,-1.374406274E-3,-9.926267667E-4,-1.068982761E-3
4.017230317E0,4.581354442E-4,8.399150101E-4,-4.581354442E-4
4.019656202E0,1.068982761E-3,-3.817795368E-4,7.635590737E-4
4.022082140E0,-7.635590737E-4,-3.817795368E-4,-4.581354442E-4
4.024508129E0,-1.527118147E-4,-3.817795368E-4,1.527118147E-4
4.026934067E0,4.581354442E-4,2.290677221E-4,1.527118147E-4
4.029359952E0,-1.527118147E-4,-3.817795368E-4,1.527118147E-4
4.031785890E0,4.581354442E-4,-1.603474026E-3,7.635590737E-4
4.034211827E0,4.581354442E-4,8.399150101E-4,-1.068982761E-3
4.036637765E0,1.068982761E-3,-9.926267667E-4,1.527118147E-4
4.039063702E0,-1.527118147E-4,-9.926267667E-4,1.985253533E-3
4.041489640E0,4.581354442E-4,-3.817795368E-4,1.374406274E-3
4.043915577E0,-1.527118147E-4,2.290677221E-4,1.374406274E-3
4.046341515E0,-1.527118147E-4,2.290677221E-4,1.527118147E-4
4.048767452E0,-1.527118147E-4,-9.926267667E-4,-4.581354442E-4
4.051193390E0,-1.527118147E-4,-3.817795368E-4,1.527118147E-4
4.053619327E0,1.068982761E-3,2.290677221E-4,-4.581354442E-4
4.056045265E0,-7.635590737E-4,8.399150101E-4,-2.290677279E-3
4.058471202E0,-1.527118147E-4,-1.603474026E-3,-1.068982761E-3
4.060897140E0,-7.635590737E-4,2.290677221E-4,7.635590737E-4
4.063323077E0,-7.635590737E-4,-3.817795368E-4,1.374406274E-3
4.065749015E0,4.581354442E-4,3.054236295E-4,1.527118147E-4
4.068174952E0,-1.374406274E-3,-9.162708884E-4,1.527118147E-4
4.070600890E0,-1.527118147E-4,-3.054236295E-4,7.635590737E-4
4.073026827E0,-1.527118147E-4,3.054236295E-4,-4.581354442E-4
4.075452765E0,-1.527118147E-4,1.527118147E-3,1.527118147E-4
4.077878702E0,4.581354442E-4,3.054236295E-4,-1.068982761E-3
4.080304640E0,-1.527118147E-4,-9.162708884E-4,1.527118147E-4
4.082730577E0,1.068982761E-3,-3.054236295E-4,-4.581354442E-4
4.085156515E0,-1.527118147E-4,-1.527118147E-3,-1.068982761E-3
4.087582452E0,-1.527118147E-4,3.054236295E-4,1.527118147E-4
4.090008390E0,-1.527118147E-4,-9.162708884E-4,-4.581354442E-4
4.092434327E0,-1.374406274E-3,9.162708884E-4,1.527118147E-4
4.094860265E0,-7.635590737E-4,3.054236295E-4,-1.068982761E-3
4.097286202E0,-7.635590737E-4,-3.054236295E-4,-4.581354442E-4
4.099712140E0,4.581354442E-4,-3.054236295E-4,-1.068982761E-3
4.102138077E0,4.581354442E-4,-3.054236295E-4,1.527118147E-4
4.104564015E0,-7.635590737E-4,9.162708884E-4,1.527118147E-4
4.106989952E0,-1.527118147E-4,-3.054236295E-4,1.527118147E-4
4.109415890E0,-1.527118147E-4,3.054236295E-4,1.527118147E-4
4.111841827E0,4.581354442E-4,9.162708884E-4,7.635590737E-4
4.114267765E0,4.581354442E-4,-9.162708884E-4,-4.581354442E-4
4.116693702E0,4.581354442E-4,-3.054236295E-4,-4.581354442E-4
4.119119640E0,1.068982761E-3,9.162708884E-4,1.527118147E-4
4.121545577E0,1.068982761E-3,3.054236295E-4,7.635590737E-4
4.123971515E0,-1.527118147E-4,-3.054236295E-4,1.527118147E-4
4.126397452E0,4.581354442E-4,-3.054236295E-4,-1.068982761E-3
4.128823390E0,-1.527118147E-4,3.054236295E-4,1.527118147E-4
4.131249327E0,-1.527118147E-4,-9.162708884E-4,7.635590737E-4
4.133675265E0,-7.635590737E-4,-3.054236295E-4,1.527118147E-4
4.136101202E0,1.068982761E-3,-9.162708884E-4,1.527118147E-4
4.138527140E0,4.581354442E-4,3.054236295E-4,1.527118147E-4
4.140953077E0,-1.527118147E-4,-3.054236295E-4,1.374406274E-3
4.143379015E0,-1.527118147E-4,-9.162708884E-4,-4.581354442E-4
4.145804952E0,-7.635590737E-4,3.054236295E-4,1.527118147E-4
4.148230890E0,-1.527118147E-4,3.054236295E-4,7.635590737E-4
4.150656827E0,4.581354442E-4,-9.162708884E-4,1.527118147E-4
4.153082765E0,-1.527118147E-4,-9.162708884E-4,7.635590737E-4
4.155508702E0,-1.374406274E-3,-3.054236295E-4,-1.679830020E-3
4.157934640E0,-1.374406274E-3,3.054236295E-4,7.635590737E-4
4.160360577E0,-7.635590737E-4,9.162708884E-4,-4.581354442E-4
4.162786515E0,1.068982761E-3,-3.054236295E-4,7.635590737E-4
4.165212452E0,-1.527118147E-4,-3.054236295E-4,-4.581354442E-4
4.167638390E0,-7.635590737E-4,-9.162708884E-4,7.635590737E-4
4.170064327E0,-1.527118147E-4,-1.527118147E-3,-4.581354442E-4
4.172490265E0,-7.635590737E-4,-3.054236295E-4,-4.581354442E-4
4.174916202E0,4.581354442E-4,9.162708884E-4,1.527118147E-4
4.177342140E0,4.581354442E-4,-3.054236295E-4,1.374406274E-3
4.179768077E0,-7.635590737E-4,-9.162708884E-4,1.527118147E-4
4.182194015E0,1.068982761E-3,3.054236295E-4,-1.068982761E-3
4.184619952E0,-7.635590737E-4,2.137965523E-3,7.635590737E-4
4.187045890E0,-1.527118147E-4,3.054236295E-4,-4.581354442E-4
4.189471827E0,4.581354442E-4,9.162708884E-4,7.635590737E-4
4.191897765E0,4.581354442E-4,3.054236295E-4,-4.581354442E-4
4.194323702E0,-1.527118147E-4,-9.162708884E-4,1.374406274E-3
4.196749640E0,1.068982761E-3,-3.054236295E-4,-1.068982761E-3
4.199175577E0,4.581354442E-4,-3.054236295E-4,7.635590737E-4
4.201601515E0,1.068982761E-3,9.162708884E-4,-4.581354442E-4
4.204027452E0,-1.527118147E-4,9.162708884E-4,-4.581354442E-4
4.206453390E0,-1.527118147E-4,9.162708884E-4,7.635590737E-4
4.208879327E0,2.290677279E-3,-3.054236295E-4,-1.068982761E-3
4.211305265E0,-7.635590737E-4,-3.054236295E-4,-4.581354442E-4
4.213731202E0,-7.635590737E-4,-9.162708884E-4,1.374406274E-3
4.216157088E0,4.581354442E-4,-1.527118147E-3,1.374406274E-3
4.218583025E0,4.581354442E-4,-9.162708884E-4,-4.581354442E-4
4.221008963E0,-7.635590737E-4,-1.527118147E-3,7.635590737E-4
4.223434900E0,-1.527118147E-4,3.054236295E-4,2.596100792E-3
4.225860838E0,-1.527118147E-4,-9.162708884E-4,7.635590737E-4
4.228286827E0,4.581354442E-4,-8.399150101E-4,1.527118147E-4
4.230712713E0,1.068982761E-3,9.926267667E-4,1.374406274E-3
4.233138650E0,-1.527118147E-4,9.926267667E-4,7.635590737E-4
4.235564640E0,-7.635590737E-4,-2.290677221E-4,-4.581354442E-4
4.237990525E0,1.068982761E-3,1.603474026E-3,1.527118147E-4
4.240416463E0,1.068982761E-3,-2.290677221E-4,7.635590737E-4
4.242842400E0,-7.635590737E-4,-8.399150101E-4,-4.581354442E-4
4.245268338E0,4.581354442E-4,3.817795368E-4,-4.581354442E-4
4.247694275E0,4.581354442E-4,9.926267667E-4,1.527118147E-4
4.250120213E0,-1.527118147E-4,-2.290677221E-4,1.527118147E-4
4.252546150E0,-1.374406274E-3,-1.450762269E-3,-4.581354442E-4
4.254972088E0,-1.374406274E-3,9.926267667E-4,7.635590737E-4
4.257398025E0,-1.527118147E-4,-2.290677221E-4,-4.581354442E-4
4.259823963E0,4.581354442E-4,-2.290677221E-4,7.635590737E-4
4.262249900E0,4.581354442E-4,-2.290677221E-4,1.527118147E-4
4.264675838E0,4.581354442E-4,-2.290677221E-4,7.635590737E-4
4.267101775E0,-1.527118147E-4,-8.399150101E-4,7.635590737E-4
4.269527713E0,-1.527118147E-4,-8.399150101E-4,7.635590737E-4
4.271953650E0,-1.527118147E-4,-2.290677221E-4,1.527118147E-4
4.274379588E0,-1.374406274E-3,-2.290677221E-4,-1.068982761E-3
4.276805525E0,-1.527118147E-4,9.926267667E-4,1.527118147E-4
4.279231463E0,1.068982761E-3,3.817795368E-4,-1.068982761E-3
4.281657400E0,-1.527118147E-4,-2.290677221E-4,-4.581354442E-4
4.284083338E0,4.581354442E-4,3.817795368E-4,7.635590737E-4
4.286509275E0,-1.527118147E-4,3.817795368E-4,-4.581354442E-4
4.288935213E0,-7.635590737E-4,-2.290677221E-4,-4.581354442E-4
4.291361150E0,-1.527118147E-4,3.817795368E-4,-4.581354442E-4
4.293787088E0,-1.527118147E-4,1.603474026E-3,-4.581354442E-4
4.296213025E0,-1.527118147E-4,3.817795368E-4,-1.068982761E-3
4.298638963E0,-1.527118147E-4,-2.290677221E-4,1.527118147E-4
4.301064900E0,-7.635590737E-4,3.817795368E-4,1.527118147E-4
4.303490838E0,4.581354442E-4,-1.450762269E-3,1.527118147E-4
4.305916775E0,4.581354442E-4,-2.290677221E-4,-4.581354442E-4
4.308342713E0,4.581354442E-4,3.817795368E-4,1.527118147E-4
4.310768650E0,4.581354442E-4,-2.290677221E-4,1.527118147E-4
4.313194588E0,-1.527118147E-4,-1.450762269E-3,7.635590737E-4
4.315620525E0,-1.374406274E-3,-8.399150101E-4,7.635590737E-4
4.318046463E0,4.581354442E-4,-8.399150101E-4,2.596100792E-3
4.320472400E0,-1.527118147E-4,-8.399150101E-4,-4.581354442E-4
4.322898338E0,-1.527118147E-4,3.817795368E-4,7.635590737E-4
4.325324275E0,-7.635590737E-4,-8.399150101E-4,-1.068982761E-3
4.327750213E0,-7.635590737E-4,-8.399150101E-4,-4.581354442E-4
4.330176150E0,-1.527118147E-4,9.926267667E-4,-5.344913807E-4
4.332602088E0,4.581354442E-4,-8.399150101E-4,-1.145338640E-3
4.335028025E0,1.068982761E-3,1.603474026E-3,-5.344913807E-4
4.337453963E0,4.581354442E-4,3.817795368E-4,-5.344913807E-4
4.339879900E0,4.581354442E-4,3.817795368E-4,-1.145338640E-3
4.342305838E0,1.068982761E-3,3.817795368E-4,-5.344913807E-4
4.344731775E0,4.581354442E-4,-8.399150101E-4,-5.344913807E-4
4.347157713E0,-1.374406274E-3,-8.399150101E-4,7.635590737E-5
4.349583650E0,-2.596100792E-3,3.817795368E-4,6.872031372E-4
4.352009588E0,-1.374406274E-3,-8.399150101E-4,-1.145338640E-3
4.354435525E0,-7.635590737E-4,-2.290677221E-4,6.872031372E-4
4.356861463E0,-1.527118147E-4,-8.399150101E-4,-5.344913807E-4
4.359287400E0,-1.527118147E-4,9.926267667E-4,6.872031372E-4
4.361713338E0,-1.527118147E-4,9.926267667E-4,1.908897655E-3
4.364139275E0,-1.527118147E-4,9.926267667E-4,7.635590737E-5
4.366565213E0,-1.527118147E-4,9.926267667E-4,1.298050396E-3
4.368991150E0,-1.527118147E-4,1.603474026E-3,1.908897655E-3
4.371417088E0,4.581354442E-4,-8.399150101E-4,-5.344913807E-4
4.373843025E0,-1.527118147E-4,3.817795368E-4,-5.344913807E-4
4.376268963E0,4.581354442E-4,-2.290677221E-4,6.872031372E-4
4.378694900E0,-1.527118147E-4,3.817795368E-4,7.635590737E-5
4.381120838E0,-1.527118147E-4,9.926267667E-4,-5.344913807E-4
4.383546775E0,-7.635590737E-4,1.603474026E-3,7.635590737E-5
4.385972713E0,-1.527118147E-4,9.926267667E-4,6.872031372E-4
4.388398650E0,-7.635590737E-4,9.926267667E-4,7.635590737E-5
4.390824588E0,-1.527118147E-4,3.817795368E-4,-5.344913807E-4
4.393250525E0,-1.374406274E-3,3.817795368E-4,7.635590737E-5
4.395676463E0,4.581354442E-4,-8.399150101E-4,7.635590737E-5
4.398102400E0,-1.985253533E-3,9.926267667E-4,-1.756185899E-3
4.400528338E0,4.581354442E-4,9.926267667E-4,-5.344913807E-4
4.402954275E0,1.068982761E-3,3.817795368E-4,7.635590737E-5
4.405380161E0,1.068982761E-3,9.926267667E-4,6.872031372E-4
4.407806150E0,4.581354442E-4,-8.399150101E-4,-1.145338640E-3
4.410232088E0,4.581354442E-4,9.926267667E-4,-5.344913807E-4
4.412658025E0,-1.527118147E-4,-2.290677221E-4,-1.145338640E-3
4.415083963E0,4.581354442E-4,-2.290677221E-4,7.635590737E-5
4.417509848E0,-7.635590737E-4,-2.290677221E-4,7.635590737E-5
4.419935786E0,4.581354442E-4,3.817795368E-4,6.872031372E-4
4.422361775E0,-1.527118147E-4,-2.290677221E-4,6.872031372E-4
4.424787661E0,4.581354442E-4,9.926267667E-4,-1.145338640E-3
4.427213598E0,-1.527118147E-4,3.817795368E-4,6.872031372E-4
4.429639536E0,1.068982761E-3,-2.290677221E-4,-5.344913807E-4
4.432065473E0,4.581354442E-4,-2.290677221E-4,-5.344913807E-4
4.434491411E0,4.581354442E-4,-2.290677221E-4,-1.145338640E-3
4.436917348E0,4.581354442E-4,1.603474026E-3,-5.344913807E-4
4.439343286E0,4.581354442E-4,3.817795368E-4,1.298050396E-3
4.441769223E0,-7.635590737E-4,-2.290677221E-4,7.635590737E-5
4.444195161E0,-1.527118147E-4,3.817795368E-4,7.635590737E-5
4.446621098E0,4.581354442E-4,-8.399150101E-4,-1.145338640E-3
4.449047036E0,1.068982761E-3,3.817795368E-4,-1.145338640E-3
4.451472973E0,-1.374406274E-3,9.926267667E-4,-5.344913807E-4
4.453898911E0,1.068982761E-3,9.926267667E-4,-1.145338640E-3
4.456324848E0,-1.374406274E-3,3.817795368E-4,1.298050396E-3
4.458750786E0,-7.635590737E-4,3.817795368E-4,1.298050396E-3
4.461176723E0,-1.527118147E-4,-8.399150101E-4,1.298050396E-3
4.463602661E0,1.068982761E-3,-2.290677221E-4,6.872031372E-4
4.466028598E0,-1.527118147E-4,3.817795368E-4,7.635590737E-5
4.468454536E0,-1.527118147E-4,-8.399150101E-4,-1.145338640E-3
4.470880473E0,1.068982761E-3,3.817795368E-4,-5.344913807E-4
4.473306411E0,-1.527118147E-4,-2.290677221E-4,1.298050396E-3
4.475732348E0,4.581354442E-4,-8.399150101E-4,7.635590737E-5
4.478158286E0,-1.374406274E-3,1.603474026E-3,-5.344913807E-4
4.480584223E0,-1.527118147E-4,3.817795368E-4,7.635590737E-5
4.483010161E0,-1.527118147E-4,9.926267667E-4,7.635590737E-5
4.485436098E0,-1.527118147E-4,-2.290677221E-4,-1.756185899E-3
4.487862036E0,1.068982761E-3,1.603474026E-3,-1.756185899E-3
4.490287973E0,-1.527118147E-4,-2.290677221E-4,7.635590737E-5
4.492713911E0,-1.527118147E-4,-1.450762269E-3,7.635590737E-5
4.495139848E0,-7.635590737E-4,-8.399150101E-4,7.635590737E-5
4.497565786E0,-1.527118147E-4,9.926267667E-4,1.298050396E-3
4.499991723E0,-7.635590737E-4,-2.290677221E-4,7.635590737E-5
4.502417661E0,-1.527118147E-4,-2.290677221E-4,6.872031372E-4
4.504843598E0,-1.527118147E-4,3.817795368E-4,-5.344913807E-4
4.507269536E0,-7.635590737E-4,3.817795368E-4,1.298050396E-3
4.509695473E0,-7.635590737E-4,-2.290677221E-4,1.298050396E-3
4.512121411E0,-1.527118147E-4,-2.290677221E-4,7.635590737E-5
4.514547348E0,1.068982761E-3,-8.399150101E-4,-1.756185899E-3
4.516973286E0,1.679830020E-3,3.817795368E-4,6.872031372E-4
4.519399223E0,1.068982761E-3,3.817795368E-4,-5.344913807E-4
4.521825161E0,4.581354442E-4,9.162708884E-4,-1.145338640E-3
4.524251098E0,-1.985253533E-3,9.162708884E-4,6.872031372E-4
4.526677036E0,-7.635590737E-4,9.162708884E-4,7.635590737E-5
4.529102973E0,-1.527118147E-4,-9.162708884E-4,-5.344913807E-4
4.531528911E0,-1.527118147E-4,1.527118147E-3,-1.145338640E-3
4.533954848E0,-1.374406274E-3,-9.162708884E-4,6.872031372E-4
4.536380786E0,-7.635590737E-4,-3.054236295E-4,-5.344913807E-4
4.538806723E0,4.581354442E-4,9.162708884E-4,7.635590737E-5
4.541232661E0,1.068982761E-3,1.527118147E-3,7.635590737E-5
4.543658598E0,-1.527118147E-4,9.162708884E-4,1.298050396E-3
4.546084536E0,1.068982761E-3,-3.054236295E-4,-1.145338640E-3
4.548510473E0,1.068982761E-3,-9.162708884E-4,-5.344913807E-4
4.550936411E0,-1.527118147E-4,-9.162708884E-4,-5.344913807E-4
4.553362348E0,-1.374406274E-3,3.054236295E-4,-1.145338640E-3
4.555788286E0,-1.374406274E-3,-9.162708884E-4,1.298050396E-3
4.558214223E0,-1.527118147E-4,3.054236295E-4,6.872031372E-4
4.560640161E0,4.581354442E-4,-3.054236295E-4,1.298050396E-3
4.563066098E0,1.679830020E-3,9.162708884E-4,6.872031372E-4
4.565492036E0,4.581354442E-4,-1.527118147E-3,7.635590737E-5
4.567917973E0,4.581354442E-4,-3.054236295E-4,-1.756185899E-3
4.570343911E0,4.581354442E-4,-3.054236295E-4,7.635590737E-5
4.572769848E0,-7.635590737E-4,3.054236295E-4,-5.344913807E-4
4.575195786E0,-1.374406274E-3,-3.054236295E-4,-5.344913807E-4
4.577621723E0,4.581354442E-4,3.054236295E-4,-5.344913807E-4
4.580047661E0,-7.635590737E-4,3.054236295E-4,-1.756185899E-3
4.582473546E0,1.068982761E-3,-9.162708884E-4,-1.145338640E-3
4.584899483E0,-1.527118147E-4,-9.162708884E-4,-5.344913807E-4
4.587325421E0,4.581354442E-4,-3.054236295E-4,7.635590737E-5
4.589751358E0,-1.527118147E-4,-9.162708884E-4,6.872031372E-4
4.592177296E0,4.581354442E-4,-3.054236295E-4,1.908897655E-3
4.594603286E0,-1.527118147E-4,3.054236295E-4,-5.344913807E-4
4.597029171E0,4.581354442E-4,-3.054236295E-4,1.298050396E-3
4.599455108E0,-6.872031372E-4,1.527118147E-3,-5.344913807E-4
4.601881098E0,-1.298050396E-3,-9.162708884E-4,-1.145338640E-3
4.604306983E0,-7.635590737E-5,-3.054236295E-4,7.635590737E-5
4.606732921E0,-6.872031372E-4,-9.162708884E-4,1.298050396E-3
4.609158858E0,-7.635590737E-5,-3.054236295E-4,7.635590737E-5
4.611584796E0,-6.872031372E-4,-9.162708884E-4,7.635590737E-5
4.614010733E0,5.344913807E-4,-3.054236295E-4,6.872031372E-4
4.616436671E0,-6.872031372E-4,3.054236295E-4,7.635590737E-5
4.618862608E0,-7.635590737E-5,-3.054236295E-4,-5.344913807E-4
4.621288546E0,-7.635590737E-5,-3.054236295E-4,7.635590737E-5
4.623714483E0,-7.635590737E-5,2.137965523E-3,-5.344913807E-4
4.626140421E0,5.344913807E-4,-9.162708884E-4,6.872031372E-4
4.628566358E0,5.344913807E-4,-3.054236295E-4,6.872031372E-4
4.630992296E0,-7.635590737E-5,-3.054236295E-4,-1.145338640E-3
4.633418233E0,-7.635590737E-5,3.054236295E-4,7.635590737E-5
4.635844171E0,-6.872031372E-4,3.054236295E-4,7.635590737E-5
4.638270108E0,-7.635590737E-5,-9.162708884E-4,7.635590737E-5
4.640696046E0,-7.635590737E-5,9.162708884E-4,-4.581354442E-4
4.643121983E0,-6.872031372E-4,3.054236295E-4,7.635590737E-4
4.645547921E0,-1.298050396E-3,-3.054236295E-4,-4.581354442E-4
4.647973858E0,-7.635590737E-5,9.162708884E-4,1.527118147E-4
4.650399796E0,5.344913807E-4,3.054236295E-4,1.527118147E-4
4.652825733E0,5.344913807E-4,9.162708884E-4,-1.068982761E-3
4.655251671E0,-7.635590737E-5,9.162708884E-4,1.527118147E-4
4.657677608E0,1.145338640E-3,-3.054236295E-4,1.527118147E-4
4.660103546E0,1.145338640E-3,3.054236295E-4,1.527118147E-4
4.662529483E0,-1.298050396E-3,-3.054236295E-4,1.374406274E-3
4.664955421E0,-1.298050396E-3,-3.054236295E-4,1.374406274E-3
4.667381358E0,5.344913807E-4,-9.162708884E-4,7.635590737E-4
4.669807296E0,1.145338640E-3,3.054236295E-4,1.527118147E-4
4.672233233E0,5.344913807E-4,-3.054236295E-4,-1.068982761E-3
4.674659171E0,5.344913807E-4,-1.527118147E-3,-4.581354442E-4
4.677085108E0,1.756185899E-3,-9.162708884E-4,-1.068982761E-3
4.679511046E0,5.344913807E-4,-3.054236295E-4,-1.679830020E-3
4.681936983E0,5.344913807E-4,-9.162708884E-4,7.635590737E-4
4.684362921E0,-1.298050396E-3,3.054236295E-4,1.374406274E-3
4.686788858E0,-6.872031372E-4,3.054236295E-4,1.374406274E-3
4.689214796E0,5.344913807E-4,-9.162708884E-4,1.527118147E-4
4.691640733E0,-6.872031372E-4,-3.054236295E-4,-4.581354442E-4
4.694066671E0,-1.298050396E-3,3.054236295E-4,7.635590737E-4
4.696492608E0,-6.872031372E-4,-9.162708884E-4,1.374406274E-3
4.698918546E0,-6.872031372E-4,9.162708884E-4,7.635590737E-4
4.701344483E0,1.145338640E-3,1.527118147E-3,1.527118147E-4
4.703770421E0,-6.872031372E-4,3.054236295E-4,1.527118147E-4
4.706196358E0,-7.635590737E-5,9.162708884E-4,7.635590737E-4
4.708622296E0,5.344913807E-4,-3.054236295E-4,-1.068982761E-3
4.711048233E0,5.344913807E-4,9.162708884E-4,7.635590737E-4
4.713474171E0,1.145338640E-3,-3.054236295E-4,-1.068982761E-3
4.715900108E0,5.344913807E-4,-3.054236295E-4,-1.679830020E-3
4.718326046E0,-7.635590737E-5,-9.162708884E-4,-4.581354442E-4
4.720751983E0,5.344913807E-4,-3.054236295E-4,1.527118147E-4
4.723177921E0,-6.872031372E-4,-9.162708884E-4,1.527118147E-4
4.725603858E0,-7.635590737E-5,3.054236295E-4,1.374406274E-3
4.728029796E0,5.344913807E-4,3.054236295E-4,1.527118147E-4
4.730455733E0,-6.872031372E-4,-9.162708884E-4,1.527118147E-4
4.732881671E0,5.344913807E-4,9.162708884E-4,7.635590737E-4
4.735307608E0,-7.635590737E-5,3.054236295E-4,1.527118147E-4
4.737733546E0,-7.635590737E-5,-3.054236295E-4,-4.581354442E-4
4.740159483E0,-7.635590737E-5,9.162708884E-4,1.527118147E-4
4.742585421E0,1.145338640E-3,9.162708884E-4,1.527118147E-4
4.745011358E0,5.344913807E-4,3.054236295E-4,1.374406274E-3
4.747437296E0,-6.872031372E-4,1.527118147E-3,-5.344913807E-4
4.749863233E0,-6.872031372E-4,9.162708884E-4,1.298050396E-3
4.752289171E0,5.344913807E-4,1.527118147E-3,-5.344913807E-4
4.754715108E0,5.344913807E-4,3.054236295E-4,6.872031372E-4
4.757141046E0,-6.872031372E-4,-9.162708884E-4,-1.145338640E-3
4.759566983E0,-6.872031372E-4,-9.162708884E-4,-5.344913807E-4
4.761992869E0,-6.872031372E-4,-9.162708884E-4,7.635590737E-5
4.764418858E0,-6.872031372E-4,-9.162708884E-4,7.635590737E-5
4.766844796E0,-7.635590737E-5,-3.054236295E-4,6.872031372E-4
4.769270733E0,-7.635590737E-5,2.137965523E-3,7.635590737E-5
4.771696671E0,-6.872031372E-4,3.054236295E-4,7.635590737E-5
4.774122556E0,-1.298050396E-3,9.162708884E-4,7.635590737E-5
4.776548494E0,-7.635590737E-5,3.054236295E-4,7.635590737E-5
4.778974431E0,-7.635590737E-5,-9.162708884E-4,1.908897655E-3
4.781400369E0,-1.908897655E-3,-3.054236295E-4,7.635590737E-5
4.783826306E0,5.344913807E-4,-3.054236295E-4,-5.344913807E-4
4.786252244E0,-7.635590737E-5,1.527118147E-3,6.872031372E-4
4.788678181E0,-1.298050396E-3,9.162708884E-4,6.872031372E-4
4.791104119E0,-7.635590737E-5,-9.162708884E-4,7.635590737E-5
4.793530056E0,5.344913807E-4,-9.162708884E-4,6.872031372E-4
4.795955994E0,-6.872031372E-4,3.054236295E-4,6.872031372E-4
4.798381931E0,-7.635590737E-5,-1.527118147E-3,-1.756185899E-3
4.800807869E0,-6.872031372E-4,-3.054236295E-4,-5.344913807E-4
4.803233806E0,-6.872031372E-4,9.162708884E-4,-1.145338640E-3
4.805659744E0,-7.635590737E-5,9.162708884E-4,7.635590737E-5
4.808085681E0,5.344913807E-4,-3.054236295E-4,7.635590737E-5
4.810511619E0,-7.635590737E-5,-3.054236295E-4,-5.344913807E-4
4.812937556E0,-6.872031372E-4,3.054236295E-4,6.872031372E-4
4.815363494E0,-7.635590737E-5,9.162708884E-4,6.872031372E-4
4.817789431E0,1.145338640E-3,3.054236295E-4,-1.145338640E-3
4.820215369E0,-6.872031372E-4,3.054236295E-4,-1.756185899E-3
4.822641306E0,-6.872031372E-4,9.162708884E-4,-1.145338640E-3
4.825067244E0,-7.635590737E-5,3.054236295E-4,-5.344913807E-4
4.827493181E0,5.344913807E-4,3.054236295E-4,-5.344913807E-4
4.829919119E0,-7.635590737E-5,3.054236295E-4,1.298050396E-3
4.832345056E0,5.344913807E-4,3.054236295E-4,7.635590737E-5
4.834770994E0,-7.635590737E-5,3.054236295E-4,-5.344913807E-4
4.837196931E0,5.344913807E-4,-1.527118147E-3,7.635590737E-5
4.839622869E0,1.145338640E-3,-9.162708884E-4,-5.344913807E-4
4.842048806E0,-1.298050396E-3,3.054236295E-4,7.635590737E-5
4.844474744E0,-7.635590737E-5,-3.054236295E-4,1.298050396E-3
4.846900681E0,-7.635590737E-5,-9.162708884E-4,6.872031372E-4
4.849326619E0,-7.635590737E-5,-3.054236295E-4,7.635590737E-5
4.851752556E0,-6.872031372E-4,3.054236295E-4,7.635590737E-5
4.854178494E0,-6.872031372E-4,2.137965523E-3,7.635590737E-5
4.856604431E0,5.344913807E-4,3.054236295E-4,7.635590737E-5
4.859030369E0,1.145338640E-3,-3.054236295E-4,7.635590737E-5
4.861456306E0,-7.635590737E-5,3.054236295E-4,-5.344913807E-4
4.863882244E0,-1.298050396E-3,-3.054236295E-4,-1.145338640E-3
4.866308181E0,-1.298050396E-3,3.054236295E-4,7.635590737E-5
4.868734119E0,-7.635590737E-5,9.162708884E-4,1.298050396E-3
4.871160056E0,-7.635590737E-5,9.162708884E-4,-5.344913807E-4
4.873585994E0,-6.872031372E-4,3.054236295E-4,-5.344913807E-4
4.876011931E0,-6.872031372E-4,-3.054236295E-4,-1.756185899E-3
4.878437869E0,5.344913807E-4,-1.527118147E-3,-1.145338640E-3
4.880863806E0,-7.635590737E-5,-1.527118147E-3,7.635590737E-5
4.883289744E0,-7.635590737E-5,9.162708884E-4,-1.145338640E-3
4.885715681E0,-7.635590737E-5,-3.054236295E-4,-5.344913807E-4
4.888141619E0,-6.872031372E-4,9.162708884E-4,7.635590737E-5
4.890567556E0,-7.635590737E-5,1.527118147E-3,-1.145338640E-3
4.892993494E0,-6.872031372E-4,1.527118147E-3,6.872031372E-4
4.895419431E0,-6.872031372E-4,3.054236295E-4,7.635590737E-5
4.897845369E0,5.344913807E-4,-9.162708884E-4,1.298050396E-3
