"Time (s)","Acceleration x (m/s^2)","Acceleration y (m/s^2)","Acceleration z (m/s^2)","Absolute acceleration (m/s^2)"
2.452620900E-2,-4.247260094E-2,9.703194618E0,7.447660714E-2,9.703573387E0
2.694980300E-2,-4.965107143E-2,9.684052467E0,8.165507019E-2,9.684523993E0
2.937464600E-2,-2.811566554E-2,9.707980156E0,6.011966988E-2,9.708207022E0
3.179928200E-2,-3.529413417E-2,9.710372925E0,7.447660714E-2,9.710722670E0
3.422417800E-2,-5.682953820E-2,9.686445236E0,1.465603895E-2,9.686623029E0
3.664730300E-2,-2.572284266E-2,9.698409081E0,7.477570791E-3,9.698446075E0
3.907146900E-2,-2.572284266E-2,9.700801849E0,2.691925503E-3,9.700836326E0
4.149548000E-2,-1.854437590E-2,9.686445236E0,-3.320041299E-2,9.686519885E0
4.391985500E-2,-1.375873014E-2,9.698409081E0,-3.559323773E-2,9.698484153E0
4.634391700E-2,-3.768695518E-2,9.691230774E0,-5.234299600E-2,9.691445404E0
4.876771900E-2,-3.529413417E-2,9.703194618E0,-4.995017126E-2,9.703387372E0
5.119126100E-2,-1.615155302E-2,9.696016312E0,-3.320041299E-2,9.696086605E0
5.361490700E-2,-2.093719877E-2,9.707980156E0,-4.486542661E-3,9.708003770E0
5.603829200E-2,-4.965107143E-2,9.715159416E0,-2.093719784E-3,9.715286516E0
5.846256300E-2,-4.007977992E-2,9.700801849E0,1.226321608E-2,9.700892397E0
6.088641700E-2,-7.357929647E-2,9.676874161E0,1.465603895E-2,9.677164990E0
6.331027100E-2,-4.247260094E-2,9.679266930E0,1.944168471E-2,9.679379639E0
6.573428200E-2,-4.007977992E-2,9.691230774E0,5.084747914E-3,9.691314986E0
6.815834400E-2,-6.161518395E-2,9.691230774E0,1.704886183E-2,9.691441637E0
7.058173000E-2,-3.529413417E-2,9.684052467E0,1.226321608E-2,9.684124548E0
7.300579200E-2,-3.290131316E-2,9.722337723E0,2.691925503E-3,9.722393766E0
7.542881300E-2,-5.922235921E-2,9.705587387E0,2.991028305E-4,9.705768074E0
7.785282300E-2,-6.161518395E-2,9.686445236E0,1.226321608E-2,9.686648963E0
8.027688600E-2,-5.204389244E-2,9.698409081E0,1.944168471E-2,9.698568206E0
8.270079200E-2,-5.682953820E-2,9.719944954E0,5.533402413E-2,9.720268585E0
8.512521900E-2,-7.836493850E-2,9.707980156E0,4.815555736E-2,9.708415871E0
8.754943800E-2,-6.879365444E-2,9.700801849E0,5.772684515E-2,9.701217525E0
8.997308400E-2,-5.682953820E-2,9.700801849E0,6.251249462E-2,9.701169720E0
9.239652100E-2,-5.682953820E-2,9.700801849E0,5.054837838E-2,9.701100002E0
9.482058400E-2,-6.161518395E-2,9.705587387E0,3.858426586E-2,9.705859658E0
9.724485500E-2,-6.400800496E-2,9.707980156E0,5.054837838E-2,9.708322763E0
9.966985500E-2,-5.682953820E-2,9.719944954E0,5.054837838E-2,9.720242520E0
1.020945940E-1,-8.075776696E-2,9.676874161E0,4.815555736E-2,9.677330949E0
1.045193340E-1,-7.357929647E-2,9.700801849E0,6.251249462E-2,9.701282299E0
1.069443340E-1,-5.682953820E-2,9.693623543E0,5.772684515E-2,9.693962006E0
1.093692820E-1,-6.879365444E-2,9.703194618E0,4.815555736E-2,9.703557972E0
1.117942300E-1,-4.247260094E-2,9.705587387E0,4.097708687E-2,9.705766820E0
1.142185010E-1,-7.357929647E-2,9.698409081E0,2.662015148E-2,9.698724722E0
1.166434480E-1,-6.161518395E-2,9.700801849E0,2.662015148E-2,9.701034047E0
1.190681880E-1,-6.161518395E-2,9.703194618E0,5.084747914E-3,9.703391576E0
1.214930320E-1,-3.768695518E-2,9.703194618E0,5.084747914E-3,9.703269138E0
1.239176150E-1,-4.486542568E-2,9.707980156E0,2.991028305E-4,9.708083833E0
1.263422510E-1,-2.811566554E-2,9.707980156E0,1.465603895E-2,9.708031932E0
1.287666780E-1,-4.725824669E-2,9.705587387E0,2.662015148E-2,9.705738947E0
1.311910530E-1,-3.768695518E-2,9.707980156E0,1.944168471E-2,9.708072774E0
1.336156880E-1,-1.854437590E-2,9.700801849E0,2.901297435E-2,9.700862960E0
1.360400630E-1,-5.204389244E-2,9.688838005E0,2.183450572E-2,9.689002384E0
1.384645420E-1,-4.965107143E-2,9.691230774E0,3.379862010E-2,9.691416898E0
1.408888650E-1,-3.290131316E-2,9.696016312E0,1.704886183E-2,9.696087122E0
1.433135530E-1,-4.725824669E-2,9.686445236E0,1.226321608E-2,9.686568280E0
1.457378760E-1,-6.161518395E-2,9.696016312E0,7.477570791E-3,9.696214966E0
1.481623030E-1,-2.811566554E-2,9.707980156E0,1.944168471E-2,9.708040337E0
1.505867300E-1,-5.443671346E-2,9.703194618E0,1.704886183E-2,9.703362295E0
1.530115730E-1,-2.333002165E-2,9.700801849E0,9.870393202E-3,9.700834925E0
1.554353230E-1,-4.486542568E-2,9.696016312E0,2.691925503E-3,9.696120485E0
1.578592300E-1,-2.333002165E-2,9.693623543E0,9.870393202E-3,9.693656643E0
1.602835010E-1,-4.965107143E-2,9.688838005E0,9.870393202E-3,9.688970252E0
1.627075110E-1,-4.965107143E-2,9.705587387E0,-2.093719784E-3,9.705714613E0
1.651312610E-1,-7.836493850E-2,9.674481392E0,-9.272187948E-3,9.674803215E0
1.675551150E-1,-6.400800496E-2,9.707980156E0,5.084747914E-3,9.708192498E0
1.699788130E-1,-5.682953820E-2,9.707980156E0,1.944168471E-2,9.708165959E0
1.724027190E-1,-3.768695518E-2,9.707980156E0,1.465603895E-2,9.708064370E0
1.748266260E-1,-6.640082598E-2,9.703194618E0,2.183450572E-2,9.703446378E0
1.772506360E-1,-6.161518395E-2,9.674481392E0,2.662015148E-2,9.674714221E0
1.796745940E-1,-6.400800496E-2,9.710372925E0,3.140579537E-2,9.710634670E0
1.820987090E-1,-2.811566554E-2,9.710372925E0,3.379862010E-2,9.710472449E0
1.845227190E-1,-5.443671346E-2,9.700801849E0,3.379862010E-2,9.701013464E0
1.869470420E-1,-4.247260094E-2,9.707980156E0,4.097708687E-2,9.708159545E0
1.893710530E-1,-4.486542568E-2,9.710372925E0,2.662015148E-2,9.710513059E0
1.917954800E-1,-2.572284266E-2,9.691230774E0,1.944168471E-2,9.691284412E0
1.942192300E-1,-4.725824669E-2,9.703194618E0,3.140579537E-2,9.703360524E0
1.966438650E-1,-7.118647546E-2,9.696016312E0,4.097708687E-2,9.696364213E0
1.990683440E-1,-3.529413417E-2,9.703194618E0,5.533402413E-2,9.703416580E0
2.014923550E-1,-6.161518395E-2,9.700801849E0,3.140579537E-2,9.701048360E0
2.039170420E-1,-5.443671346E-2,9.707980156E0,1.704886183E-2,9.708147750E0
2.063412090E-1,-4.965107143E-2,9.700801849E0,2.901297435E-2,9.700972297E0
2.087657920E-1,-5.682953820E-2,9.705587387E0,2.183450572E-2,9.705778324E0
2.111894380E-1,-7.836493850E-2,9.703194618E0,2.662015148E-2,9.703547573E0
2.136133440E-1,-5.922235921E-2,9.703194618E0,4.815555736E-2,9.703494837E0
2.160374590E-1,-4.965107143E-2,9.712766647E0,4.576273263E-2,9.713001359E0
2.184607920E-1,-6.640082598E-2,9.705587387E0,3.619144112E-2,9.705882001E0
2.208844380E-1,-7.118647546E-2,9.703194618E0,1.704886183E-2,9.703470718E0
2.233079280E-1,-6.879365444E-2,9.679266930E0,5.084747914E-3,9.679512731E0
2.257317300E-1,-4.007977992E-2,9.719944954E0,-2.123630047E-2,9.720050786E0
2.281550110E-1,-6.161518395E-2,9.717552185E0,-2.093719784E-3,9.717747747E0
2.305791780E-1,-6.400800496E-2,9.707980156E0,-1.166501082E-2,9.708198175E0
2.330039170E-1,-3.529413417E-2,9.691230774E0,-4.037888348E-2,9.691379161E0
2.354282920E-1,-4.247260094E-2,9.684052467E0,-4.037888348E-2,9.684229787E0
2.378520420E-1,-4.486542568E-2,9.681659698E0,-2.602194622E-2,9.681798622E0
2.402758960E-1,-4.486542568E-2,9.715159416E0,-3.080759197E-2,9.715311858E0
2.426996980E-1,-4.007977992E-2,9.705587387E0,5.084747914E-3,9.705671475E0
2.451241260E-1,-3.050848842E-2,9.705587387E0,2.183450572E-2,9.705659897E0
2.475485530E-1,-2.333002165E-2,9.707980156E0,2.662015148E-2,9.708044686E0
2.499725630E-1,-2.333002165E-2,9.698409081E0,3.379862010E-2,9.698496034E0
2.523968860E-1,-2.572284266E-2,9.686445236E0,5.533402413E-2,9.686637437E0
2.548207400E-1,-7.118647546E-2,9.693623543E0,5.533402413E-2,9.694042849E0
2.572448550E-1,-5.204389244E-2,9.684052467E0,5.294119939E-2,9.684337021E0
2.596685010E-1,-4.965107143E-2,9.696016312E0,4.336991161E-2,9.696240431E0
2.620921460E-1,-4.965107143E-2,9.703194618E0,4.336991161E-2,9.703418572E0
2.645158440E-1,-4.247260094E-2,9.700801849E0,2.901297435E-2,9.700938212E0
2.669395940E-1,-4.725824669E-2,9.707980156E0,1.226321608E-2,9.708102927E0
2.693635530E-1,-5.682953820E-2,9.712766647E0,1.226321608E-2,9.712940643E0
2.717880320E-1,-3.529413417E-2,9.686445236E0,9.870393202E-3,9.686514565E0
2.742123030E-1,-5.204389244E-2,9.715159416E0,2.991028305E-4,9.715298819E0
2.766359480E-1,-6.640082598E-2,9.707980156E0,2.991028305E-4,9.708207243E0
2.790597510E-1,-5.204389244E-2,9.703194618E0,2.183450572E-2,9.703358754E0
2.814839690E-1,-5.204389244E-2,9.717552185E0,2.901297435E-2,9.717734859E0
2.839083440E-1,-4.486542568E-2,9.681659698E0,2.662015148E-2,9.681800249E0
2.863325110E-1,-5.443671346E-2,9.688838005E0,4.576273263E-2,9.689099002E0
2.887564170E-1,-5.443671346E-2,9.717552185E0,4.097708687E-2,9.717791053E0
2.911801150E-1,-7.118647546E-2,9.710372925E0,5.294119939E-2,9.710778168E0
2.936039690E-1,-6.161518395E-2,9.717552185E0,4.815555736E-2,9.717866837E0
2.960281880E-1,-3.529413417E-2,9.698409081E0,5.533402413E-2,9.698631152E0
2.984524070E-1,-6.640082598E-2,9.698409081E0,2.183450572E-2,9.698660965E0
3.008765730E-1,-9.032905847E-2,9.696016312E0,2.901297435E-2,9.696480465E0
3.033002190E-1,-6.640082598E-2,9.698409081E0,3.140579537E-2,9.698687235E0
3.057241260E-1,-4.486542568E-2,9.703194618E0,2.662015148E-2,9.703334857E0
3.081480840E-1,-6.879365444E-2,9.700801849E0,2.183450572E-2,9.701070345E0
3.105716260E-1,-5.682953820E-2,9.705587387E0,7.477570791E-3,9.705756644E0
3.129953230E-1,-5.204389244E-2,9.688838005E0,1.944168471E-2,9.688997287E0
3.154193340E-1,-5.204389244E-2,9.693623543E0,1.704886183E-2,9.693778243E0
3.178429280E-1,-4.725824669E-2,9.684052467E0,1.465603895E-2,9.684178867E0
3.202667820E-1,-6.400800496E-2,9.691230774E0,2.422732860E-2,9.691472432E0
3.226909480E-1,-6.161518395E-2,9.686445236E0,2.183450572E-2,9.686665809E0
3.251150630E-1,-5.682953820E-2,9.691230774E0,2.662015148E-2,9.691433957E0
3.275392300E-1,-4.725824669E-2,9.703194618E0,3.379862010E-2,9.703368564E0
3.299635010E-1,-4.007977992E-2,9.703194618E0,4.815555736E-2,9.703396887E0
3.323869900E-1,-3.529413417E-2,9.705587387E0,5.054837838E-2,9.705783191E0
3.348108960E-1,-3.768695518E-2,9.710372925E0,5.054837838E-2,9.710577624E0
3.372349070E-1,-4.965107143E-2,9.703194618E0,4.576273263E-2,9.703429562E0
3.396586050E-1,-3.290131316E-2,9.676874161E0,3.140579537E-2,9.676981055E0
3.420826150E-1,-3.768695518E-2,9.707980156E0,1.465603895E-2,9.708064370E0
3.445076670E-1,-3.768695518E-2,9.691230774E0,2.691925503E-3,9.691304425E0
3.469322510E-1,-4.486542568E-2,9.698409081E0,-1.405783277E-2,9.698523043E0
3.493555320E-1,-4.247260094E-2,9.710372925E0,2.991028305E-4,9.710465815E0
3.517790210E-1,-3.529413417E-2,9.691230774E0,-2.093719784E-3,9.691295268E0
3.542021460E-1,-4.247260094E-2,9.710372925E0,-1.166501082E-2,9.710472817E0
3.566252190E-1,-3.768695518E-2,9.681659698E0,2.691925503E-3,9.681733423E0
3.590498030E-1,-2.333002165E-2,9.715159416E0,1.465603895E-2,9.715198483E0
3.614739170E-1,-4.486542568E-2,9.719944954E0,2.662015148E-2,9.720084951E0
3.638982920E-1,-3.050848842E-2,9.698409081E0,3.379862010E-2,9.698515959E0
3.663220420E-1,-4.486542568E-2,9.698409081E0,4.576273263E-2,9.698620821E0
3.687461570E-1,-3.050848842E-2,9.705587387E0,3.858426586E-2,9.705712032E0
3.711702710E-1,-4.007977992E-2,9.707980156E0,6.011966988E-2,9.708249043E0
3.735931360E-1,-4.247260094E-2,9.717552185E0,4.097708687E-2,9.717731397E0
3.760173030E-1,-4.965107143E-2,9.693623543E0,2.662015148E-2,9.693787250E0
3.784412610E-1,-6.161518395E-2,9.707980156E0,1.704886183E-2,9.708190655E0
3.808646460E-1,-4.007977992E-2,9.707980156E0,1.226321608E-2,9.708070637E0
3.832888650E-1,-5.922235921E-2,9.705587387E0,4.097708687E-2,9.705854570E0
3.857123550E-1,-3.290131316E-2,9.722337723E0,3.140579537E-2,9.722444117E0
3.881361050E-1,-6.879365444E-2,9.703194618E0,2.662015148E-2,9.703474996E0
3.905600630E-1,-4.725824669E-2,9.710372925E0,7.477570791E-3,9.710490801E0
3.929836570E-1,-3.529413417E-2,9.710372925E0,1.226321608E-2,9.710444810E0
3.954078760E-1,-4.725824669E-2,9.710372925E0,2.422732860E-2,9.710518145E0
3.978320420E-1,-4.965107143E-2,9.712766647E0,4.576273263E-2,9.713001359E0
4.002558960E-1,-7.118647546E-2,9.712766647E0,4.815555736E-2,9.713146885E0
4.026796460E-1,-6.161518395E-2,9.693623543E0,4.097708687E-2,9.693905969E0
4.051036570E-1,-7.357929647E-2,9.698409081E0,1.704886183E-2,9.698703175E0
4.075273550E-1,-4.725824669E-2,9.688838005E0,9.870393202E-3,9.688958285E0
4.099507400E-1,-4.486542568E-2,9.719944954E0,3.858426586E-2,9.720125079E0
4.123737090E-1,-5.922235921E-2,9.705587387E0,2.991028305E-4,9.705768074E0
4.147977190E-1,-5.443671346E-2,9.707980156E0,1.704886183E-2,9.708147750E0
4.172217300E-1,-5.682953820E-2,9.686445236E0,2.691925503E-3,9.686612316E0
4.196452710E-1,-6.879365444E-2,9.700801849E0,2.691925503E-3,9.701046146E0
4.220689690E-1,-4.965107143E-2,9.710372925E0,2.691925503E-3,9.710500235E0
4.244933440E-1,-2.811566554E-2,9.688838005E0,3.140579537E-2,9.688929699E0
4.269177710E-1,-4.247260094E-2,9.700801849E0,7.477570791E-3,9.700897709E0
4.293412090E-1,-4.725824669E-2,9.715159416E0,1.704886183E-2,9.715289316E0
4.317647510E-1,-4.725824669E-2,9.700801849E0,1.944168471E-2,9.700936441E0
4.341884480E-1,-2.811566554E-2,9.703194618E0,5.084747914E-3,9.703236684E0
4.366124070E-1,-3.768695518E-2,9.691230774E0,1.465603895E-2,9.691315134E0
4.390355840E-1,-4.725824669E-2,9.715159416E0,3.379862010E-2,9.715333148E0
4.414598550E-1,-4.007977992E-2,9.700801849E0,3.619144112E-2,9.700952156E0
4.438837090E-1,-2.333002165E-2,9.698409081E0,4.576273263E-2,9.698545108E0
4.463069380E-1,-3.768695518E-2,9.715159416E0,5.054837838E-2,9.715364014E0
4.487305840E-1,-3.050848842E-2,9.717552185E0,5.054837838E-2,9.717731545E0
4.511544380E-1,-2.333002165E-2,9.698409081E0,4.097708687E-2,9.698523707E0
4.535782400E-1,-4.247260094E-2,9.691230774E0,4.097708687E-2,9.691410473E0
4.560028760E-1,-4.725824669E-2,9.712766647E0,3.619144112E-2,9.712949043E0
4.584268860E-1,-4.486542568E-2,9.703194618E0,3.379862010E-2,9.703357205E0
4.608510010E-1,-2.572284266E-2,9.719944954E0,2.901297435E-2,9.720022290E0
4.632749070E-1,-3.050848842E-2,9.712766647E0,-4.486542661E-3,9.712815598E0
4.656985010E-1,-1.854437590E-2,9.700801849E0,2.691925503E-3,9.700819948E0
4.681222510E-1,-4.247260094E-2,9.700801849E0,5.084747914E-3,9.700896159E0
4.705466780E-1,-5.443671346E-2,9.698409081E0,1.465603895E-2,9.698572928E0
4.729712090E-1,-3.768695518E-2,9.710372925E0,3.140579537E-2,9.710496845E0
4.753951670E-1,-3.290131316E-2,9.700801849E0,2.901297435E-2,9.700901029E0
4.778188130E-1,-2.811566554E-2,9.700801849E0,4.336991161E-2,9.700939540E0
4.802426150E-1,-8.315058798E-2,9.698409081E0,4.815555736E-2,9.698885074E0
4.826659480E-1,-6.400800496E-2,9.715159416E0,4.576273263E-2,9.715478050E0
4.850896980E-1,-5.922235921E-2,9.712766647E0,2.662015148E-2,9.712983675E0
4.875135010E-1,-5.443671346E-2,9.710372925E0,4.576273263E-2,9.710633343E0
4.899373030E-1,-4.247260094E-2,9.715159416E0,3.858426586E-2,9.715328875E0
4.923612090E-1,-3.529413417E-2,9.724730492E0,2.662015148E-2,9.724830972E0
4.947852710E-1,-5.922235921E-2,9.700801849E0,3.379862010E-2,9.701041498E0
4.972096980E-1,-4.725824669E-2,9.696016312E0,1.944168471E-2,9.696150970E0
4.996336050E-1,-3.768695518E-2,9.712766647E0,2.901297435E-2,9.712883094E0
5.020574070E-1,-5.682953820E-2,9.696016312E0,2.662015148E-2,9.696219394E0
5.044808440E-1,-7.597211748E-2,9.693623543E0,9.870393202E-3,9.693926272E0
5.069046460E-1,-6.879365444E-2,9.693623543E0,1.944168471E-2,9.693887143E0
5.093282920E-1,-7.357929647E-2,9.715159416E0,1.944168471E-2,9.715457497E0
5.117517820E-1,-4.965107143E-2,9.693623543E0,9.870393202E-3,9.693755724E0
5.141751150E-1,-4.725824669E-2,9.698409081E0,2.901297435E-2,9.698567615E0
5.165989690E-1,-6.161518395E-2,9.693623543E0,2.662015148E-2,9.693855913E0
5.190221460E-1,-6.161518395E-2,9.715159416E0,3.379862010E-2,9.715413592E0
5.214452710E-1,-3.768695518E-2,9.693623543E0,1.226321608E-2,9.693704559E0
5.238687090E-1,-4.247260094E-2,9.717552185E0,2.422732860E-2,9.717675203E0
5.262919380E-1,-3.529413417E-2,9.707980156E0,2.662015148E-2,9.708080810E0
5.287159480E-1,-4.965107143E-2,9.703194618E0,4.097708687E-2,9.703408172E0
5.311396460E-1,-7.836493850E-2,9.691230774E0,4.576273263E-2,9.691655648E0
5.335633960E-1,-7.597211748E-2,9.712766647E0,3.619144112E-2,9.713131191E0
5.359874070E-1,-5.204389244E-2,9.698409081E0,5.054837838E-2,9.698680446E0
5.384110010E-1,-4.965107143E-2,9.707980156E0,2.662015148E-2,9.708143621E0
5.408347510E-1,-4.725824669E-2,9.710372925E0,1.226321608E-2,9.710495665E0
5.432587090E-1,-5.682953820E-2,9.705587387E0,2.901297435E-2,9.705797127E0
5.456828230E-1,-3.529413417E-2,9.698409081E0,2.991028305E-4,9.698473306E0
5.481059480E-1,-3.768695518E-2,9.724730492E0,-2.093719784E-3,9.724803742E0
5.505299070E-1,-4.965107143E-2,9.688838005E0,5.084747914E-3,9.688966559E0
5.529536050E-1,-1.615155302E-2,9.686445236E0,-1.166501082E-2,9.686465726E0
5.553778760E-1,-1.615155302E-2,9.700801849E0,2.183450572E-2,9.700839868E0
5.578024070E-1,-8.973085321E-3,9.669695854E0,1.704886183E-2,9.669715047E0
5.602262610E-1,-3.768695518E-2,9.700801849E0,1.944168471E-2,9.700894536E0
5.626500110E-1,-3.529413417E-2,9.715159416E0,3.379862010E-2,9.715282317E0
5.650736050E-1,-3.768695518E-2,9.731908798E0,3.379862010E-2,9.732040460E0
5.674976150E-1,-3.529413417E-2,9.712766647E0,5.294119939E-2,9.712975054E0
5.699221460E-1,-3.529413417E-2,9.705587387E0,6.011966988E-2,9.705837758E0
5.723459480E-1,-4.247260094E-2,9.691230774E0,8.404789865E-2,9.691688289E0
5.747700110E-1,-4.007977992E-2,9.705587387E0,7.926224917E-2,9.705993788E0
5.771935530E-1,-4.965107143E-2,9.710372925E0,5.533402413E-2,9.710657517E0
5.796176670E-1,-3.768695518E-2,9.696016312E0,4.815555736E-2,9.696209135E0
5.820413130E-1,-3.768695518E-2,9.722337723E0,4.097708687E-2,9.722497119E0
5.844652190E-1,-4.965107143E-2,9.698409081E0,3.140579537E-2,9.698587023E0
5.868895420E-1,-5.443671346E-2,9.700801849E0,5.084747914E-3,9.700955918E0
5.893132400E-1,-4.486542568E-2,9.691230774E0,1.704886183E-2,9.691349621E0
5.917378230E-1,-5.204389244E-2,9.696016312E0,7.477570791E-3,9.696158868E0
5.941615730E-1,-3.529413417E-2,9.698409081E0,1.465603895E-2,9.698484375E0
5.965853230E-1,-5.443671346E-2,9.710372925E0,1.226321608E-2,9.710533254E0
5.990092300E-1,-4.486542568E-2,9.696016312E0,7.477570791E-3,9.696122995E0
6.014331880E-1,-6.640082598E-2,9.688838005E0,1.944168471E-2,9.689085041E0
6.038566780E-1,-8.075776696E-2,9.710372925E0,1.944168471E-2,9.710728198E0
6.062800630E-1,-8.075776696E-2,9.691230774E0,3.140579537E-2,9.691618134E0
6.087041260E-1,-4.725824669E-2,9.688838005E0,1.704886183E-2,9.688968257E0
6.111280320E-1,-5.682953820E-2,9.686445236E0,4.336991161E-2,9.686709031E0
6.135520940E-1,-6.640082598E-2,9.717552185E0,3.379862010E-2,9.717837819E0
6.159762610E-1,-6.161518395E-2,9.691230774E0,-2.093719784E-3,9.691426867E0
6.184001670E-1,-3.050848842E-2,9.700801849E0,2.662015148E-2,9.700886347E0
6.208240730E-1,-6.879365444E-2,9.707980156E0,2.991028305E-4,9.708223904E0
6.232480320E-1,-6.161518395E-2,9.693623543E0,5.084747914E-3,9.693820695E0
6.256713650E-1,-3.529413417E-2,9.710372925E0,1.226321608E-2,9.710444810E0
6.280948030E-1,-4.965107143E-2,9.729516029E0,-6.879365072E-3,9.729645149E0
6.305186570E-1,-6.161518395E-2,9.715159416E0,9.870393202E-3,9.715359815E0
6.329432920E-1,-3.529413417E-2,9.707980156E0,1.944168471E-2,9.708063780E0
6.353670420E-1,-5.204389244E-2,9.696016312E0,5.084747914E-3,9.696157318E0
6.377905320E-1,-3.290131316E-2,9.700801849E0,1.465603895E-2,9.700868715E0
6.402139690E-1,-4.247260094E-2,9.710372925E0,1.465603895E-2,9.710476871E0
6.426375110E-1,-4.247260094E-2,9.724730492E0,2.901297435E-2,9.724866519E0
6.450616780E-1,-4.247260094E-2,9.724730492E0,2.662015148E-2,9.724859675E0
6.474853230E-1,-2.572284266E-2,9.684052467E0,3.619144112E-2,9.684154257E0
6.499083440E-1,-4.725824669E-2,9.700801849E0,2.662015148E-2,9.700953484E0
6.523317300E-1,-2.811566554E-2,9.710372925E0,2.901297435E-2,9.710456971E0
6.547548030E-1,-4.486542568E-2,9.698409081E0,3.619144112E-2,9.698580382E0
6.571786050E-1,-2.333002165E-2,9.707980156E0,3.619144112E-2,9.708075650E0
6.596027190E-1,-4.247260094E-2,9.724730492E0,9.870393202E-3,9.724828249E0
6.620262610E-1,-5.682953820E-2,9.700801849E0,5.084747914E-3,9.700969641E0
6.644497510E-1,-4.247260094E-2,9.705587387E0,1.944168471E-2,9.705699791E0
6.668741780E-1,-5.682953820E-2,9.693623543E0,3.858426586E-2,9.693866913E0
6.692981360E-1,-5.204389244E-2,9.698409081E0,1.226321608E-2,9.698556472E0
6.717215210E-1,-5.682953820E-2,9.676874161E0,2.422732860E-2,9.677071359E0
6.741454280E-1,-5.204389244E-2,9.712766647E0,3.379862010E-2,9.712964885E0
6.765681880E-1,-4.007977992E-2,9.710372925E0,4.336991161E-2,9.710552491E0
6.789918340E-1,-4.486542568E-2,9.679266930E0,3.140579537E-2,9.679421859E0
6.814160010E-1,-5.204389244E-2,9.710372925E0,2.662015148E-2,9.710548879E0
6.838392300E-1,-2.811566554E-2,9.676874161E0,3.140579537E-2,9.676965968E0
6.862624070E-1,-4.965107143E-2,9.724730492E0,2.183450572E-2,9.724881753E0
6.886850630E-1,-5.204389244E-2,9.710372925E0,7.477570791E-3,9.710515271E0
6.911080320E-1,-6.161518395E-2,9.679266930E0,1.704886183E-2,9.679478054E0
6.935311570E-1,-4.965107143E-2,9.693623543E0,1.465603895E-2,9.693761778E0
6.959538130E-1,-2.093719877E-2,9.691230774E0,-6.879365072E-3,9.691255832E0
6.983765210E-1,-5.922235921E-2,9.703194618E0,-6.879365072E-3,9.703377784E0
7.007996980E-1,-5.204389244E-2,9.691230774E0,-2.093719784E-3,9.691370742E0
7.032233960E-1,-4.247260094E-2,9.691230774E0,-9.272187948E-3,9.691328279E0
7.056476670E-1,-4.725824669E-2,9.700801849E0,5.084747914E-3,9.700918292E0
7.080704280E-1,-3.050848842E-2,9.712766647E0,2.183450572E-2,9.712839104E0
7.104937610E-1,-2.333002165E-2,9.698409081E0,2.691925503E-3,9.698437515E0
7.129171980E-1,-4.965107143E-2,9.703194618E0,1.226321608E-2,9.703329398E0
7.153403230E-1,-5.682953820E-2,9.705587387E0,2.662015148E-2,9.705790270E0
7.177636050E-1,-5.682953820E-2,9.686445236E0,2.662015148E-2,9.686648520E0
7.201868860E-1,-4.965107143E-2,9.693623543E0,-1.166501082E-2,9.693757718E0
7.226105840E-1,-4.486542568E-2,9.681659698E0,2.691925503E-3,9.681764027E0
7.250339690E-1,-5.204389244E-2,9.705587387E0,1.704886183E-2,9.705741896E0
7.274577710E-1,-5.443671346E-2,9.696016312E0,9.870393202E-3,9.696174147E0
7.298822510E-1,-7.118647546E-2,9.703194618E0,5.084747914E-3,9.703457073E0
7.323059480E-1,-7.836493850E-2,9.710372925E0,2.991028305E-4,9.710689136E0
7.347294900E-1,-5.204389244E-2,9.703194618E0,2.422732860E-2,9.703364434E0
7.371531360E-1,-4.725824669E-2,9.688838005E0,2.691925503E-3,9.688953632E0
7.395767820E-1,-5.204389244E-2,9.712766647E0,3.379862010E-2,9.712964885E0
7.420010010E-1,-5.682953820E-2,9.712766647E0,5.054837838E-2,9.713064433E0
7.444247510E-1,-7.118647546E-2,9.696016312E0,1.944168471E-2,9.696297118E0
7.468475630E-1,-5.922235921E-2,9.722337723E0,2.901297435E-2,9.722561382E0
7.492707920E-1,-6.400800496E-2,9.698409081E0,3.140579537E-2,9.698671148E0
7.516947510E-1,-6.640082598E-2,9.707980156E0,3.858426586E-2,9.708283912E0
7.541187090E-1,-3.529413417E-2,9.717552185E0,6.011966988E-2,9.717802247E0
7.565423030E-1,-5.204389244E-2,9.712766647E0,3.140579537E-2,9.712956853E0
7.589652190E-1,-5.443671346E-2,9.707980156E0,4.097708687E-2,9.708219259E0
7.613879800E-1,-4.486542568E-2,9.715159416E0,5.533402413E-2,9.715420590E0
7.638112610E-1,-4.965107143E-2,9.710372925E0,2.662015148E-2,9.710536350E0
7.662344380E-1,-4.247260094E-2,9.688838005E0,5.054837838E-2,9.689062955E0
7.686578760E-1,-4.965107143E-2,9.688838005E0,5.533402413E-2,9.689123230E0
7.710814690E-1,-4.486542568E-2,9.693623543E0,3.619144112E-2,9.693794929E0
7.735053230E-1,-5.204389244E-2,9.696016312E0,4.336991161E-2,9.696252979E0
7.759290210E-1,-1.136590727E-2,9.705587387E0,4.576273263E-2,9.705701929E0
7.783532400E-1,-4.247260094E-2,9.712766647E0,3.379862010E-2,9.712918316E0
7.807773550E-1,-5.922235921E-2,9.717552185E0,2.901297435E-2,9.717775955E0
7.832013130E-1,-4.965107143E-2,9.688838005E0,2.662015148E-2,9.689001793E0
7.856250630E-1,-4.007977992E-2,9.693623543E0,3.140579537E-2,9.693757275E0
7.880488650E-1,-5.204389244E-2,9.707980156E0,5.533402413E-2,9.708277351E0
7.904731880E-1,-4.725824669E-2,9.705587387E0,3.619144112E-2,9.705769917E0
7.928974070E-1,-4.965107143E-2,9.688838005E0,2.901297435E-2,9.689008663E0
7.953212610E-1,-4.007977992E-2,9.688838005E0,2.183450572E-2,9.688945506E0
7.977450110E-1,-4.965107143E-2,9.710372925E0,3.140579537E-2,9.710550648E0
8.001689170E-1,-7.118647546E-2,9.676874161E0,2.901297435E-2,9.677179485E0
8.025932920E-1,-6.400800496E-2,9.684052467E0,3.140579537E-2,9.684314924E0
8.050177190E-1,-7.118647546E-2,9.691230774E0,3.379862010E-2,9.691551154E0
8.074416780E-1,-5.443671346E-2,9.715159416E0,3.858426586E-2,9.715388545E0
8.098659480E-1,-7.118647546E-2,9.698409081E0,5.084747914E-3,9.698671665E0
8.122906360E-1,-5.204389244E-2,9.686445236E0,-1.405783277E-2,9.686595248E0
8.147153760E-1,-5.682953820E-2,9.698409081E0,-1.405783277E-2,9.698585769E0
8.171396980E-1,-7.836493850E-2,9.707980156E0,7.477570791E-3,9.708299320E0
8.195629280E-1,-5.922235921E-2,9.698409081E0,-2.093719784E-3,9.698590123E0
8.219864690E-1,-1.615155302E-2,9.707980156E0,5.084747914E-3,9.707994924E0
8.244105320E-1,-5.204389244E-2,9.686445236E0,2.662015148E-2,9.686621625E0
8.268343860E-1,-3.050848842E-2,9.705587387E0,5.084747914E-3,9.705636669E0
8.292585010E-1,-6.640082598E-2,9.719944954E0,-6.879365072E-3,9.720174191E0
8.316815730E-1,-4.486542568E-2,9.712766647E0,1.704886183E-2,9.712885231E0
8.341053760E-1,-6.161518395E-2,9.693623543E0,2.691925503E-3,9.693819736E0
8.365294900E-1,-1.854437590E-2,9.719944954E0,2.183450572E-2,9.719987168E0
8.389546980E-1,-1.615155302E-2,9.688838005E0,1.226321608E-2,9.688859228E0
8.413790210E-1,-3.050848842E-2,9.705587387E0,7.477570791E-3,9.705638218E0
8.438029800E-1,-4.486542568E-2,9.703194618E0,1.465603895E-2,9.703309410E0
8.462270940E-1,-2.572284266E-2,9.698409081E0,1.465603895E-2,9.698454266E0
8.486503760E-1,-3.290131316E-2,9.705587387E0,2.183450572E-2,9.705667714E0
8.510739690E-1,-6.400800496E-2,9.715159416E0,1.704886183E-2,9.715385230E0
8.534971980E-1,-6.400800496E-2,9.688838005E0,1.704886183E-2,9.689064432E0
8.559211570E-1,-2.811566554E-2,9.684052467E0,1.226321608E-2,9.684101046E0
8.583448030E-1,-3.050848842E-2,9.698409081E0,3.619144112E-2,9.698524593E0
8.607687610E-1,-4.965107143E-2,9.700801849E0,2.422732860E-2,9.700959165E0
8.631924590E-1,-3.529413417E-2,9.731908798E0,4.336991161E-2,9.732069435E0
8.656164690E-1,-2.572284266E-2,9.707980156E0,2.422732860E-2,9.708044465E0
8.680400110E-1,-4.247260094E-2,9.712766647E0,4.097708687E-2,9.712945948E0
8.704636050E-1,-4.965107143E-2,9.693623543E0,4.576273263E-2,9.693858718E0
8.728871460E-1,-4.965107143E-2,9.710372925E0,4.097708687E-2,9.710586321E0
8.753113650E-1,-3.529413417E-2,9.705587387E0,3.858426586E-2,9.705728254E0
8.777349070E-1,-5.922235921E-2,9.717552185E0,5.533402413E-2,9.717890183E0
8.801582920E-1,-6.161518395E-2,9.703194618E0,4.336991161E-2,9.703487166E0
8.825828230E-1,-3.290131316E-2,9.698409081E0,3.619144112E-2,9.698532415E0
8.850068860E-1,-4.965107143E-2,9.717552185E0,2.183450572E-2,9.717703558E0
8.874303760E-1,-4.007977992E-2,9.696016312E0,9.870393202E-3,9.696104173E0
8.898540730E-1,-4.247260094E-2,9.686445236E0,7.477570791E-3,9.686541238E0
8.922775630E-1,-4.965107143E-2,9.696016312E0,1.944168471E-2,9.696162928E0
8.947011570E-1,-4.965107143E-2,9.707980156E0,2.691925503E-3,9.708107498E0
8.971248550E-1,-5.204389244E-2,9.707980156E0,2.691925503E-3,9.708120030E0
8.995484480E-1,-5.682953820E-2,9.707980156E0,1.704886183E-2,9.708161462E0
9.019720420E-1,-6.400800496E-2,9.717552185E0,2.662015148E-2,9.717799449E0
9.043956880E-1,-5.682953820E-2,9.698409081E0,1.944168471E-2,9.698595067E0
9.068193340E-1,-5.682953820E-2,9.724730492E0,2.422732860E-2,9.724926719E0
9.092426670E-1,-5.682953820E-2,9.719944954E0,1.704886183E-2,9.720126037E0
9.116667820E-1,-5.443671346E-2,9.712766647E0,1.226321608E-2,9.712926937E0
9.140911570E-1,-5.682953820E-2,9.686445236E0,2.901297435E-2,9.686655391E0
9.165153760E-1,-5.204389244E-2,9.691230774E0,1.465603895E-2,9.691381598E0
9.189396460E-1,-4.725824669E-2,9.727123260E0,9.870393202E-3,9.727243067E0
9.213635530E-1,-3.768695518E-2,9.707980156E0,7.477570791E-3,9.708056187E0
9.237870940E-1,-4.725824669E-2,9.703194618E0,1.704886183E-2,9.703324678E0
9.262107920E-1,-7.836493850E-2,9.703194618E0,2.662015148E-2,9.703547573E0
9.286350630E-1,-3.529413417E-2,9.717552185E0,3.858426586E-2,9.717692879E0
9.310586050E-1,-5.204389244E-2,9.705587387E0,3.379862010E-2,9.705785771E0
9.334819900E-1,-6.400800496E-2,9.707980156E0,2.901297435E-2,9.708234519E0
9.359054280E-1,-5.922235921E-2,9.686445236E0,1.704886183E-2,9.686641279E0
9.383291260E-1,-3.050848842E-2,9.719944954E0,5.084747914E-3,9.719994163E0
9.407535010E-1,-3.050848842E-2,9.684052467E0,7.477570791E-3,9.684103411E0
9.431773550E-1,-4.247260094E-2,9.700801849E0,1.465603895E-2,9.700905898E0
9.456016260E-1,-8.315058798E-2,9.681659698E0,2.183450572E-2,9.682041380E0
9.480254800E-1,-3.050848842E-2,9.712766647E0,4.097708687E-2,9.712901000E0
9.504497510E-1,-4.725824669E-2,9.715159416E0,2.662015148E-2,9.715310827E0
9.528730320E-1,-8.554340899E-2,9.712766647E0,4.336991161E-2,9.713240168E0
9.552965730E-1,-3.768695518E-2,9.712766647E0,5.294119939E-2,9.712984043E0
9.577203230E-1,-4.247260094E-2,9.705587387E0,4.576273263E-2,9.705788205E0
9.601441260E-1,-6.161518395E-2,9.712766647E0,4.815555736E-2,9.713081454E0
9.625684480E-1,-5.204389244E-2,9.715159416E0,4.097708687E-2,9.715385230E0
9.649923030E-1,-5.204389244E-2,9.719944954E0,3.619144112E-2,9.720151660E0
9.674161050E-1,-4.725824669E-2,9.707980156E0,2.183450572E-2,9.708119735E0
9.698397510E-1,-6.400800496E-2,9.703194618E0,2.662015148E-2,9.703442248E0
9.722628230E-1,-4.725824669E-2,9.715159416E0,2.901297435E-2,9.715317678E0
9.746863650E-1,-5.922235921E-2,9.705587387E0,2.183450572E-2,9.705792629E0
9.771096460E-1,-7.118647546E-2,9.719944954E0,5.294119939E-2,9.720349798E0
9.795333440E-1,-5.922235921E-2,9.717552185E0,1.944168471E-2,9.717752093E0
9.819569380E-1,-4.725824669E-2,9.684052467E0,4.097708687E-2,9.684254471E0
9.843805840E-1,-4.725824669E-2,9.691230774E0,3.379862010E-2,9.691404934E0
9.868041260E-1,-4.725824669E-2,9.688838005E0,1.944168471E-2,9.688972763E0
9.892281360E-1,-6.640082598E-2,9.693623543E0,2.183450572E-2,9.693875551E0
9.916527190E-1,-5.922235921E-2,9.693623543E0,2.422732860E-2,9.693834723E0
9.940766260E-1,-5.682953820E-2,9.688838005E0,1.944168471E-2,9.689024175E0
9.965002710E-1,-4.725824669E-2,9.717552185E0,2.662015148E-2,9.717703558E0
9.989241780E-1,-5.922235921E-2,9.734301567E0,2.901297435E-2,9.734524952E0
1.001347459E0,-6.161518395E-2,9.705587387E0,1.226321608E-2,9.705790712E0
1.003771313E0,-4.247260094E-2,9.691230774E0,2.691925503E-3,9.691324217E0
1.006195376E0,-4.007977992E-2,9.705587387E0,-4.486542661E-3,9.705671180E0
1.008619073E0,-5.682953820E-2,9.715159416E0,7.477570791E-3,9.715328507E0
1.011042719E0,-4.007977992E-2,9.707980156E0,1.226321608E-2,9.708070637E0
1.013466834E0,-4.725824669E-2,9.691230774E0,-2.093719784E-3,9.691346224E0
1.015890636E0,-3.050848842E-2,9.700801849E0,-2.093719784E-3,9.700850049E0
1.018314126E0,-5.443671346E-2,9.688838005E0,1.465603895E-2,9.689002015E0
1.020738292E0,-3.529413417E-2,9.710372925E0,2.991028305E-4,9.710437071E0
1.023161157E0,-4.965107143E-2,9.681659698E0,1.704886183E-2,9.681802023E0
1.025584751E0,-4.486542568E-2,9.684052467E0,9.870393202E-3,9.684161426E0
1.028008240E0,-6.161518395E-2,9.693623543E0,2.662015148E-2,9.693855913E0
1.030431834E0,-5.682953820E-2,9.717552185E0,7.477570791E-3,9.717721234E0
1.032855532E0,-5.443671346E-2,9.710372925E0,9.870393202E-3,9.710530527E0
1.035279282E0,-4.007977992E-2,9.696016312E0,7.477570791E-3,9.696102032E0
1.037702823E0,-5.443671346E-2,9.700801849E0,2.662015148E-2,9.700991110E0
1.040126001E0,-6.640082598E-2,9.705587387E0,4.336991161E-2,9.705911423E0
1.042549959E0,-4.725824669E-2,9.700801849E0,2.901297435E-2,9.700960345E0
1.044973501E0,-1.615155302E-2,9.715159416E0,6.729813665E-2,9.715405930E0
1.047396990E0,-5.204389244E-2,9.693623543E0,3.619144112E-2,9.693830810E0
1.049819959E0,-5.443671346E-2,9.707980156E0,4.576273263E-2,9.708240638E0
1.052243761E0,-2.572284266E-2,9.707980156E0,2.422732860E-2,9.708044465E0
1.054667928E0,-4.007977992E-2,9.696016312E0,1.704886183E-2,9.696114138E0
1.057091521E0,-6.161518395E-2,9.710372925E0,7.477570791E-3,9.710571285E0
1.059514698E0,-3.529413417E-2,9.710372925E0,-9.272187948E-3,9.710441493E0
1.061938188E0,-3.768695518E-2,9.684052467E0,1.465603895E-2,9.684136890E0
1.064361469E0,-4.965107143E-2,9.688838005E0,1.465603895E-2,9.688976309E0
1.066784230E0,-5.204389244E-2,9.698409081E0,1.226321608E-2,9.698556472E0
1.069206782E0,-6.161518395E-2,9.681659698E0,5.084747914E-3,9.681857095E0
1.071630219E0,-5.204389244E-2,9.705587387E0,3.140579537E-2,9.705777734E0
1.074053969E0,-5.204389244E-2,9.722337723E0,4.336991161E-2,9.722573749E0
1.076477094E0,-4.725824669E-2,9.705587387E0,3.858426586E-2,9.705779135E0
1.078899751E0,-6.400800496E-2,9.712766647E0,3.140579537E-2,9.713028328E0
1.081323240E0,-5.443671346E-2,9.688838005E0,1.944168471E-2,9.689010436E0
1.083746417E0,-4.247260094E-2,9.727123260E0,2.662015148E-2,9.727252412E0
1.086170063E0,-5.443671346E-2,9.712766647E0,3.619144112E-2,9.712986622E0
1.088593553E0,-4.725824669E-2,9.703194618E0,-2.093719784E-3,9.703309926E0
1.091016886E0,-7.357929647E-2,9.707980156E0,1.704886183E-2,9.708273960E0
1.093441001E0,-5.443671346E-2,9.691230774E0,3.379862010E-2,9.691442597E0
1.095865011E0,-7.597211748E-2,9.691230774E0,1.465603895E-2,9.691539634E0
1.098288813E0,-5.204389244E-2,9.696016312E0,-4.486542661E-3,9.696157023E0
1.100712459E0,-5.204389244E-2,9.688838005E0,1.226321608E-2,9.688985542E0
1.103135896E0,-5.922235921E-2,9.696016312E0,1.226321608E-2,9.696204927E0
1.105559230E0,-7.118647546E-2,9.691230774E0,-1.884347759E-2,9.691510538E0
1.107982667E0,-3.529413417E-2,9.712766647E0,2.691925503E-3,9.712831146E0
1.110406157E0,-2.811566554E-2,9.703194618E0,1.226321608E-2,9.703243101E0
1.112829490E0,-1.375873014E-2,9.705587387E0,1.465603895E-2,9.705608205E0
1.115253084E0,-3.290131316E-2,9.691230774E0,3.140579537E-2,9.691337510E0
1.117677094E0,-4.247260094E-2,9.691230774E0,2.901297435E-2,9.691367271E0
1.120100948E0,-3.290131316E-2,9.698409081E0,1.704886183E-2,9.698479873E0
1.122525376E0,-6.400800496E-2,9.696016312E0,4.815555736E-2,9.696347163E0
1.124949282E0,-4.486542568E-2,9.693623543E0,5.294119939E-2,9.693871934E0
1.127373605E0,-5.682953820E-2,9.684052467E0,9.870393202E-3,9.684224244E0
1.129798501E0,-4.965107143E-2,9.686445236E0,4.336991161E-2,9.686669577E0
1.132223084E0,-4.725824669E-2,9.707980156E0,2.662015148E-2,9.708131678E0
1.134647303E0,-4.486542568E-2,9.684052467E0,2.662015148E-2,9.684192983E0
1.137071261E0,-5.204389244E-2,9.710372925E0,3.619144112E-2,9.710579835E0
1.139495011E0,-2.333002165E-2,9.688838005E0,3.379862010E-2,9.688925045E0
1.141918865E0,-4.965107143E-2,9.698409081E0,1.226321608E-2,9.698543927E0
1.144342980E0,-5.443671346E-2,9.703194618E0,9.870393202E-3,9.703352337E0
1.146767042E0,-4.007977992E-2,9.703194618E0,2.183450572E-2,9.703301960E0
1.149190584E0,-4.486542568E-2,9.681659698E0,2.662015148E-2,9.681800249E0
1.151614386E0,-3.768695518E-2,9.703194618E0,3.140579537E-2,9.703318630E0
1.154038344E0,-2.333002165E-2,9.693623543E0,2.662015148E-2,9.693688169E0
1.156461834E0,-4.486542568E-2,9.715159416E0,4.815555736E-2,9.715382357E0
1.158884855E0,-3.290131316E-2,9.705587387E0,3.858426586E-2,9.705719848E0
1.161308396E0,-5.443671346E-2,9.679266930E0,2.901297435E-2,9.679463487E0
1.163731834E0,-3.768695518E-2,9.705587387E0,1.704886183E-2,9.705675530E0
1.166155323E0,-5.682953820E-2,9.710372925E0,3.379862010E-2,9.710598039E0
1.168578865E0,-5.443671346E-2,9.691230774E0,2.901297435E-2,9.691427089E0
1.171002407E0,-3.290131316E-2,9.707980156E0,1.944168471E-2,9.708055376E0
1.173426261E0,-4.965107143E-2,9.700801849E0,2.422732860E-2,9.700959165E0
1.175850063E0,-7.118647546E-2,9.684052467E0,4.336991161E-2,9.684411219E0
1.178273969E0,-5.682953820E-2,9.700801849E0,4.576273263E-2,9.701076247E0
1.180698032E0,-6.640082598E-2,9.693623543E0,3.858426586E-2,9.693927749E0
1.183122042E0,-4.007977992E-2,9.684052467E0,2.422732860E-2,9.684165712E0
1.185546469E0,-3.768695518E-2,9.686445236E0,1.704886183E-2,9.686533554E0
1.187969855E0,-6.640082598E-2,9.691230774E0,2.662015148E-2,9.691494808E0
1.190393344E0,-5.204389244E-2,9.707980156E0,2.422732860E-2,9.708149888E0
1.192817303E0,-4.965107143E-2,9.703194618E0,3.379862010E-2,9.703380513E0
1.195241053E0,-6.161518395E-2,9.703194618E0,3.379862010E-2,9.703449107E0
1.197664751E0,-5.922235921E-2,9.703194618E0,2.662015148E-2,9.703411860E0
1.200088969E0,-3.768695518E-2,9.705587387E0,2.422732860E-2,9.705690794E0
1.202512615E0,-4.725824669E-2,9.691230774E0,2.691925503E-3,9.691346372E0
1.204936365E0,-4.486542568E-2,9.710372925E0,2.422732860E-2,9.710506795E0
1.207360167E0,-8.315058798E-2,9.710372925E0,-2.093719784E-3,9.710729156E0
1.209784073E0,-3.768695518E-2,9.700801849E0,-1.166501082E-2,9.700882068E0
1.212208032E0,-4.725824669E-2,9.700801849E0,-6.879365072E-3,9.700919399E0
1.214631313E0,-5.443671346E-2,9.688838005E0,-4.486542661E-3,9.688991969E0
1.217055219E0,-4.965107143E-2,9.710372925E0,-6.879365072E-3,9.710502299E0
1.219478709E0,-4.486542568E-2,9.729516029E0,3.379862010E-2,9.729678177E0
1.221902094E0,-3.050848842E-2,9.710372925E0,1.465603895E-2,9.710431911E0
1.224326105E0,-6.879365444E-2,9.667302132E0,2.183450572E-2,9.667571557E0
1.226749646E0,-4.486542568E-2,9.693623543E0,1.704886183E-2,9.693742361E0
1.229172771E0,-6.400800496E-2,9.679266930E0,3.619144112E-2,9.679546226E0
1.231596626E0,-5.682953820E-2,9.715159416E0,4.336991161E-2,9.715422432E0
1.234019855E0,-3.050848842E-2,9.693623543E0,1.704886183E-2,9.693686544E0
1.236443084E0,-4.007977992E-2,9.688838005E0,5.084747914E-3,9.688922238E0
1.238867198E0,-5.682953820E-2,9.691230774E0,2.691925503E-3,9.691397771E0
1.241291626E0,-3.050848842E-2,9.688838005E0,-2.093719784E-3,9.688886264E0
1.243715532E0,-5.922235921E-2,9.707980156E0,5.084747914E-3,9.708162125E0
1.246139073E0,-3.768695518E-2,9.707980156E0,5.084747914E-3,9.708054639E0
1.248562511E0,-5.204389244E-2,9.684052467E0,2.422732860E-2,9.684222618E0
1.250986001E0,-3.290131316E-2,9.686445236E0,3.619144112E-2,9.686568723E0
1.253410011E0,-3.768695518E-2,9.688838005E0,3.379862010E-2,9.688970252E0
1.255833761E0,-4.247260094E-2,9.705587387E0,5.772684515E-2,9.705851989E0
1.258257563E0,-4.965107143E-2,9.705587387E0,4.815555736E-2,9.705833850E0
1.260681157E0,-3.050848842E-2,9.686445236E0,7.208377868E-2,9.686761489E0
1.263105376E0,-4.247260094E-2,9.703194618E0,4.097708687E-2,9.703374096E0
1.265529126E0,-4.965107143E-2,9.691230774E0,4.097708687E-2,9.691444591E0
1.267953136E0,-6.640082598E-2,9.696016312E0,4.576273263E-2,9.696351665E0
1.270376313E0,-6.161518395E-2,9.693623543E0,3.379862010E-2,9.693878283E0
1.272799594E0,-4.007977992E-2,9.700801849E0,1.944168471E-2,9.700904127E0
1.275222407E0,-6.640082598E-2,9.674481392E0,1.226321608E-2,9.674717032E0
1.277645532E0,-6.640082598E-2,9.700801849E0,1.704886183E-2,9.701044081E0
1.280068396E0,-4.965107143E-2,9.710372925E0,2.691925503E-3,9.710500235E0
1.282491678E0,-2.572284266E-2,9.722337723E0,9.870393202E-3,9.722376761E0
1.284915636E0,-2.572284266E-2,9.703194618E0,1.704886183E-2,9.703243691E0
1.287339751E0,-4.965107143E-2,9.696016312E0,2.991028305E-4,9.696143441E0
1.289762459E0,-4.486542568E-2,9.719944954E0,2.183450572E-2,9.720073022E0
1.292186001E0,-6.400800496E-2,9.688838005E0,1.704886183E-2,9.689064432E0
1.294610688E0,-5.204389244E-2,9.707980156E0,3.379862010E-2,9.708178491E0
1.297034178E0,-5.682953820E-2,9.705587387E0,1.704886183E-2,9.705768738E0
1.299457667E0,-6.400800496E-2,9.696016312E0,3.140579537E-2,9.696278444E0
1.301881313E0,-5.204389244E-2,9.700801849E0,2.183450572E-2,9.700966026E0
1.304305792E0,-4.965107143E-2,9.700801849E0,2.991028305E-4,9.700928916E0
1.306729646E0,-5.204389244E-2,9.715159416E0,2.691925503E-3,9.715299187E0
1.309153188E0,-3.768695518E-2,9.681659698E0,-2.123630047E-2,9.681756339E0
1.311576730E0,-3.768695518E-2,9.693623543E0,-2.093719784E-3,9.693697028E0
1.314000376E0,-5.204389244E-2,9.693623543E0,-4.486542661E-3,9.693764289E0
1.316424334E0,-5.443671346E-2,9.691230774E0,7.477570791E-3,9.691386546E0
1.318847876E0,-6.400800496E-2,9.686445236E0,-9.272187948E-3,9.686661154E0
1.321271105E0,-4.486542568E-2,9.686445236E0,2.691925503E-3,9.686549513E0
1.323695271E0,-5.443671346E-2,9.712766647E0,1.465603895E-2,9.712930253E0
1.326119386E0,-4.486542568E-2,9.693623543E0,5.084747914E-3,9.693728702E0
1.328543084E0,-4.486542568E-2,9.707980156E0,1.465603895E-2,9.708094891E0
1.330966938E0,-6.161518395E-2,9.686445236E0,3.140579537E-2,9.686692112E0
1.333390948E0,-5.204389244E-2,9.696016312E0,4.576273263E-2,9.696263977E0
1.335814751E0,-1.375873014E-2,9.700801849E0,2.183450572E-2,9.700836179E0
1.338238292E0,-2.333002165E-2,9.700801849E0,1.944168471E-2,9.700849385E0
1.340661938E0,-4.486542568E-2,9.698409081E0,1.704886183E-2,9.698527840E0
1.343085636E0,-5.682953820E-2,9.696016312E0,2.422732860E-2,9.696213120E0
1.345509490E0,-5.922235921E-2,9.693623543E0,2.183450572E-2,9.693829038E0
1.347932928E0,-3.768695518E-2,9.684052467E0,-4.486542661E-3,9.684126839E0
1.350356678E0,-2.572284266E-2,9.710372925E0,5.084747914E-3,9.710408326E0
1.352780428E0,-2.811566554E-2,9.698409081E0,-2.093719784E-3,9.698450060E0
1.355204959E0,-2.093719877E-2,9.703194618E0,1.465603895E-2,9.703228275E0
1.357628813E0,-3.529413417E-2,9.693623543E0,2.662015148E-2,9.693724346E0
1.360052303E0,-4.007977992E-2,9.719944954E0,9.870393202E-3,9.720032599E0
1.362476417E0,-3.768695518E-2,9.693623543E0,1.465603895E-2,9.693707882E0
1.364900688E0,-1.136590727E-2,9.691230774E0,3.140579537E-2,9.691288326E0
1.367324907E0,-7.836493850E-2,9.693623543E0,2.422732860E-2,9.693970570E0
1.369748917E0,-5.204389244E-2,9.684052467E0,2.662015148E-2,9.684228900E0
1.372173396E0,-6.161518395E-2,9.719944954E0,3.140579537E-2,9.720190979E0
1.374598084E0,-4.965107143E-2,9.705587387E0,1.704886183E-2,9.705729361E0
1.377022407E0,-5.922235921E-2,9.703194618E0,2.901297435E-2,9.703418719E0
1.379445740E0,-3.768695518E-2,9.707980156E0,2.183450572E-2,9.708077861E0
1.381869386E0,-5.204389244E-2,9.700801849E0,3.858426586E-2,9.701018185E0
1.384292876E0,-5.204389244E-2,9.693623543E0,2.901297435E-2,9.693806668E0
1.386716417E0,-6.161518395E-2,9.717552185E0,2.901297435E-2,9.717790832E0
1.389140271E0,-4.725824669E-2,9.722337723E0,3.140579537E-2,9.722503302E0
1.391564021E0,-7.357929647E-2,9.703194618E0,1.944168471E-2,9.703493066E0
1.393988344E0,-4.007977992E-2,9.698409081E0,1.226321608E-2,9.698499650E0
1.396412303E0,-5.204389244E-2,9.686445236E0,7.477570791E-3,9.686587934E0
1.398836105E0,-5.443671346E-2,9.710372925E0,7.477570791E-3,9.710528390E0
1.401260167E0,-6.879365444E-2,9.703194618E0,1.944168471E-2,9.703457958E0
1.403684282E0,-8.075776696E-2,9.703194618E0,1.465603895E-2,9.703541746E0
1.406108448E0,-5.204389244E-2,9.688838005E0,1.704886183E-2,9.688992781E0
1.408532459E0,-3.768695518E-2,9.696016312E0,1.944168471E-2,9.696109044E0
1.410956573E0,-5.682953820E-2,9.681659698E0,3.140579537E-2,9.681877423E0
1.413379855E0,-5.922235921E-2,9.688838005E0,3.619144112E-2,9.689086592E0
1.415803657E0,-4.725824669E-2,9.691230774E0,2.422732860E-2,9.691376281E0
1.418227355E0,-2.333002165E-2,9.693623543E0,2.422732860E-2,9.693681893E0
1.420650844E0,-5.922235921E-2,9.743872643E0,2.662015148E-2,9.744088977E0
1.423074386E0,-6.879365444E-2,9.710372925E0,1.226321608E-2,9.710624351E0
1.425498344E0,-5.443671346E-2,9.693623543E0,-9.272187948E-3,9.693780827E0
1.427922146E0,-4.247260094E-2,9.693623543E0,-4.486542661E-3,9.693717627E0
1.430345740E0,-4.007977992E-2,9.674481392E0,1.226321608E-2,9.674572186E0
1.432769386E0,-5.922235921E-2,9.698409081E0,1.465603895E-2,9.698600970E0
1.435193084E0,-5.922235921E-2,9.684052467E0,1.226321608E-2,9.684241316E0
1.437616261E0,-6.161518395E-2,9.707980156E0,3.140579537E-2,9.708226484E0
1.440039855E0,-5.443671346E-2,9.700801849E0,2.901297435E-2,9.700997971E0
1.442463865E0,-6.640082598E-2,9.715159416E0,4.336991161E-2,9.715483133E0
1.444887719E0,-4.725824669E-2,9.693623543E0,4.815555736E-2,9.693858349E0
1.447311834E0,-3.290131316E-2,9.722337723E0,3.140579537E-2,9.722444117E0
1.449735584E0,-4.486542568E-2,9.693623543E0,3.619144112E-2,9.693794929E0
1.452159594E0,-5.682953820E-2,9.696016312E0,1.704886183E-2,9.696197841E0
1.454583448E0,-4.486542568E-2,9.698409081E0,2.422732860E-2,9.698543115E0
1.457007146E0,-4.725824669E-2,9.684052467E0,2.991028305E-4,9.684167782E0
1.459431001E0,-4.007977992E-2,9.676874161E0,-4.486542661E-3,9.676958202E0
1.461855115E0,-3.290131316E-2,9.698409081E0,-6.879365072E-3,9.698467328E0
1.464278969E0,-4.247260094E-2,9.691230774E0,2.691925503E-3,9.691324217E0
1.466702615E0,-2.572284266E-2,9.696016312E0,2.991028305E-4,9.696050437E0
1.469126157E0,-4.486542568E-2,9.679266930E0,1.465603895E-2,9.679382005E0
1.471550063E0,-6.640082598E-2,9.703194618E0,-6.879365072E-3,9.703424251E0
1.473974334E0,-5.682953820E-2,9.691230774E0,9.870393202E-3,9.691402424E0
1.476398032E0,-6.879365444E-2,9.703194618E0,9.870393202E-3,9.703443502E0
1.478821469E0,-4.007977992E-2,9.700801849E0,2.691925503E-3,9.700885019E0
1.481245323E0,-5.204389244E-2,9.710372925E0,2.183450572E-2,9.710536939E0
1.483669178E0,-3.290131316E-2,9.696016312E0,-4.486542661E-3,9.696073171E0
1.486092511E0,-2.811566554E-2,9.688838005E0,2.691925503E-3,9.688879173E0
1.488516053E0,-4.486542568E-2,9.688838005E0,2.422732860E-2,9.688972172E0
1.490940011E0,-4.725824669E-2,9.710372925E0,7.477570791E-3,9.710490801E0
1.493364230E0,-5.443671346E-2,9.700801849E0,1.704886183E-2,9.700969567E0
1.495787719E0,-5.443671346E-2,9.712766647E0,5.084747914E-3,9.712920527E0
1.498211313E0,-5.204389244E-2,9.712766647E0,1.944168471E-2,9.712925537E0
1.500635532E0,-3.290131316E-2,9.707980156E0,2.901297435E-2,9.708079262E0
1.503060063E0,-2.811566554E-2,9.727123260E0,3.619144112E-2,9.727231221E0
1.505484178E0,-4.965107143E-2,9.712766647E0,4.815555736E-2,9.713012928E0
1.507907928E0,-4.247260094E-2,9.686445236E0,5.533402413E-2,9.686696397E0
1.510331573E0,-4.725824669E-2,9.705587387E0,4.576273263E-2,9.705810327E0
1.512755480E0,-4.486542568E-2,9.684052467E0,3.140579537E-2,9.684207320E0
1.515179490E0,-5.682953820E-2,9.710372925E0,4.815555736E-2,9.710658623E0
1.517602563E0,-5.443671346E-2,9.696016312E0,2.991028305E-4,9.696169128E0
1.520026678E0,-3.768695518E-2,9.710372925E0,1.465603895E-2,9.710457118E0
1.522451001E0,-4.486542568E-2,9.703194618E0,2.691925503E-3,9.703298715E0
1.524875167E0,-4.007977992E-2,9.705587387E0,2.662015148E-2,9.705706649E0
1.527298813E0,-6.400800496E-2,9.707980156E0,9.870393202E-3,9.708196185E0
1.529722407E0,-8.315058798E-2,9.710372925E0,1.944168471E-2,9.710748392E0
1.532145896E0,-6.879365444E-2,9.712766647E0,1.944168471E-2,9.713029728E0
1.534569282E0,-5.204389244E-2,9.696016312E0,5.084747914E-3,9.696157318E0
1.536993657E0,-3.050848842E-2,9.715159416E0,2.183450572E-2,9.715231855E0
1.539416990E0,-3.768695518E-2,9.698409081E0,3.619144112E-2,9.698549831E0
1.541840167E0,-5.204389244E-2,9.693623543E0,4.097708687E-2,9.693849858E0
1.544263501E0,-5.204389244E-2,9.698409081E0,3.858426586E-2,9.698625470E0
1.546687563E0,-2.572284266E-2,9.703194618E0,4.576273263E-2,9.703336627E0
1.549110740E0,-3.768695518E-2,9.686445236E0,3.140579537E-2,9.686569462E0
1.551534126E0,-5.682953820E-2,9.703194618E0,2.662015148E-2,9.703397551E0
1.553958292E0,-3.768695518E-2,9.698409081E0,1.226321608E-2,9.698490057E0
1.556382146E0,-5.204389244E-2,9.707980156E0,-9.272187948E-3,9.708124085E0
1.558805896E0,-5.443671346E-2,9.688838005E0,-9.272187948E-3,9.688995367E0
1.561230115E0,-4.247260094E-2,9.729516029E0,-2.093719784E-3,9.729608958E0
1.563653865E0,-3.529413417E-2,9.698409081E0,2.991028305E-4,9.698473306E0
1.566077459E0,-4.486542568E-2,9.705587387E0,-1.166501082E-2,9.705698095E0
1.568501417E0,-4.725824669E-2,9.700801849E0,-1.405783277E-2,9.700927146E0
1.570925167E0,-4.007977992E-2,9.696016312E0,7.477570791E-3,9.696102032E0
1.573349334E0,-5.922235921E-2,9.691230774E0,1.226321608E-2,9.691419483E0
1.575772980E0,-4.486542568E-2,9.693623543E0,2.691925503E-3,9.693727742E0
1.578196313E0,-5.443671346E-2,9.710372925E0,9.870393202E-3,9.710530527E0
1.580619542E0,-5.204389244E-2,9.705587387E0,1.465603895E-2,9.705737988E0
1.583042719E0,-4.965107143E-2,9.688838005E0,2.662015148E-2,9.689001793E0
1.585466678E0,-4.247260094E-2,9.693623543E0,9.870393202E-3,9.693721614E0
1.587890584E0,-5.682953820E-2,9.691230774E0,9.870393202E-3,9.691402424E0
1.590314021E0,-1.615155302E-2,9.684052467E0,1.465603895E-2,9.684077027E0
1.592737667E0,-3.529413417E-2,9.691230774E0,-9.272187948E-3,9.691299478E0
1.595161782E0,-3.768695518E-2,9.686445236E0,1.704886183E-2,9.686533554E0
1.597586001E0,-3.768695518E-2,9.691230774E0,-2.093719784E-3,9.691304278E0
1.600009490E0,-1.854437590E-2,9.710372925E0,1.465603895E-2,9.710401693E0
1.602433709E0,-3.529413417E-2,9.724730492E0,2.422732860E-2,9.724824717E0
1.604857407E0,-4.247260094E-2,9.719944954E0,2.183450572E-2,9.720062272E0
1.607281469E0,-4.725824669E-2,9.696016312E0,2.422732860E-2,9.696161747E0
1.609705740E0,-5.443671346E-2,9.710372925E0,2.991028305E-4,9.710525515E0
1.612129386E0,-3.768695518E-2,9.710372925E0,2.901297435E-2,9.710489401E0
1.614553448E0,-4.725824669E-2,9.710372925E0,1.704886183E-2,9.710502888E0
1.616977303E0,-5.443671346E-2,9.707980156E0,7.477570791E-3,9.708135659E0
1.619401053E0,-5.443671346E-2,9.717552185E0,1.944168471E-2,9.717724106E0
1.621825115E0,-6.400800496E-2,9.707980156E0,2.662015148E-2,9.708227663E0
1.624249178E0,-5.443671346E-2,9.688838005E0,1.704886183E-2,9.689005930E0
1.626673292E0,-3.290131316E-2,9.710372925E0,1.226321608E-2,9.710436407E0
1.629097511E0,-6.161518395E-2,9.696016312E0,1.704886183E-2,9.696227071E0
1.631521730E0,-4.247260094E-2,9.698409081E0,3.619144112E-2,9.698569608E0
1.633946105E0,-6.879365444E-2,9.700801849E0,4.097708687E-2,9.701132316E0
1.636370636E0,-6.879365444E-2,9.703194618E0,4.336991161E-2,9.703535403E0
1.638794594E0,-7.357929647E-2,9.710372925E0,5.533402413E-2,9.710809344E0
1.641218501E0,-7.597211748E-2,9.707980156E0,3.858426586E-2,9.708354094E0
1.643642459E0,-6.640082598E-2,9.710372925E0,5.533402413E-2,9.710757605E0
1.646067042E0,-4.965107143E-2,9.710372925E0,3.858426586E-2,9.710576518E0
1.648491105E0,-4.725824669E-2,9.688838005E0,4.815555736E-2,9.689072927E0
1.650915428E0,-4.007977992E-2,9.693623543E0,2.183450572E-2,9.693730991E0
1.653339594E0,-3.529413417E-2,9.691230774E0,1.944168471E-2,9.691314543E0
1.655764542E0,-5.682953820E-2,9.703194618E0,1.944168471E-2,9.703380513E0
1.658188813E0,-5.922235921E-2,9.696016312E0,5.084747914E-3,9.696198506E0
1.660612615E0,-6.400800496E-2,9.707980156E0,7.477570791E-3,9.708194047E0
1.663036313E0,-4.965107143E-2,9.710372925E0,5.084747914E-3,9.710501193E0
1.665459334E0,-3.050848842E-2,9.734301567E0,5.084747914E-3,9.734350704E0
1.667883657E0,-4.486542568E-2,9.729516029E0,2.691925503E-3,9.729619844E0
1.670307876E0,-5.204389244E-2,9.715159416E0,2.691925503E-3,9.715299187E0
1.672731782E0,-3.529413417E-2,9.698409081E0,1.944168471E-2,9.698492787E0
1.675155428E0,-4.965107143E-2,9.705587387E0,3.140579537E-2,9.705765198E0
1.677579386E0,-2.811566554E-2,9.722337723E0,9.870393202E-3,9.722383386E0
1.680003344E0,-2.572284266E-2,9.691230774E0,7.477570791E-3,9.691267796E0
1.682427407E0,-3.768695518E-2,9.710372925E0,1.226321608E-2,9.710453802E0
1.684851990E0,-2.811566554E-2,9.696016312E0,2.991028305E-4,9.696057080E0
1.687275844E0,-4.007977992E-2,9.691230774E0,5.084747914E-3,9.691314986E0
1.689700063E0,-3.050848842E-2,9.707980156E0,-2.093719784E-3,9.708028320E0
1.692124230E0,-2.333002165E-2,9.707980156E0,-2.093719784E-3,9.708008415E0
1.694548084E0,-3.768695518E-2,9.693623543E0,-2.093719784E-3,9.693697028E0
1.696971573E0,-4.965107143E-2,9.693623543E0,7.477570791E-3,9.693753583E0
1.699395896E0,-4.486542568E-2,9.700801849E0,9.870393202E-3,9.700910620E0
1.701819855E0,-5.922235921E-2,9.705587387E0,7.477570791E-3,9.705770950E0
1.704243761E0,-3.529413417E-2,9.710372925E0,2.691925503E-3,9.710437439E0
1.706667615E0,-5.682953820E-2,9.707980156E0,1.704886183E-2,9.708161462E0
1.709091626E0,-4.486542568E-2,9.696016312E0,3.140579537E-2,9.696170973E0
1.711515740E0,-5.922235921E-2,9.684052467E0,3.858426586E-2,9.684310415E0
1.713939855E0,-4.725824669E-2,9.705587387E0,1.944168471E-2,9.705721913E0
1.716363865E0,-7.118647546E-2,9.698409081E0,2.901297435E-2,9.698713727E0
1.718788136E0,-4.725824669E-2,9.705587387E0,9.870393202E-3,9.705707460E0
1.721212198E0,-5.682953820E-2,9.700801849E0,2.183450572E-2,9.700992880E0
1.723635376E0,-4.486542568E-2,9.712766647E0,5.533402413E-2,9.713027886E0
1.726058969E0,-5.204389244E-2,9.719944954E0,4.815555736E-2,9.720203569E0
1.728482719E0,-4.725824669E-2,9.696016312E0,3.140579537E-2,9.696182341E0
1.730906365E0,-7.357929647E-2,9.700801849E0,1.944168471E-2,9.701100371E0
1.733330063E0,-4.247260094E-2,9.712766647E0,-2.093719784E-3,9.712859736E0
1.735754021E0,-5.204389244E-2,9.727123260E0,2.691925503E-3,9.727262860E0
1.738177615E0,-4.247260094E-2,9.707980156E0,2.991028305E-4,9.708073069E0
1.740600740E0,-4.007977992E-2,9.700801849E0,1.944168471E-2,9.700904127E0
1.743024803E0,-4.007977992E-2,9.684052467E0,1.226321608E-2,9.684143171E0
1.745448292E0,-7.118647546E-2,9.707980156E0,1.226321608E-2,9.708248895E0
1.747872251E0,-6.161518395E-2,9.707980156E0,2.901297435E-2,9.708219038E0
1.750295740E0,-4.247260094E-2,9.688838005E0,2.183450572E-2,9.688955700E0
1.752719230E0,-4.725824669E-2,9.698409081E0,1.944168471E-2,9.698543706E0
1.755142511E0,-3.290131316E-2,9.717552185E0,1.465603895E-2,9.717618935E0
1.757566157E0,-4.965107143E-2,9.712766647E0,3.140579537E-2,9.712944327E0
1.759990011E0,-4.486542568E-2,9.703194618E0,2.662015148E-2,9.703334857E0
1.762413709E0,-6.400800496E-2,9.710372925E0,2.662015148E-2,9.710620371E0
1.764837667E0,-8.075776696E-2,9.707980156E0,1.944168471E-2,9.708335517E0
1.767261782E0,-4.486542568E-2,9.691230774E0,2.662015148E-2,9.691371185E0
1.769685219E0,-5.922235921E-2,9.707980156E0,3.379862010E-2,9.708219628E0
1.772109178E0,-4.247260094E-2,9.710372925E0,4.576273263E-2,9.710573644E0
1.774533292E0,-5.204389244E-2,9.731908798E0,4.097708687E-2,9.732134224E0
1.776956990E0,-2.811566554E-2,9.703194618E0,2.183450572E-2,9.703259918E0
1.779380948E0,-2.333002165E-2,9.698409081E0,3.140579537E-2,9.698487991E0
1.781804178E0,-3.768695518E-2,9.703194618E0,3.379862010E-2,9.703326669E0
1.784227719E0,-3.768695518E-2,9.693623543E0,2.422732860E-2,9.693727078E0
1.786651626E0,-2.811566554E-2,9.696016312E0,1.704886183E-2,9.696072064E0
1.789075532E0,-4.965107143E-2,9.688838005E0,5.084747914E-3,9.688966559E0
1.791499542E0,-7.118647546E-2,9.676874161E0,9.870393202E-3,9.677141027E0
1.793923188E0,-5.922235921E-2,9.703194618E0,1.944168471E-2,9.703394822E0
1.796346313E0,-4.725824669E-2,9.686445236E0,2.901297435E-2,9.686603967E0
1.798769438E0,-5.922235921E-2,9.693623543E0,2.422732860E-2,9.693834723E0
1.801193240E0,-5.443671346E-2,9.681659698E0,1.944168471E-2,9.681832257E0
1.803617146E0,-6.161518395E-2,9.676874161E0,7.477570791E-3,9.677073208E0
1.806040271E0,-5.922235921E-2,9.700801849E0,9.870393202E-3,9.700987642E0
1.808463865E0,-3.768695518E-2,9.712766647E0,1.226321608E-2,9.712847504E0
1.810888188E0,-1.375873014E-2,9.719944954E0,2.183450572E-2,9.719979216E0
1.813312719E0,-5.204389244E-2,9.739087105E0,-6.879365072E-3,9.739228590E0
1.815736209E0,-2.811566554E-2,9.681659698E0,1.226321608E-2,9.681708289E0
1.818160323E0,-7.836493850E-2,9.664909363E0,1.226321608E-2,9.665234836E0
1.820583396E0,-5.204389244E-2,9.698409081E0,4.815555736E-2,9.698668270E0
1.823006938E0,-4.965107143E-2,9.696016312E0,1.704886183E-2,9.696158425E0
1.825430376E0,-5.204389244E-2,9.724730492E0,7.477570791E-3,9.724872627E0
1.827854386E0,-4.247260094E-2,9.707980156E0,1.704886183E-2,9.708088035E0
1.830277876E0,-6.400800496E-2,9.717552185E0,9.870393202E-3,9.717768001E0
1.832702042E0,-6.161518395E-2,9.710372925E0,5.084747914E-3,9.710569737E0
1.835125844E0,-5.922235921E-2,9.684052467E0,-4.486542661E-3,9.684234591E0
1.837549751E0,-3.290131316E-2,9.696016312E0,7.477570791E-3,9.696075017E0
1.839973501E0,-3.768695518E-2,9.700801849E0,7.477570791E-3,9.700877937E0
1.842397094E0,-4.486542568E-2,9.712766647E0,7.477570791E-3,9.712873147E0
1.844820480E0,-4.725824669E-2,9.696016312E0,7.477570791E-3,9.696134362E0
1.847243969E0,-5.204389244E-2,9.707980156E0,9.870393202E-3,9.708124675E0
1.849667823E0,-4.007977992E-2,9.688838005E0,9.870393202E-3,9.688925931E0
1.852091886E0,-5.443671346E-2,9.693623543E0,1.704886183E-2,9.693791385E0
1.854515844E0,-5.682953820E-2,9.681659698E0,2.422732860E-2,9.681856799E0
1.856940167E0,-4.247260094E-2,9.681659698E0,2.183450572E-2,9.681777481E0
1.859364282E0,-5.682953820E-2,9.684052467E0,3.140579537E-2,9.684270138E0
1.861789282E0,-4.486542568E-2,9.688838005E0,1.944168471E-2,9.688961388E0
1.864213292E0,-6.400800496E-2,9.717552185E0,2.422732860E-2,9.717793189E0
1.866637198E0,-6.640082598E-2,9.693623543E0,2.901297435E-2,9.693894378E0
1.869061730E0,-2.811566554E-2,9.724730492E0,1.465603895E-2,9.724782179E0
1.871486209E0,-6.161518395E-2,9.722337723E0,3.619144112E-2,9.722600323E0
1.873910740E0,-7.357929647E-2,9.705587387E0,2.183450572E-2,9.705890850E0
1.876335011E0,-4.965107143E-2,9.703194618E0,2.422732860E-2,9.703351895E0
1.878758917E0,-3.768695518E-2,9.705587387E0,3.619144112E-2,9.705728033E0
1.881182823E0,-3.768695518E-2,9.717552185E0,1.465603895E-2,9.717636316E0
1.883606521E0,-3.290131316E-2,9.679266930E0,1.944168471E-2,9.679342373E0
1.886030376E0,-3.768695518E-2,9.700801849E0,2.422732860E-2,9.700905308E0
1.888454490E0,-5.204389244E-2,9.696016312E0,3.140579537E-2,9.696206846E0
1.890878448E0,-6.640082598E-2,9.698409081E0,1.226321608E-2,9.698644140E0
1.893301834E0,-4.965107143E-2,9.688838005E0,2.422732860E-2,9.688995515E0
1.895725792E0,-2.811566554E-2,9.684052467E0,3.379862010E-2,9.684152262E0
1.898150011E0,-1.375873014E-2,9.686445236E0,5.084747914E-3,9.686456342E0
1.900574073E0,-4.247260094E-2,9.693623543E0,2.183450572E-2,9.693741180E0
1.902998084E0,-3.529413417E-2,9.710372925E0,1.465603895E-2,9.710448126E0
1.905421990E0,-4.725824669E-2,9.715159416E0,1.465603895E-2,9.715285411E0
1.907846417E0,-5.443671346E-2,9.696016312E0,5.084747914E-3,9.696170457E0
1.910270584E0,-4.486542568E-2,9.693623543E0,5.084747914E-3,9.693728702E0
1.912694073E0,-4.247260094E-2,9.712766647E0,2.183450572E-2,9.712884052E0
1.915118240E0,-4.007977992E-2,9.715159416E0,5.084747914E-3,9.715243421E0
1.917542459E0,-4.725824669E-2,9.700801849E0,1.944168471E-2,9.700936441E0
1.919966001E0,-5.443671346E-2,9.696016312E0,1.944168471E-2,9.696188615E0
1.922390167E0,-5.443671346E-2,9.700801849E0,3.619144112E-2,9.701022095E0
1.924814073E0,-7.357929647E-2,9.696016312E0,9.870393202E-3,9.696300514E0
1.927237459E0,-5.204389244E-2,9.710372925E0,1.465603895E-2,9.710523452E0
1.929661469E0,-4.486542568E-2,9.698409081E0,2.691925503E-3,9.698513229E0
1.932085948E0,-4.486542568E-2,9.698409081E0,1.704886183E-2,9.698527840E0
1.934510271E0,-4.486542568E-2,9.703194618E0,2.991028305E-4,9.703298346E0
1.936934126E0,-7.836493850E-2,9.707980156E0,7.477570791E-3,9.708299320E0
1.939358448E0,-4.247260094E-2,9.698409081E0,-2.093719784E-3,9.698502307E0
1.941782771E0,-3.768695518E-2,9.686445236E0,1.465603895E-2,9.686529638E0
1.944207823E0,-5.922235921E-2,9.715159416E0,2.183450572E-2,9.715364456E0
1.946632563E0,-5.204389244E-2,9.691230774E0,2.183450572E-2,9.691395112E0
1.949056365E0,-4.725824669E-2,9.684052467E0,3.140579537E-2,9.684218701E0
1.951480219E0,-3.050848842E-2,9.715159416E0,5.054837838E-2,9.715338820E0
1.953903657E0,-3.768695518E-2,9.705587387E0,3.858426586E-2,9.705737251E0
1.956327719E0,-4.965107143E-2,9.696016312E0,2.901297435E-2,9.696186843E0
1.958751261E0,-4.007977992E-2,9.715159416E0,1.704886183E-2,9.715257049E0
1.961174542E0,-5.682953820E-2,9.712766647E0,-2.093719784E-3,9.712933127E0
1.963598448E0,-3.290131316E-2,9.703194618E0,-1.645065658E-2,9.703264343E0
1.966022094E0,-3.290131316E-2,9.700801849E0,1.704886183E-2,9.700872625E0
1.968445636E0,-4.486542568E-2,9.691230774E0,7.477570791E-3,9.691337510E0
1.970869334E0,-4.007977992E-2,9.715159416E0,-6.879365072E-3,9.715244526E0
1.973292771E0,-5.443671346E-2,9.719944954E0,2.691925503E-3,9.720097762E0
1.975716313E0,-4.247260094E-2,9.698409081E0,2.422732860E-2,9.698532341E0
1.978139542E0,-2.333002165E-2,9.715159416E0,2.183450572E-2,9.715211965E0
1.980563501E0,-4.725824669E-2,9.705587387E0,2.422732860E-2,9.705732679E0
1.982987615E0,-2.572284266E-2,9.698409081E0,4.336991161E-2,9.698540164E0
1.985411261E0,-3.768695518E-2,9.700801849E0,3.619144112E-2,9.700942565E0
1.987834282E0,-4.725824669E-2,9.715159416E0,3.379862010E-2,9.715333148E0
1.990257719E0,-5.204389244E-2,9.693623543E0,9.870393202E-3,9.693768276E0
1.992681678E0,-4.007977992E-2,9.710372925E0,9.870393202E-3,9.710460656E0
1.995105948E0,-3.290131316E-2,9.707980156E0,7.477570791E-3,9.708038788E0
1.997529855E0,-6.400800496E-2,9.722337723E0,1.704886183E-2,9.722563370E0
1.999953917E0,-4.486542568E-2,9.693623543E0,-4.486542661E-3,9.693728407E0
2.002377823E0,-3.529413417E-2,9.696016312E0,9.870393202E-3,9.696085572E0
2.004801730E0,-4.725824669E-2,9.676874161E0,1.944168471E-2,9.677009086E0
2.007225323E0,-3.768695518E-2,9.710372925E0,4.097708687E-2,9.710532517E0
2.009649594E0,-4.007977992E-2,9.698409081E0,3.619144112E-2,9.698559424E0
2.012074126E0,-5.922235921E-2,9.707980156E0,5.054837838E-2,9.708292390E0
2.014498240E0,-4.247260094E-2,9.722337723E0,2.662015148E-2,9.722466937E0
2.016923344E0,-4.486542568E-2,9.710372925E0,4.097708687E-2,9.710563030E0
2.019347563E0,-4.725824669E-2,9.705587387E0,4.336991161E-2,9.705799340E0
2.021771626E0,-5.443671346E-2,9.707980156E0,2.901297435E-2,9.708176132E0
2.024195376E0,-6.400800496E-2,9.710372925E0,2.901297435E-2,9.710627226E0
2.026618969E0,-5.204389244E-2,9.722337723E0,2.183450572E-2,9.722501536E0
2.029042876E0,-3.529413417E-2,9.729516029E0,2.183450572E-2,9.729604544E0
2.031466417E0,-5.204389244E-2,9.705587387E0,2.901297435E-2,9.705770286E0
2.033890219E0,-2.093719877E-2,9.719944954E0,3.140579537E-2,9.720018241E0
2.036314230E0,-3.290131316E-2,9.700801849E0,9.870393202E-3,9.700862665E0
2.038737980E0,-6.400800496E-2,9.684052467E0,2.422732860E-2,9.684294305E0
2.041161626E0,-3.050848842E-2,9.703194618E0,4.097708687E-2,9.703329103E0
2.043585428E0,-3.290131316E-2,9.696016312E0,4.576273263E-2,9.696180126E0
2.046009334E0,-5.204389244E-2,9.686445236E0,5.054837838E-2,9.686716937E0
2.048433136E0,-5.922235921E-2,9.693623543E0,2.901297435E-2,9.693847865E0
2.050857511E0,-6.879365444E-2,9.700801849E0,9.870393202E-3,9.701050794E0
2.053282042E0,-4.007977992E-2,9.705587387E0,1.465603895E-2,9.705681208E0
2.055706365E0,-5.443671346E-2,9.693623543E0,-9.272187948E-3,9.693780827E0
2.058130063E0,-6.400800496E-2,9.712766647E0,1.704886183E-2,9.712992517E0
2.060553709E0,-6.400800496E-2,9.712766647E0,-2.093719784E-3,9.712977780E0
2.062977355E0,-2.572284266E-2,9.691230774E0,1.704886183E-2,9.691279907E0
2.065400688E0,-3.290131316E-2,9.712766647E0,1.226321608E-2,9.712830114E0
2.067824855E0,-5.682953820E-2,9.696016312E0,2.183450572E-2,9.696207437E0
2.070248709E0,-5.922235921E-2,9.691230774E0,2.183450572E-2,9.691436320E0
2.072672719E0,-6.640082598E-2,9.703194618E0,1.704886183E-2,9.703436790E0
2.075097146E0,-5.922235921E-2,9.681659698E0,2.183450572E-2,9.681865448E0
2.077521105E0,-6.161518395E-2,9.703194618E0,1.944168471E-2,9.703409721E0
2.079945167E0,-5.204389244E-2,9.696016312E0,1.944168471E-2,9.696175476E0
2.082368709E0,-4.007977992E-2,9.705587387E0,1.226321608E-2,9.705677890E0
2.084792876E0,-4.965107143E-2,9.686445236E0,5.084747914E-3,9.686573821E0
2.087216730E0,-6.640082598E-2,9.688838005E0,-9.272187948E-3,9.689069972E0
2.089640584E0,-2.572284266E-2,9.691230774E0,7.477570791E-3,9.691267796E0
2.092064386E0,-4.725824669E-2,9.712766647E0,-6.879365072E-3,9.712884052E0
2.094488448E0,-4.725824669E-2,9.691230774E0,-2.093719784E-3,9.691346224E0
2.096912615E0,-2.572284266E-2,9.693623543E0,1.226321608E-2,9.693665429E0
2.099336365E0,-4.725824669E-2,9.696016312E0,9.870393202E-3,9.696136503E0
2.101760011E0,-4.965107143E-2,9.691230774E0,5.084747914E-3,9.691359296E0
2.104184021E0,-4.247260094E-2,9.696016312E0,1.704886183E-2,9.696124324E0
2.106607980E0,-2.093719877E-2,9.686445236E0,2.662015148E-2,9.686504442E0
2.109031626E0,-3.290131316E-2,9.705587387E0,1.944168471E-2,9.705662626E0
2.111455532E0,-3.529413417E-2,9.698409081E0,1.944168471E-2,9.698492787E0
2.113878813E0,-4.247260094E-2,9.705587387E0,1.465603895E-2,9.705691384E0
2.116302355E0,-4.007977992E-2,9.715159416E0,1.944168471E-2,9.715261543E0
2.118726313E0,-5.682953820E-2,9.727123260E0,1.944168471E-2,9.727308698E0
2.121150948E0,-3.290131316E-2,9.712766647E0,3.140579537E-2,9.712873147E0
2.123574594E0,-3.290131316E-2,9.715159416E0,2.183450572E-2,9.715239664E0
2.125998188E0,-2.811566554E-2,9.698409081E0,3.619144112E-2,9.698517361E0
2.128422511E0,-4.486542568E-2,9.693623543E0,1.465603895E-2,9.693738448E0
2.130846053E0,-3.290131316E-2,9.703194618E0,3.140579537E-2,9.703301223E0
2.133269698E0,-5.204389244E-2,9.710372925E0,3.140579537E-2,9.710563178E0
2.135694126E0,-4.965107143E-2,9.707980156E0,4.815555736E-2,9.708226558E0
2.138118032E0,-4.247260094E-2,9.679266930E0,5.294119939E-2,9.679504894E0
2.140541678E0,-6.640082598E-2,9.684052467E0,3.619144112E-2,9.684347736E0
2.142965167E0,-5.443671346E-2,9.717552185E0,5.054837838E-2,9.717836126E0
2.145388917E0,-5.443671346E-2,9.696016312E0,2.662015148E-2,9.696205665E0
2.147812980E0,-5.682953820E-2,9.696016312E0,3.379862010E-2,9.696241760E0
2.150236834E0,-6.640082598E-2,9.710372925E0,2.691925503E-3,9.710600324E0
2.152660480E0,-7.118647546E-2,9.705587387E0,1.465603895E-2,9.705859511E0
2.155084230E0,-6.161518395E-2,9.717552185E0,2.183450572E-2,9.717772052E0
2.157507667E0,-5.682953820E-2,9.696016312E0,2.422732860E-2,9.696213120E0
2.159931157E0,-5.443671346E-2,9.715159416E0,9.870393202E-3,9.715316941E0
2.162355115E0,-3.768695518E-2,9.717552185E0,2.183450572E-2,9.717649794E0
2.164778605E0,-4.007977992E-2,9.707980156E0,1.465603895E-2,9.708073954E0
2.167202459E0,-3.768695518E-2,9.707980156E0,7.477570791E-3,9.708056187E0
2.169626261E0,-4.247260094E-2,9.696016312E0,1.465603895E-2,9.696120412E0
2.172050584E0,-5.443671346E-2,9.705587387E0,9.870393202E-3,9.705745067E0
2.174474334E0,-5.204389244E-2,9.710372925E0,2.662015148E-2,9.710548879E0
2.176897823E0,-6.640082598E-2,9.715159416E0,-2.093719784E-3,9.715386556E0
2.179321782E0,-4.725824669E-2,9.696016312E0,2.183450572E-2,9.696156063E0
2.181745480E0,-3.529413417E-2,9.719944954E0,2.422732860E-2,9.720039226E0
2.184169803E0,-3.529413417E-2,9.710372925E0,2.662015148E-2,9.710473554E0
2.186594438E0,-7.118647546E-2,9.717552185E0,3.140579537E-2,9.717863670E0
2.189018709E0,-3.290131316E-2,9.691230774E0,4.815555736E-2,9.691406264E0
2.191442719E0,-2.572284266E-2,9.693623543E0,3.379862010E-2,9.693716594E0
2.193867198E0,-6.400800496E-2,9.688838005E0,2.662015148E-2,9.689086002E0
2.196291001E0,-5.443671346E-2,9.686445236E0,5.084747914E-3,9.686599534E0
2.198715219E0,-4.007977992E-2,9.722337723E0,1.704886183E-2,9.722435284E0
2.201139021E0,-4.007977992E-2,9.712766647E0,2.901297435E-2,9.712892674E0
2.203563032E0,-1.854437590E-2,9.681659698E0,4.097708687E-2,9.681764175E0
2.205987251E0,-2.093719877E-2,9.698409081E0,1.465603895E-2,9.698442754E0
2.208411521E0,-3.290131316E-2,9.719944954E0,-6.879365072E-3,9.720003072E0
2.210835428E0,-5.204389244E-2,9.712766647E0,7.477570791E-3,9.712908958E0
2.213259073E0,-4.486542568E-2,9.688838005E0,2.691925503E-3,9.688942256E0
2.215682823E0,-4.007977992E-2,9.691230774E0,5.084747914E-3,9.691314986E0
2.218106678E0,-3.290131316E-2,9.676874161E0,1.226321608E-2,9.676937863E0
2.220530844E0,-4.725824669E-2,9.710372925E0,3.619144112E-2,9.710555365E0
2.222954698E0,-3.529413417E-2,9.672088623E0,2.183450572E-2,9.672177663E0
2.225378396E0,-3.290131316E-2,9.700801849E0,2.901297435E-2,9.700901029E0
2.227802407E0,-4.007977992E-2,9.722337723E0,4.576273263E-2,9.722528036E0
2.230226209E0,-4.486542568E-2,9.703194618E0,2.901297435E-2,9.703341716E0
2.232649959E0,-4.725824669E-2,9.719944954E0,2.901297435E-2,9.720103137E0
2.235073865E0,-6.161518395E-2,9.719944954E0,3.619144112E-2,9.720207619E0
2.237498136E0,-4.486542568E-2,9.693623543E0,2.422732860E-2,9.693757644E0
2.239922303E0,-3.768695518E-2,9.707980156E0,2.991028305E-4,9.708053312E0
2.242346261E0,-3.768695518E-2,9.719944954E0,-4.486542661E-3,9.720019051E0
2.244769959E0,-4.486542568E-2,9.707980156E0,-6.879365072E-3,9.708086266E0
2.247193657E0,-5.443671346E-2,9.703194618E0,1.704886183E-2,9.703362295E0
2.249617771E0,-6.640082598E-2,9.693623543E0,9.870393202E-3,9.693855986E0
2.252041886E0,-5.682953820E-2,9.707980156E0,9.870393202E-3,9.708151509E0
2.254466053E0,-4.247260094E-2,9.707980156E0,1.944168471E-2,9.708092532E0
2.256890428E0,-4.725824669E-2,9.703194618E0,2.422732860E-2,9.703339946E0
2.259314126E0,-6.640082598E-2,9.707980156E0,1.704886183E-2,9.708222208E0
2.261737615E0,-4.965107143E-2,9.715159416E0,2.901297435E-2,9.715329612E0
2.264162198E0,-7.357929647E-2,9.698409081E0,4.097708687E-2,9.698774754E0
2.266585896E0,-4.247260094E-2,9.700801849E0,2.183450572E-2,9.700919399E0
2.269009959E0,-3.768695518E-2,9.696016312E0,2.901297435E-2,9.696132960E0
2.271433709E0,-4.247260094E-2,9.696016312E0,7.477570791E-3,9.696112218E0
2.273858240E0,-3.768695518E-2,9.696016312E0,-6.879365072E-3,9.696091994E0
2.276282042E0,-6.400800496E-2,9.707980156E0,2.691925503E-3,9.708191540E0
2.278706001E0,-4.247260094E-2,9.703194618E0,2.901297435E-2,9.703330947E0
2.281130532E0,-4.007977992E-2,9.693623543E0,1.465603895E-2,9.693717480E0
2.283554490E0,-4.247260094E-2,9.724730492E0,3.858426586E-2,9.724899784E0
2.285978605E0,-4.007977992E-2,9.707980156E0,2.901297435E-2,9.708106244E0
2.288403605E0,-4.965107143E-2,9.681659698E0,4.336991161E-2,9.681884150E0
2.290828084E0,-5.922235921E-2,9.705587387E0,4.097708687E-2,9.705854570E0
2.293252511E0,-4.486542568E-2,9.691230774E0,4.815555736E-2,9.691454265E0
2.295676417E0,-5.443671346E-2,9.715159416E0,3.379862010E-2,9.715370718E0
2.298099959E0,-5.922235921E-2,9.686445236E0,1.704886183E-2,9.686641279E0
2.300524490E0,-4.247260094E-2,9.705587387E0,5.084747914E-3,9.705681651E0
2.302948969E0,-4.725824669E-2,9.710372925E0,1.704886183E-2,9.710502888E0
2.305372876E0,-5.682953820E-2,9.693623543E0,9.870393202E-3,9.693795150E0
2.307797251E0,-4.486542568E-2,9.703194618E0,2.691925503E-3,9.703298715E0
2.310220532E0,-3.050848842E-2,9.686445236E0,-1.645065658E-2,9.686507250E0
2.312644230E0,-4.486542568E-2,9.710372925E0,1.226321608E-2,9.710484315E0
2.315068032E0,-4.007977992E-2,9.700801849E0,2.901297435E-2,9.700928031E0
2.317492042E0,-4.725824669E-2,9.700801849E0,5.054837838E-2,9.701048655E0
2.319916417E0,-5.443671346E-2,9.700801849E0,4.815555736E-2,9.701074107E0
2.322340323E0,-5.922235921E-2,9.696016312E0,3.379862010E-2,9.696256079E0
2.324763448E0,-5.682953820E-2,9.696016312E0,2.901297435E-2,9.696226259E0
2.327186730E0,-8.315058798E-2,9.691230774E0,2.183450572E-2,9.691612078E0
2.329609698E0,-6.879365444E-2,9.688838005E0,2.183450572E-2,9.689106832E0
2.332033709E0,-3.768695518E-2,9.700801849E0,1.465603895E-2,9.700886126E0
2.334456938E0,-4.247260094E-2,9.688838005E0,-9.272187948E-3,9.688935534E0
2.336880532E0,-2.811566554E-2,9.693623543E0,2.991028305E-4,9.693664321E0
2.339304126E0,-4.247260094E-2,9.700801849E0,7.477570791E-3,9.700897709E0
2.341727980E0,-5.682953820E-2,9.698409081E0,9.870393202E-3,9.698580603E0
2.344151834E0,-6.400800496E-2,9.715159416E0,9.870393202E-3,9.715375285E0
2.346575271E0,-5.682953820E-2,9.722337723E0,2.991028305E-4,9.722503818E0
2.348999855E0,-3.768695518E-2,9.729516029E0,2.183450572E-2,9.729613518E0
2.351423605E0,-5.682953820E-2,9.681659698E0,1.704886183E-2,9.681841497E0
2.353847823E0,-7.118647546E-2,9.705587387E0,3.858426586E-2,9.705925138E0
2.356272407E0,-6.161518395E-2,9.705587387E0,3.858426586E-2,9.705859658E0
2.358696521E0,-3.768695518E-2,9.722337723E0,4.576273263E-2,9.722518466E0
2.361120480E0,-5.204389244E-2,9.727123260E0,1.704886183E-2,9.727277428E0
2.363544334E0,-4.965107143E-2,9.693623543E0,2.183450572E-2,9.693775290E0
2.365968292E0,-2.572284266E-2,9.710372925E0,2.901297435E-2,9.710450337E0
2.368392251E0,-3.768695518E-2,9.707980156E0,9.870393202E-3,9.708058325E0
2.370815896E0,-5.682953820E-2,9.727123260E0,5.084747914E-3,9.727290598E0
2.373240323E0,-2.811566554E-2,9.693623543E0,-4.486542661E-3,9.693665355E0
2.375664073E0,-9.750752151E-2,9.703194618E0,-1.166501082E-2,9.703691544E0
2.378088240E0,-6.879365444E-2,9.688838005E0,2.691925503E-3,9.689082604E0
2.380511886E0,-3.768695518E-2,9.684052467E0,3.379862010E-2,9.684184780E0
2.382935688E0,-2.811566554E-2,9.703194618E0,1.704886183E-2,9.703250329E0
2.385359126E0,-4.725824669E-2,9.724730492E0,3.140579537E-2,9.724896030E0
2.387783032E0,-4.965107143E-2,9.712766647E0,3.379862010E-2,9.712952359E0
2.390205688E0,-4.725824669E-2,9.696016312E0,4.336991161E-2,9.696228473E0
2.392628917E0,-3.290131316E-2,9.703194618E0,4.576273263E-2,9.703358312E0
2.395052407E0,-3.768695518E-2,9.700801849E0,4.815555736E-2,9.700994577E0
2.397475584E0,-3.768695518E-2,9.700801849E0,2.901297435E-2,9.700918440E0
2.399898969E0,-4.965107143E-2,9.700801849E0,2.183450572E-2,9.700953484E0
2.402322198E0,-4.725824669E-2,9.705587387E0,2.991028305E-4,9.705702445E0
2.404745740E0,-5.204389244E-2,9.696016312E0,2.183450572E-2,9.696180569E0
2.407169438E0,-3.768695518E-2,9.710372925E0,1.944168471E-2,9.710465520E0
2.409593501E0,-3.768695518E-2,9.700801849E0,2.691925503E-3,9.700875428E0
2.412016990E0,-3.768695518E-2,9.688838005E0,2.691925503E-3,9.688911675E0
2.414440896E0,-5.682953820E-2,9.700801849E0,5.084747914E-3,9.700969641E0
2.416864751E0,-5.922235921E-2,9.703194618E0,1.704886183E-2,9.703390322E0
2.419288448E0,-4.725824669E-2,9.679266930E0,9.870393202E-3,9.679387329E0
2.421711886E0,-4.725824669E-2,9.722337723E0,2.422732860E-2,9.722482764E0
2.424135948E0,-6.161518395E-2,9.715159416E0,2.422732860E-2,9.715385009E0
2.426560636E0,-4.725824669E-2,9.710372925E0,3.140579537E-2,9.710538708E0
2.428985115E0,-5.204389244E-2,9.707980156E0,4.097708687E-2,9.708206137E0
2.431409282E0,-5.682953820E-2,9.705587387E0,3.140579537E-2,9.705804575E0
2.433833448E0,-5.204389244E-2,9.691230774E0,2.662015148E-2,9.691407076E0
2.436256730E0,-4.965107143E-2,9.698409081E0,3.379862010E-2,9.698595067E0
2.438680896E0,-4.007977992E-2,9.710372925E0,1.944168471E-2,9.710475102E0
2.441104698E0,-4.247260094E-2,9.688838005E0,2.422732860E-2,9.688961388E0
2.443528501E0,-5.682953820E-2,9.703194618E0,1.226321608E-2,9.703368785E0
2.445951938E0,-7.597211748E-2,9.700801849E0,1.465603895E-2,9.701110405E0
2.448375792E0,-3.768695518E-2,9.693623543E0,2.991028305E-4,9.693696807E0
2.450799282E0,-7.118647546E-2,9.698409081E0,1.704886183E-2,9.698685317E0
2.453222615E0,-3.768695518E-2,9.688838005E0,-2.123630047E-2,9.688934574E0
2.455646313E0,-4.965107143E-2,9.696016312E0,5.084747914E-3,9.696144770E0
2.458069542E0,-5.443671346E-2,9.688838005E0,5.084747914E-3,9.688992264E0
2.460493292E0,-2.572284266E-2,9.707980156E0,-9.272187948E-3,9.708018662E0
2.462917355E0,-4.007977992E-2,9.703194618E0,2.991028305E-4,9.703277399E0
2.465340636E0,-4.486542568E-2,9.715159416E0,1.465603895E-2,9.715274067E0
2.467763553E0,-8.315058798E-2,9.712766647E0,2.422732860E-2,9.713152780E0
2.470187146E0,-4.486542568E-2,9.719944954E0,1.226321608E-2,9.720056234E0
2.472611209E0,-6.400800496E-2,9.698409081E0,5.084747914E-3,9.698621633E0
2.475035271E0,-6.879365444E-2,9.717552185E0,1.944168471E-2,9.717815136E0
2.477458605E0,-4.247260094E-2,9.696016312E0,-2.093719784E-3,9.696109561E0
2.479882146E0,-3.529413417E-2,9.686445236E0,1.944168471E-2,9.686529047E0
2.482305532E0,-6.640082598E-2,9.686445236E0,-2.093719784E-3,9.686673049E0
2.484729438E0,-5.204389244E-2,9.707980156E0,5.084747914E-3,9.708120989E0
2.487153032E0,-2.572284266E-2,9.684052467E0,3.140579537E-2,9.684137555E0
2.489576053E0,-3.768695518E-2,9.700801849E0,1.704886183E-2,9.700890036E0
2.492000063E0,-5.204389244E-2,9.705587387E0,1.944168471E-2,9.705746394E0
2.494424230E0,-6.161518395E-2,9.712766647E0,4.815555736E-2,9.713081454E0
2.496847980E0,-4.007977992E-2,9.698409081E0,4.336991161E-2,9.698588868E0
2.499271886E0,-4.007977992E-2,9.681659698E0,4.097708687E-2,9.681829374E0
2.501695271E0,-4.965107143E-2,9.691230774E0,4.336991161E-2,9.691455004E0
2.504119594E0,-3.290131316E-2,9.698409081E0,1.944168471E-2,9.698484375E0
2.506543188E0,-3.050848842E-2,9.693623543E0,1.226321608E-2,9.693679309E0
2.508966678E0,-2.093719877E-2,9.705587387E0,1.465603895E-2,9.705621036E0
2.511390584E0,-3.290131316E-2,9.707980156E0,-6.879365072E-3,9.708038346E0
2.513814594E0,-7.118647546E-2,9.684052467E0,-1.166501082E-2,9.684321131E0
2.516237771E0,-5.682953820E-2,9.693623543E0,-2.093719784E-3,9.693790351E0
2.518661209E0,-5.682953820E-2,9.700801849E0,1.226321608E-2,9.700976059E0
2.521084751E0,-5.204389244E-2,9.691230774E0,7.477570791E-3,9.691373401E0
2.523508553E0,-3.050848842E-2,9.696016312E0,1.465603895E-2,9.696075386E0
2.525932511E0,-5.204389244E-2,9.705587387E0,4.576273263E-2,9.705834808E0
2.528356521E0,-5.682953820E-2,9.712766647E0,1.465603895E-2,9.712943959E0
2.530780376E0,-6.161518395E-2,9.710372925E0,2.422732860E-2,9.710598629E0
2.533204230E0,-5.682953820E-2,9.722337723E0,1.944168471E-2,9.722523251E0
2.535627719E0,-4.247260094E-2,9.712766647E0,1.704886183E-2,9.712874473E0
2.538051365E0,-5.443671346E-2,9.717552185E0,-6.879365072E-3,9.717707093E0
2.540474386E0,-4.486542568E-2,9.724730492E0,-1.166501082E-2,9.724840981E0
2.542898344E0,-4.247260094E-2,9.703194618E0,2.991028305E-4,9.703287577E0
2.545321938E0,-7.357929647E-2,9.705587387E0,2.691925503E-3,9.705866663E0
2.547745271E0,-6.879365444E-2,9.715159416E0,2.991028305E-4,9.715402984E0
2.550169126E0,-4.247260094E-2,9.691230774E0,9.870393202E-3,9.691328870E0
2.552593188E0,-4.725824669E-2,9.688838005E0,-2.093719784E-3,9.688953484E0
2.555016834E0,-3.290131316E-2,9.703194618E0,2.422732860E-2,9.703280644E0
2.557440323E0,-4.486542568E-2,9.700801849E0,3.140579537E-2,9.700956435E0
2.559864803E0,-6.400800496E-2,9.707980156E0,3.379862010E-2,9.708250001E0
2.562288917E0,-5.443671346E-2,9.688838005E0,2.422732860E-2,9.689021220E0
2.564712615E0,-5.682953820E-2,9.703194618E0,2.901297435E-2,9.703404410E0
2.567136261E0,-4.247260094E-2,9.691230774E0,3.140579537E-2,9.691374730E0
2.569560011E0,-4.965107143E-2,9.672088623E0,-2.093719784E-3,9.672216289E0
2.571983813E0,-5.682953820E-2,9.693623543E0,7.477570791E-3,9.693793009E0
2.574407198E0,-3.768695518E-2,9.722337723E0,2.991028305E-4,9.722410771E0
2.576830792E0,-4.007977992E-2,9.707980156E0,2.691925503E-3,9.708063264E0
2.579254698E0,-4.725824669E-2,9.696016312E0,2.183450572E-2,9.696156063E0
2.581678761E0,-4.725824669E-2,9.705587387E0,-2.093719784E-3,9.705702667E0
2.584102667E0,-4.486542568E-2,9.686445236E0,-1.166501082E-2,9.686556163E0
2.586526730E0,-4.486542568E-2,9.710372925E0,1.465603895E-2,9.710487632E0
2.588950584E0,-3.768695518E-2,9.691230774E0,3.379862010E-2,9.691362988E0
2.591374751E0,-4.486542568E-2,9.696016312E0,2.901297435E-2,9.696163518E0
2.593798396E0,-4.965107143E-2,9.707980156E0,5.054837838E-2,9.708238722E0
2.596222251E0,-6.640082598E-2,9.691230774E0,4.576273263E-2,9.691566293E0
2.598646001E0,-9.032905847E-2,9.705587387E0,4.576273263E-2,9.706115603E0
2.601070115E0,-4.965107143E-2,9.707980156E0,2.422732860E-2,9.708137355E0
2.603494438E0,-5.922235921E-2,9.717552185E0,2.422732860E-2,9.717762845E0
2.605918553E0,-5.204389244E-2,9.703194618E0,2.183450572E-2,9.703358754E0
2.608343240E0,-5.443671346E-2,9.707980156E0,2.422732860E-2,9.708163010E0
2.610766938E0,-6.161518395E-2,9.672088623E0,9.870393202E-3,9.672289914E0
2.613190688E0,-4.486542568E-2,9.707980156E0,2.691925503E-3,9.708084201E0
2.615613813E0,-6.161518395E-2,9.691230774E0,2.991028305E-4,9.691426646E0
2.618037563E0,-5.443671346E-2,9.705587387E0,2.422732860E-2,9.705770286E0
2.620462303E0,-5.922235921E-2,9.696016312E0,1.704886183E-2,9.696212161E0
2.622886313E0,-5.922235921E-2,9.696016312E0,3.858426586E-2,9.696273942E0
2.625310428E0,-4.725824669E-2,9.686445236E0,1.944168471E-2,9.686580028E0
2.627733865E0,-5.443671346E-2,9.698409081E0,2.901297435E-2,9.698605250E0
2.630157928E0,-2.093719877E-2,9.707980156E0,2.422732860E-2,9.708032964E0
2.632581782E0,-5.443671346E-2,9.703194618E0,7.477570791E-3,9.703350198E0
2.635005428E0,-4.247260094E-2,9.684052467E0,-6.879365072E-3,9.684148049E0
2.637429334E0,-4.725824669E-2,9.703194618E0,1.465603895E-2,9.703320769E0
2.639853136E0,-5.443671346E-2,9.691230774E0,2.691925503E-3,9.691384035E0
2.642277303E0,-3.050848842E-2,9.703194618E0,9.870393202E-3,9.703247600E0
2.644701365E0,-4.965107143E-2,9.705587387E0,2.691925503E-3,9.705714760E0
2.647125844E0,-2.572284266E-2,9.719944954E0,5.084747914E-3,9.719980320E0
2.649549698E0,-2.572284266E-2,9.696016312E0,-2.093719784E-3,9.696050658E0
2.651973501E0,-4.725824669E-2,9.696016312E0,9.870393202E-3,9.696136503E0
2.654397719E0,-4.007977992E-2,9.688838005E0,2.991028305E-4,9.688920908E0
2.656821782E0,-3.050848842E-2,9.691230774E0,2.901297435E-2,9.691322223E0
2.659245844E0,-3.050848842E-2,9.707980156E0,3.140579537E-2,9.708078893E0
2.661670376E0,-4.965107143E-2,9.693623543E0,3.619144112E-2,9.693818259E0
2.664094751E0,-6.161518395E-2,9.700801849E0,1.944168471E-2,9.701017005E0
2.666518605E0,-5.682953820E-2,9.727123260E0,2.422732860E-2,9.727319440E0
2.668942198E0,-5.443671346E-2,9.703194618E0,1.226321608E-2,9.703355066E0
2.671366001E0,-2.572284266E-2,9.707980156E0,1.944168471E-2,9.708033702E0
2.673790115E0,-4.725824669E-2,9.681659698E0,3.140579537E-2,9.681825974E0
2.676213553E0,-5.682953820E-2,9.698409081E0,3.858426586E-2,9.698652331E0
2.678636573E0,-4.965107143E-2,9.693623543E0,3.140579537E-2,9.693801573E0
2.681060480E0,-5.443671346E-2,9.679266930E0,3.619144112E-2,9.679487666E0
2.683484646E0,-5.682953820E-2,9.686445236E0,2.183450572E-2,9.686636550E0
2.685908969E0,-4.247260094E-2,9.705587387E0,3.140579537E-2,9.705731130E0
2.688333292E0,-3.290131316E-2,9.681659698E0,7.477570791E-3,9.681718490E0
2.690756678E0,-3.529413417E-2,9.696016312E0,2.422732860E-2,9.696110816E0
2.693179907E0,-4.486542568E-2,9.700801849E0,4.336991161E-2,9.701002545E0
2.695604073E0,-3.768695518E-2,9.710372925E0,3.379862010E-2,9.710504878E0
2.698027876E0,-6.640082598E-2,9.710372925E0,2.901297435E-2,9.710643293E0
2.700451365E0,-5.443671346E-2,9.712766647E0,4.097708687E-2,9.713005633E0
2.702875167E0,-3.290131316E-2,9.710372925E0,4.336991161E-2,9.710525515E0
2.705299021E0,-7.357929647E-2,9.693623543E0,2.183450572E-2,9.693927380E0
2.707722407E0,-5.922235921E-2,9.698409081E0,3.858426586E-2,9.698666647E0
2.710145636E0,-2.333002165E-2,9.686445236E0,1.704886183E-2,9.686488335E0
2.712569490E0,-3.290131316E-2,9.693623543E0,7.477570791E-3,9.693682262E0
2.714993292E0,-5.922235921E-2,9.686445236E0,3.619144112E-2,9.686693885E0
2.717417251E0,-4.007977992E-2,9.691230774E0,2.662015148E-2,9.691350212E0
2.719841001E0,-6.161518395E-2,9.712766647E0,1.226321608E-2,9.712969822E0
2.722265011E0,-7.836493850E-2,9.707980156E0,1.465603895E-2,9.708307503E0
2.724689542E0,-5.682953820E-2,9.696016312E0,9.870393202E-3,9.696187877E0
2.727113448E0,-5.443671346E-2,9.698409081E0,7.477570791E-3,9.698564737E0
2.729536938E0,-5.204389244E-2,9.715159416E0,2.991028305E-4,9.715298819E0
2.731960532E0,-4.247260094E-2,9.681659698E0,9.870393202E-3,9.681757891E0
2.734384334E0,-4.965107143E-2,9.700801849E0,2.183450572E-2,9.700953484E0
2.736808136E0,-3.529413417E-2,9.691230774E0,1.465603895E-2,9.691306124E0
2.739231938E0,-4.965107143E-2,9.681659698E0,5.084747914E-3,9.681788347E0
2.741656157E0,-5.204389244E-2,9.700801849E0,1.465603895E-2,9.700952525E0
2.744079803E0,-5.922235921E-2,9.717552185E0,2.901297435E-2,9.717775955E0
2.746502771E0,-5.443671346E-2,9.712766647E0,3.858426586E-2,9.712995833E0
2.748926678E0,-8.075776696E-2,9.700801849E0,6.251249462E-2,9.701339400E0
2.751350948E0,-2.572284266E-2,9.693623543E0,4.336991161E-2,9.693754691E0
2.753775584E0,-4.247260094E-2,9.700801849E0,2.901297435E-2,9.700938212E0
2.756199959E0,-4.007977992E-2,9.691230774E0,2.183450572E-2,9.691338249E0
2.758624282E0,-4.247260094E-2,9.693623543E0,2.901297435E-2,9.693760007E0
2.761049021E0,-3.290131316E-2,9.700801849E0,1.944168471E-2,9.700877125E0
2.763473396E0,-5.443671346E-2,9.712766647E0,1.944168471E-2,9.712938653E0
2.765897667E0,-6.640082598E-2,9.681659698E0,-4.486542661E-3,9.681888437E0
2.768321365E0,-4.965107143E-2,9.693623543E0,9.870393202E-3,9.693755724E0
2.770745376E0,-2.811566554E-2,9.717552185E0,-6.879365072E-3,9.717595293E0
2.773168761E0,-4.247260094E-2,9.703194618E0,7.477570791E-3,9.703290454E0
2.775592823E0,-4.247260094E-2,9.688838005E0,1.465603895E-2,9.688942182E0
2.778016938E0,-5.443671346E-2,9.686445236E0,1.465603895E-2,9.686609286E0
2.780441521E0,-7.357929647E-2,9.703194618E0,3.619144112E-2,9.703541082E0
2.782865636E0,-5.443671346E-2,9.698409081E0,3.619144112E-2,9.698629381E0
2.785289698E0,-4.965107143E-2,9.698409081E0,5.054837838E-2,9.698667901E0
2.787713761E0,-4.486542568E-2,9.705587387E0,5.533402413E-2,9.705848819E0
2.790136990E0,-6.161518395E-2,9.717552185E0,5.054837838E-2,9.717878989E0
2.792561105E0,-4.725824669E-2,9.707980156E0,3.379862010E-2,9.708154016E0
2.794985584E0,-4.247260094E-2,9.719944954E0,2.662015148E-2,9.720074200E0
2.797409594E0,-5.204389244E-2,9.707980156E0,2.422732860E-2,9.708149888E0
2.799834021E0,-4.007977992E-2,9.700801849E0,1.944168471E-2,9.700904127E0
2.802258292E0,-6.640082598E-2,9.679266930E0,2.183450572E-2,9.679519312E0
2.804683344E0,-5.682953820E-2,9.703194618E0,2.691925503E-3,9.703361409E0
2.807107823E0,-2.811566554E-2,9.707980156E0,9.870393202E-3,9.708025887E0
2.809532511E0,-5.682953820E-2,9.703194618E0,2.183450572E-2,9.703385602E0
2.811957042E0,-8.075776696E-2,9.703194618E0,3.379862010E-2,9.703589540E0
2.814381417E0,-6.879365444E-2,9.719944954E0,2.901297435E-2,9.720231696E0
2.816806053E0,-6.879365444E-2,9.696016312E0,6.490531564E-2,9.696477586E0
2.819230532E0,-4.486542568E-2,9.724730492E0,6.011966988E-2,9.725019816E0
2.821654855E0,-4.486542568E-2,9.710372925E0,1.465603895E-2,9.710487632E0
2.824078917E0,-4.007977992E-2,9.691230774E0,1.704886183E-2,9.691328648E0
2.826502980E0,-4.247260094E-2,9.698409081E0,5.084747914E-3,9.698503414E0
2.828927198E0,-4.486542568E-2,9.712766647E0,-1.166501082E-2,9.712877273E0
2.831351313E0,-2.811566554E-2,9.691230774E0,-4.486542661E-3,9.691272596E0
2.833775376E0,-3.768695518E-2,9.703194618E0,-1.166501082E-2,9.703274817E0
2.836199594E0,-2.333002165E-2,9.700801849E0,-2.602194622E-2,9.700864804E0
2.838624073E0,-1.854437590E-2,9.691230774E0,-2.093719784E-3,9.691248743E0
2.841048448E0,-4.725824669E-2,9.679266930E0,2.422732860E-2,9.679412616E0
2.843472615E0,-4.007977992E-2,9.676874161E0,1.944168471E-2,9.676976692E0
2.845897355E0,-5.443671346E-2,9.710372925E0,3.140579537E-2,9.710576297E0
2.848321417E0,-6.640082598E-2,9.722337723E0,4.576273263E-2,9.722672168E0
2.850744959E0,-4.965107143E-2,9.715159416E0,4.336991161E-2,9.715383094E0
2.853168865E0,-4.725824669E-2,9.710372925E0,4.576273263E-2,9.710595755E0
2.855592823E0,-6.879365444E-2,9.703194618E0,3.619144112E-2,9.703505974E0
2.858016417E0,-5.204389244E-2,9.707980156E0,2.991028305E-4,9.708119662E0
2.860440011E0,-3.529413417E-2,9.717552185E0,5.084747914E-3,9.717617609E0
2.862863501E0,-5.443671346E-2,9.712766647E0,-4.486542661E-3,9.712920232E0
2.865286469E0,-3.050848842E-2,9.707980156E0,7.477570791E-3,9.708030974E0
2.867710219E0,-7.357929647E-2,9.710372925E0,-2.093719784E-3,9.710651916E0
2.870134386E0,-5.682953820E-2,9.710372925E0,5.084747914E-3,9.710540551E0
2.872557980E0,-3.050848842E-2,9.696016312E0,9.870393202E-3,9.696069333E0
2.874981990E0,-2.333002165E-2,9.703194618E0,1.944168471E-2,9.703242142E0
2.877406469E0,-2.333002165E-2,9.693623543E0,3.140579537E-2,9.693702492E0
2.879830376E0,-2.093719877E-2,9.715159416E0,5.772684515E-2,9.715353480E0
2.882254542E0,-4.965107143E-2,9.703194618E0,5.533402413E-2,9.703479421E0
2.884679334E0,-3.290131316E-2,9.710372925E0,4.097708687E-2,9.710515123E0
2.887103344E0,-2.572284266E-2,9.729516029E0,2.662015148E-2,9.729586449E0
2.889527563E0,-7.118647546E-2,9.710372925E0,3.619144112E-2,9.710701297E0
2.891951417E0,-3.529413417E-2,9.719944954E0,-1.166501082E-2,9.720016032E0
2.894374959E0,-5.682953820E-2,9.700801849E0,1.226321608E-2,9.700976059E0
2.896798761E0,-4.725824669E-2,9.696016312E0,-1.884347759E-2,9.696149789E0
2.899222355E0,-4.486542568E-2,9.693623543E0,-1.405783277E-2,9.693737562E0
2.901646573E0,-1.375873014E-2,9.707980156E0,-9.272187948E-3,9.707994334E0
2.904070480E0,-3.050848842E-2,9.698409081E0,-1.166501082E-2,9.698464081E0
2.906494073E0,-2.572284266E-2,9.710372925E0,2.183450572E-2,9.710431543E0
2.908917563E0,-1.615155302E-2,9.688838005E0,2.662015148E-2,9.688888037E0
2.911340792E0,-5.922235921E-2,9.710372925E0,1.226321608E-2,9.710561261E0
2.913764490E0,-4.486542568E-2,9.679266930E0,2.422732860E-2,9.679401230E0
2.916188396E0,-5.204389244E-2,9.722337723E0,3.619144112E-2,9.722544378E0
2.918612042E0,-5.682953820E-2,9.688838005E0,3.858426586E-2,9.689081496E0
2.921035323E0,-3.768695518E-2,9.696016312E0,1.465603895E-2,9.696100630E0
2.923459126E0,-5.682953820E-2,9.734301567E0,2.183450572E-2,9.734491941E0
2.925883136E0,-4.007977992E-2,9.712766647E0,1.226321608E-2,9.712857083E0
2.928306105E0,-4.725824669E-2,9.705587387E0,1.226321608E-2,9.705710188E0
2.930729855E0,-3.050848842E-2,9.667302132E0,1.704886183E-2,9.667365305E0
2.933153761E0,-5.922235921E-2,9.703194618E0,7.477570791E-3,9.703378226E0
2.935577563E0,-5.922235921E-2,9.688838005E0,-2.093719784E-3,9.689019226E0
2.938000428E0,-6.400800496E-2,9.691230774E0,7.477570791E-3,9.691445034E0
2.940424126E0,-4.247260094E-2,9.715159416E0,3.379862010E-2,9.715311048E0
2.942847928E0,-5.204389244E-2,9.676874161E0,3.379862010E-2,9.677073134E0
2.945271730E0,-5.443671346E-2,9.696016312E0,3.140579537E-2,9.696219985E0
2.947695584E0,-5.682953820E-2,9.698409081E0,2.662015148E-2,9.698612113E0
2.950119021E0,-4.965107143E-2,9.698409081E0,3.619144112E-2,9.698603701E0
2.952542198E0,-3.768695518E-2,9.707980156E0,2.183450572E-2,9.708077861E0
2.954966730E0,-5.682953820E-2,9.700801849E0,1.944168471E-2,9.700987790E0
2.957390688E0,-3.529413417E-2,9.710372925E0,2.662015148E-2,9.710473554E0
2.959815480E0,-6.879365444E-2,9.679266930E0,1.944168471E-2,9.679530921E0
2.962239334E0,-5.443671346E-2,9.705587387E0,2.183450572E-2,9.705764608E0
2.964662928E0,-5.922235921E-2,9.698409081E0,2.422732860E-2,9.698620157E0
2.967086053E0,-4.486542568E-2,9.703194618E0,-1.405783277E-2,9.703308525E0
2.969510011E0,-3.768695518E-2,9.700801849E0,-1.405783277E-2,9.700885241E0
2.971933917E0,-5.922235921E-2,9.705587387E0,1.226321608E-2,9.705775817E0
2.974357823E0,-7.118647546E-2,9.707980156E0,1.465603895E-2,9.708252213E0
2.976781469E0,-5.443671346E-2,9.712766647E0,2.662015148E-2,9.712955674E0
2.979205532E0,-2.093719877E-2,9.705587387E0,1.704886183E-2,9.705624944E0
2.981628344E0,-2.811566554E-2,9.691230774E0,2.901297435E-2,9.691314986E0
2.984051990E0,-2.572284266E-2,9.739087105E0,2.662015148E-2,9.739157455E0
2.986475428E0,-3.050848842E-2,9.703194618E0,2.901297435E-2,9.703285955E0
2.988898969E0,-4.486542568E-2,9.696016312E0,1.465603895E-2,9.696131188E0
2.991322198E0,-2.572284266E-2,9.700801849E0,2.991028305E-4,9.700835958E0
2.993745688E0,-3.529413417E-2,9.715159416E0,-2.841476910E-2,9.715265079E0
2.996169751E0,-6.879365444E-2,9.698409081E0,-4.486542661E-3,9.698654102E0
2.998593709E0,-5.682953820E-2,9.684052467E0,-1.645065658E-2,9.684233187E0
3.001017511E0,-5.443671346E-2,9.676874161E0,2.991028305E-4,9.677027280E0
3.003441834E0,-5.204389244E-2,9.703194618E0,2.183450572E-2,9.703358754E0
3.005865480E0,-4.486542568E-2,9.717552185E0,2.183450572E-2,9.717680285E0
3.008289855E0,-6.161518395E-2,9.696016312E0,2.901297435E-2,9.696255489E0
3.010714282E0,-6.640082598E-2,9.696016312E0,3.619144112E-2,9.696311216E0
3.013138188E0,-4.247260094E-2,9.679266930E0,5.054837838E-2,9.679492102E0
3.015562303E0,-4.486542568E-2,9.688838005E0,2.901297435E-2,9.688985321E0
3.017986053E0,-5.443671346E-2,9.693623543E0,2.422732860E-2,9.693806668E0
3.020410323E0,-3.768695518E-2,9.686445236E0,2.422732860E-2,9.686548848E0
3.022834282E0,-5.443671346E-2,9.693623543E0,2.691925503E-3,9.693776766E0
3.025258032E0,-6.161518395E-2,9.707980156E0,2.901297435E-2,9.708219038E0
3.027681678E0,-7.118647546E-2,9.703194618E0,4.097708687E-2,9.703542262E0
3.030105792E0,-2.093719877E-2,9.710372925E0,5.294119939E-2,9.710539814E0
3.032529334E0,-5.682953820E-2,9.696016312E0,2.662015148E-2,9.696219394E0
3.034953292E0,-9.750752151E-2,9.693623543E0,2.183450572E-2,9.694138531E0
3.037376521E0,-5.922235921E-2,9.707980156E0,3.379862010E-2,9.708219628E0
3.039799803E0,-1.615155302E-2,9.705587387E0,3.858426586E-2,9.705677521E0
3.042223917E0,-4.486542568E-2,9.696016312E0,2.662015148E-2,9.696156654E0
3.044648344E0,-2.572284266E-2,9.698409081E0,1.465603895E-2,9.698454266E0
3.047072355E0,-4.725824669E-2,9.693623543E0,3.379862010E-2,9.693797660E0
3.049496469E0,-3.768695518E-2,9.710372925E0,2.662015148E-2,9.710482546E0
3.051920323E0,-6.400800496E-2,9.681659698E0,2.991028305E-4,9.681871288E0
3.054344021E0,-6.161518395E-2,9.684052467E0,5.294119939E-2,9.684393187E0
3.056768032E0,-5.922235921E-2,9.717552185E0,2.662015148E-2,9.717769106E0
3.059192303E0,-4.725824669E-2,9.700801849E0,5.084747914E-3,9.700918292E0
3.061616834E0,-4.486542568E-2,9.707980156E0,5.084747914E-3,9.708085160E0
3.064041105E0,-6.400800496E-2,9.707980156E0,2.183450572E-2,9.708215721E0
3.066465063E0,-6.161518395E-2,9.705587387E0,5.084747914E-3,9.705784297E0
3.068888969E0,-5.204389244E-2,9.700801849E0,7.477570791E-3,9.700944336E0
3.071312615E0,-3.050848842E-2,9.688838005E0,2.991028305E-4,9.688886043E0
3.073736053E0,-4.965107143E-2,9.712766647E0,2.991028305E-4,9.712893558E0
3.076160428E0,-7.597211748E-2,9.691230774E0,2.183450572E-2,9.691553148E0
3.078584438E0,-3.768695518E-2,9.707980156E0,1.226321608E-2,9.708061053E0
3.081008501E0,-4.247260094E-2,9.707980156E0,1.704886183E-2,9.708088035E0
3.083431886E0,-5.204389244E-2,9.717552185E0,2.422732860E-2,9.717721749E0
3.085855323E0,-5.922235921E-2,9.712766647E0,3.858426586E-2,9.713023833E0
3.088279073E0,-5.204389244E-2,9.724730492E0,1.226321608E-2,9.724877484E0
3.090702615E0,-4.725824669E-2,9.729516029E0,3.619144112E-2,9.729698111E0
3.093126053E0,-7.597211748E-2,9.710372925E0,2.691925503E-3,9.710670489E0
3.095549751E0,-2.572284266E-2,9.676874161E0,-2.093719784E-3,9.676908575E0
3.097973240E0,-3.768695518E-2,9.696016312E0,7.477570791E-3,9.696092436E0
3.100396730E0,-4.247260094E-2,9.715159416E0,2.991028305E-4,9.715252261E0
3.102820011E0,-2.811566554E-2,9.664909363E0,2.691925503E-3,9.664950632E0
3.105244073E0,-4.486542568E-2,9.717552185E0,3.379862010E-2,9.717714532E0
3.107667876E0,-4.007977992E-2,9.700801849E0,9.870393202E-3,9.700889667E0
3.110092251E0,-3.768695518E-2,9.700801849E0,2.183450572E-2,9.700899627E0
3.112515948E0,-7.357929647E-2,9.705587387E0,3.379862010E-2,9.705925138E0
3.114940376E0,-5.443671346E-2,9.691230774E0,3.858426586E-2,9.691460469E0
3.117364230E0,-4.725824669E-2,9.722337723E0,1.944168471E-2,9.722472017E0
3.119787667E0,-7.357929647E-2,9.712766647E0,1.704886183E-2,9.713060307E0
3.122211573E0,-8.315058798E-2,9.703194618E0,2.901297435E-2,9.703594260E0
3.124635323E0,-4.007977992E-2,9.715159416E0,2.422732860E-2,9.715272299E0
3.127058709E0,-4.486542568E-2,9.712766647E0,1.944168471E-2,9.712889726E0
3.129482198E0,-4.725824669E-2,9.710372925E0,2.183450572E-2,9.710512470E0
3.131906157E0,-4.247260094E-2,9.710372925E0,2.691925503E-3,9.710466184E0
3.134329907E0,-3.050848842E-2,9.698409081E0,-1.884347759E-2,9.698475372E0
3.136753188E0,-4.247260094E-2,9.691230774E0,-6.879365072E-3,9.691326285E0
3.139177146E0,-4.725824669E-2,9.710372925E0,1.226321608E-2,9.710495665E0
3.141601313E0,-3.529413417E-2,9.693623543E0,2.183450572E-2,9.693712385E0
3.144025271E0,-4.247260094E-2,9.703194618E0,2.901297435E-2,9.703330947E0
3.146448761E0,-4.725824669E-2,9.707980156E0,7.477570791E-3,9.708098061E0
3.148872615E0,-3.768695518E-2,9.705587387E0,1.944168471E-2,9.705680028E0
3.151296261E0,-2.093719877E-2,9.705587387E0,1.704886183E-2,9.705624944E0
3.153720271E0,-4.965107143E-2,9.712766647E0,3.858426586E-2,9.712970190E0
3.156144073E0,-8.315058798E-2,9.710372925E0,5.294119939E-2,9.710873242E0
3.158568709E0,-5.922235921E-2,9.722337723E0,2.662015148E-2,9.722554537E0
3.160992771E0,-3.290131316E-2,9.719944954E0,3.858426586E-2,9.720077219E0
3.163416469E0,-6.400800496E-2,9.705587387E0,2.901297435E-2,9.705841813E0
3.165840011E0,-4.725824669E-2,9.698409081E0,3.619144112E-2,9.698591746E0
3.168263969E0,-4.965107143E-2,9.710372925E0,2.422732860E-2,9.710530085E0
3.170687615E0,-4.725824669E-2,9.722337723E0,3.379862010E-2,9.722511326E0
3.173111573E0,-4.247260094E-2,9.686445236E0,2.422732860E-2,9.686568649E0
3.175534803E0,-4.486542568E-2,9.672088623E0,7.477570791E-3,9.672195570E0
3.177958813E0,-3.529413417E-2,9.693623543E0,2.662015148E-2,9.693724346E0
3.180383084E0,-3.768695518E-2,9.700801849E0,2.662015148E-2,9.700911579E0
3.182807198E0,-4.007977992E-2,9.693623543E0,-4.486542661E-3,9.693707439E0
3.185231313E0,-4.247260094E-2,9.696016312E0,1.944168471E-2,9.696128826E0
3.187654803E0,-5.682953820E-2,9.688838005E0,1.944168471E-2,9.689024175E0
3.190078917E0,-5.204389244E-2,9.681659698E0,1.465603895E-2,9.681810672E0
3.192503448E0,-4.247260094E-2,9.705587387E0,2.662015148E-2,9.705716825E0
3.194926834E0,-4.247260094E-2,9.691230774E0,2.422732860E-2,9.691354126E0
3.197350219E0,-5.922235921E-2,9.722337723E0,5.084747914E-3,9.722519423E0
3.199773969E0,-3.290131316E-2,9.705587387E0,2.991028305E-4,9.705643158E0
3.202197251E0,-3.529413417E-2,9.703194618E0,2.991028305E-4,9.703258812E0
3.204620636E0,-6.640082598E-2,9.717552185E0,1.704886183E-2,9.717793999E0
3.207043709E0,-5.922235921E-2,9.717552185E0,7.477570791E-3,9.717735522E0
3.209467303E0,-5.204389244E-2,9.700801849E0,1.944168471E-2,9.700960935E0
3.211890532E0,-4.725824669E-2,9.698409081E0,2.991028305E-4,9.698524224E0
3.214313657E0,-2.333002165E-2,9.719944954E0,2.991028305E-4,9.719972957E0
3.216737563E0,-1.854437590E-2,9.693623543E0,-6.879365072E-3,9.693643722E0
3.219161001E0,-4.007977992E-2,9.710372925E0,-6.879365072E-3,9.710458076E0
3.221583917E0,-5.682953820E-2,9.703194618E0,5.084747914E-3,9.703362368E0
3.224007303E0,-8.973085321E-3,9.705587387E0,1.944168471E-2,9.705611007E0
3.226431209E0,-4.247260094E-2,9.710372925E0,2.183450572E-2,9.710490359E0
3.228854803E0,-5.204389244E-2,9.693623543E0,3.379862010E-2,9.693822172E0
3.231278917E0,-7.836493850E-2,9.696016312E0,4.097708687E-2,9.696419571E0
3.233702719E0,-4.486542568E-2,9.712766647E0,4.815555736E-2,9.712989643E0
3.236125428E0,-4.007977992E-2,9.676874161E0,3.140579537E-2,9.677008124E0
3.238548448E0,-4.486542568E-2,9.705587387E0,4.336991161E-2,9.705787984E0
3.240972459E0,-4.486542568E-2,9.707980156E0,4.576273263E-2,9.708191688E0
3.243396521E0,-4.007977992E-2,9.705587387E0,1.704886183E-2,9.705685117E0
3.245820532E0,-5.204389244E-2,9.712766647E0,-2.093719784E-3,9.712906305E0
3.248243761E0,-4.247260094E-2,9.700801849E0,-1.645065658E-2,9.700908775E0
3.250667719E0,-4.247260094E-2,9.698409081E0,-3.559323773E-2,9.698567394E0
3.253090948E0,-4.247260094E-2,9.712766647E0,-9.272187948E-3,9.712863936E0
3.255514178E0,-4.486542568E-2,9.686445236E0,-1.645065658E-2,9.686563108E0
3.257938136E0,-5.443671346E-2,9.700801849E0,1.226321608E-2,9.700962337E0
3.260361678E0,-4.007977992E-2,9.674481392E0,2.691925503E-3,9.674564788E0
3.262785063E0,-2.572284266E-2,9.691230774E0,1.226321608E-2,9.691272670E0
3.265209334E0,-4.486542568E-2,9.703194618E0,2.422732860E-2,9.703328587E0
3.267633396E0,-6.400800496E-2,9.684052467E0,2.901297435E-2,9.684307459E0
3.270058501E0,-5.922235921E-2,9.703194618E0,2.662015148E-2,9.703411860E0
3.272482094E0,-6.161518395E-2,9.686445236E0,4.815555736E-2,9.686760898E0
3.274905844E0,-7.597211748E-2,9.688838005E0,4.097708687E-2,9.689222506E0
3.277329438E0,-5.443671346E-2,9.705587387E0,4.815555736E-2,9.705859511E0
3.279753344E0,-5.922235921E-2,9.700801849E0,4.097708687E-2,9.701069164E0
3.282177198E0,-5.922235921E-2,9.727123260E0,5.054837838E-2,9.727434880E0
3.284601001E0,-4.247260094E-2,9.712766647E0,4.097708687E-2,9.712945948E0
3.287024803E0,-5.922235921E-2,9.696016312E0,2.183450572E-2,9.696221756E0
3.289448344E0,-3.050848842E-2,9.710372925E0,2.183450572E-2,9.710445399E0
3.291872667E0,-2.811566554E-2,9.698409081E0,2.662015148E-2,9.698486367E0
3.294296573E0,-3.290131316E-2,9.727123260E0,2.183450572E-2,9.727203409E0
3.296720792E0,-5.443671346E-2,9.696016312E0,2.183450572E-2,9.696193708E0
3.299145532E0,-6.161518395E-2,9.700801849E0,1.226321608E-2,9.701005275E0
3.301569021E0,-5.682953820E-2,9.703194618E0,9.870393202E-3,9.703366056E0
3.303992667E0,-3.529413417E-2,9.693623543E0,2.901297435E-2,9.693731212E0
3.306416001E0,-1.854437590E-2,9.707980156E0,2.662015148E-2,9.708034365E0
3.308839386E0,-3.768695518E-2,9.700801849E0,5.084747914E-3,9.700876387E0
3.311263448E0,-6.580262445E-3,9.707980156E0,-2.093719784E-3,9.707982612E0
3.313687667E0,-4.486542568E-2,9.691230774E0,1.465603895E-2,9.691345707E0
3.316111626E0,-4.486542568E-2,9.710372925E0,2.183450572E-2,9.710501119E0
3.318535428E0,-5.204389244E-2,9.696016312E0,2.183450572E-2,9.696180569E0
3.320958969E0,-4.486542568E-2,9.688838005E0,1.226321608E-2,9.688949643E0
3.323382563E0,-5.443671346E-2,9.681659698E0,2.183450572E-2,9.681837358E0
3.325806626E0,-4.007977992E-2,9.684052467E0,2.662015148E-2,9.684171994E0
3.328229698E0,-4.965107143E-2,9.698409081E0,1.944168471E-2,9.698555661E0
3.330652667E0,-5.443671346E-2,9.693623543E0,1.465603895E-2,9.693787472E0
3.333076417E0,-3.768695518E-2,9.712766647E0,2.662015148E-2,9.712876242E0
3.335500636E0,-1.136590727E-2,9.707980156E0,3.140579537E-2,9.708037609E0
3.337924594E0,-6.400800496E-2,9.681659698E0,1.465603895E-2,9.681882376E0
3.340348448E0,-7.597211748E-2,9.696016312E0,-4.486542661E-3,9.696314981E0
3.342772094E0,-4.007977992E-2,9.707980156E0,-2.093719784E-3,9.708063117E0
3.345196261E0,-4.486542568E-2,9.705587387E0,2.691925503E-3,9.705691458E0
3.347619907E0,-4.965107143E-2,9.698409081E0,9.870393202E-3,9.698541197E0
3.350044282E0,-3.050848842E-2,9.712766647E0,1.704886183E-2,9.712829525E0
3.352468396E0,-5.443671346E-2,9.693623543E0,2.183450572E-2,9.693800983E0
3.354892146E0,-6.400800496E-2,9.717552185E0,1.465603895E-2,9.717774040E0
3.357316053E0,-4.247260094E-2,9.691230774E0,9.870393202E-3,9.691328870E0
3.359739907E0,-4.007977992E-2,9.705587387E0,2.662015148E-2,9.705706649E0
3.362164490E0,-5.443671346E-2,9.707980156E0,1.226321608E-2,9.708140525E0
3.364588657E0,-4.486542568E-2,9.707980156E0,3.379862010E-2,9.708142663E0
3.367012771E0,-4.486542568E-2,9.693623543E0,1.944168471E-2,9.693746865E0
3.369436469E0,-4.486542568E-2,9.691230774E0,4.097708687E-2,9.691421255E0
3.371860844E0,-4.247260094E-2,9.698409081E0,3.379862010E-2,9.698560974E0
3.374285011E0,-4.247260094E-2,9.686445236E0,3.140579537E-2,9.686589264E0
3.376709438E0,-6.640082598E-2,9.700801849E0,1.704886183E-2,9.701044081E0
3.379133240E0,-4.486542568E-2,9.705587387E0,5.084747914E-3,9.705692417E0
3.381556678E0,-6.400800496E-2,9.700801849E0,1.465603895E-2,9.701024087E0
3.383980219E0,-6.161518395E-2,9.686445236E0,7.477570791E-3,9.686644087E0
3.386403709E0,-4.007977992E-2,9.667302132E0,2.422732860E-2,9.667415573E0
3.388827928E0,-5.443671346E-2,9.700801849E0,3.140579537E-2,9.701005422E0
3.391251626E0,-4.965107143E-2,9.707980156E0,1.465603895E-2,9.708118187E0
3.393675948E0,-5.443671346E-2,9.700801849E0,2.422732860E-2,9.700984839E0
3.396099751E0,-3.768695518E-2,9.669695854E0,2.901297435E-2,9.669812820E0
3.398523605E0,-6.879365444E-2,9.698409081E0,5.084747914E-3,9.698654397E0
3.400948761E0,-4.965107143E-2,9.705587387E0,7.477570791E-3,9.705717267E0
3.403373501E0,-5.682953820E-2,9.712766647E0,3.140579537E-2,9.712983675E0
3.405797563E0,-5.922235921E-2,9.684052467E0,2.422732860E-2,9.684263856E0
3.408221417E0,-4.007977992E-2,9.707980156E0,1.226321608E-2,9.708070637E0
3.410645428E0,-4.725824669E-2,9.696016312E0,7.477570791E-3,9.696134362E0
3.413068917E0,-4.725824669E-2,9.710372925E0,1.944168471E-2,9.710507384E0
3.415492146E0,-3.529413417E-2,9.703194618E0,7.477570791E-3,9.703261688E0
3.417915740E0,-4.725824669E-2,9.707980156E0,5.084747914E-3,9.708096513E0
3.420340011E0,-5.443671346E-2,9.712766647E0,5.084747914E-3,9.712920527E0
3.422762928E0,-4.965107143E-2,9.715159416E0,4.576273263E-2,9.715394070E0
3.425186313E0,-4.486542568E-2,9.688838005E0,2.662015148E-2,9.688978451E0
3.427610115E0,-4.007977992E-2,9.676874161E0,1.704886183E-2,9.676972180E0
3.430033657E0,-4.486542568E-2,9.696016312E0,1.226321608E-2,9.696127867E0
3.432457667E0,-6.640082598E-2,9.722337723E0,2.183450572E-2,9.722588987E0
3.434881990E0,-3.768695518E-2,9.719944954E0,2.901297435E-2,9.720061315E0
3.437305323E0,-4.007977992E-2,9.710372925E0,5.084747914E-3,9.710456971E0
3.439728292E0,-4.247260094E-2,9.700801849E0,2.691925503E-3,9.700895200E0
3.442151521E0,-3.768695518E-2,9.700801849E0,2.991028305E-4,9.700875059E0
3.444575271E0,-3.050848842E-2,9.717552185E0,1.704886183E-2,9.717615032E0
3.446998657E0,-4.247260094E-2,9.703194618E0,1.944168471E-2,9.703307050E0
3.449421886E0,-3.768695518E-2,9.693623543E0,2.901297435E-2,9.693740220E0
3.451845480E0,-2.572284266E-2,9.672088623E0,3.140579537E-2,9.672173816E0
3.454269438E0,-4.725824669E-2,9.672088623E0,3.619144112E-2,9.672271786E0
3.456693292E0,-6.640082598E-2,9.710372925E0,3.379862010E-2,9.710658770E0
3.459117146E0,-6.640082598E-2,9.719944954E0,3.379862010E-2,9.720230518E0
3.461541313E0,-4.247260094E-2,9.727123260E0,1.704886183E-2,9.727230927E0
3.463965792E0,-5.204389244E-2,9.698409081E0,5.084747914E-3,9.698550052E0
3.466389542E0,-5.443671346E-2,9.691230774E0,5.084747914E-3,9.691384995E0
3.468812511E0,-2.811566554E-2,9.698409081E0,-1.645065658E-2,9.698463786E0
3.471235896E0,-3.050848842E-2,9.686445236E0,-9.272187948E-3,9.686497719E0
3.473659490E0,-3.529413417E-2,9.696016312E0,-2.123630047E-2,9.696103804E0
3.476083188E0,-3.529413417E-2,9.696016312E0,5.084747914E-3,9.696081881E0
3.478507771E0,-5.204389244E-2,9.715159416E0,1.704886183E-2,9.715313773E0
3.480931626E0,-3.290131316E-2,9.688838005E0,2.901297435E-2,9.688937307E0
3.483355636E0,-1.615155302E-2,9.703194618E0,3.140579537E-2,9.703258885E0
3.485779126E0,-4.486542568E-2,9.712766647E0,4.097708687E-2,9.712956706E0
3.488202459E0,-4.965107143E-2,9.715159416E0,4.097708687E-2,9.715372707E0
3.490625428E0,-6.161518395E-2,9.705587387E0,2.422732860E-2,9.705813203E0
3.493048761E0,-4.725824669E-2,9.693623543E0,3.140579537E-2,9.693789613E0
3.495472042E0,-5.443671346E-2,9.700801849E0,1.704886183E-2,9.700969567E0
3.497895844E0,-4.965107143E-2,9.672088623E0,9.870393202E-3,9.672221099E0
3.500320011E0,-4.486542568E-2,9.703194618E0,2.691925503E-3,9.703298715E0
3.502744230E0,-5.204389244E-2,9.700801849E0,9.870393202E-3,9.700946475E0
3.505167511E0,-3.290131316E-2,9.700801849E0,-1.166501082E-2,9.700864657E0
3.507591313E0,-3.768695518E-2,9.715159416E0,7.477570791E-3,9.715235391E0
3.510014907E0,-6.161518395E-2,9.712766647E0,2.901297435E-2,9.713005412E0
3.512439073E0,-4.725824669E-2,9.719944954E0,3.619144112E-2,9.720127215E0
3.514862459E0,-4.965107143E-2,9.719944954E0,2.901297435E-2,9.720115066E0
3.517286105E0,-4.007977992E-2,9.681659698E0,1.704886183E-2,9.681757669E0
3.519710219E0,-4.965107143E-2,9.688838005E0,1.465603895E-2,9.688976309E0
3.522134334E0,-5.443671346E-2,9.712766647E0,1.704886183E-2,9.712934158E0
3.524558188E0,-4.965107143E-2,9.719944954E0,2.183450572E-2,9.720096290E0
3.526982042E0,-5.443671346E-2,9.698409081E0,1.944168471E-2,9.698581341E0
3.529405844E0,-3.290131316E-2,9.691230774E0,7.477570791E-3,9.691289508E0
3.531830480E0,-4.725824669E-2,9.719944954E0,1.944168471E-2,9.720079281E0
3.534255428E0,-6.640082598E-2,9.710372925E0,7.477570791E-3,9.710602830E0
3.536679542E0,-6.400800496E-2,9.722337723E0,2.691925503E-3,9.722548795E0
3.539103396E0,-3.768695518E-2,9.703194618E0,5.084747914E-3,9.703269138E0
3.541527407E0,-4.965107143E-2,9.717552185E0,1.226321608E-2,9.717686766E0
3.543951782E0,-3.768695518E-2,9.724730492E0,1.465603895E-2,9.724814561E0
3.546375532E0,-4.725824669E-2,9.712766647E0,-2.362912335E-2,9.712910358E0
3.548799646E0,-4.965107143E-2,9.700801849E0,-6.879365072E-3,9.700931351E0
3.551223969E0,-3.768695518E-2,9.705587387E0,-6.879365072E-3,9.705662994E0
3.553648032E0,-3.768695518E-2,9.703194618E0,7.477570791E-3,9.703270687E0
3.556071469E0,-4.007977992E-2,9.698409081E0,2.183450572E-2,9.698516476E0
3.558495480E0,-5.204389244E-2,9.693623543E0,7.477570791E-3,9.693766134E0
3.560919334E0,-4.247260094E-2,9.698409081E0,3.140579537E-2,9.698552930E0
3.563343136E0,-4.007977992E-2,9.698409081E0,4.097708687E-2,9.698578463E0
3.565767198E0,-3.529413417E-2,9.693623543E0,5.533402413E-2,9.693845724E0
3.568190896E0,-3.529413417E-2,9.696016312E0,3.858426586E-2,9.696157318E0
3.570614386E0,-4.965107143E-2,9.698409081E0,1.465603895E-2,9.698547248E0
3.573038240E0,-4.247260094E-2,9.698409081E0,1.704886183E-2,9.698517066E0
3.575462667E0,-4.247260094E-2,9.688838005E0,2.662015148E-2,9.688967667E0
3.577886313E0,-4.725824669E-2,9.705587387E0,4.336991161E-2,9.705799340E0
3.580310167E0,-4.486542568E-2,9.696016312E0,3.619144112E-2,9.696187655E0
3.582734855E0,-6.161518395E-2,9.705587387E0,2.901297435E-2,9.705826328E0
3.585158709E0,-4.725824669E-2,9.691230774E0,5.054837838E-2,9.691477823E0
3.587582094E0,-4.725824669E-2,9.712766647E0,3.858426586E-2,9.712958253E0
3.590005532E0,-5.922235921E-2,9.691230774E0,3.140579537E-2,9.691462610E0
3.592428969E0,-4.007977992E-2,9.698409081E0,2.422732860E-2,9.698522158E0
3.594853240E0,-4.007977992E-2,9.691230774E0,3.858426586E-2,9.691390460E0
3.597277303E0,-4.007977992E-2,9.705587387E0,2.422732860E-2,9.705700381E0
3.599700896E0,-4.725824669E-2,9.715159416E0,2.183450572E-2,9.715298892E0
3.602124855E0,-5.204389244E-2,9.703194618E0,2.422732860E-2,9.703364434E0
3.604548240E0,-3.290131316E-2,9.712766647E0,4.097708687E-2,9.712908811E0
3.606972042E0,-5.922235921E-2,9.691230774E0,7.477570791E-3,9.691414609E0
3.609396469E0,-4.725824669E-2,9.698409081E0,3.858426586E-2,9.698600970E0
3.611820011E0,-5.204389244E-2,9.715159416E0,1.704886183E-2,9.715313773E0
3.614244021E0,-4.965107143E-2,9.693623543E0,2.991028305E-4,9.693750704E0
3.616667876E0,-4.007977992E-2,9.693623543E0,9.870393202E-3,9.693711426E0
3.619092094E0,-4.965107143E-2,9.705587387E0,-1.166501082E-2,9.705721397E0
3.621516001E0,-5.204389244E-2,9.703194618E0,-2.841476910E-2,9.703375792E0
3.623939855E0,-4.725824669E-2,9.676874161E0,-1.405783277E-2,9.676999767E0
3.626363084E0,-4.007977992E-2,9.700801849E0,-2.093719784E-3,9.700884872E0
3.628786313E0,-3.768695518E-2,9.698409081E0,-9.272187948E-3,9.698486736E0
3.631209334E0,-3.050848842E-2,9.703194618E0,2.991028305E-4,9.703242585E0
3.633632876E0,-5.443671346E-2,9.700801849E0,2.991028305E-4,9.700954590E0
3.636056886E0,-4.965107143E-2,9.705587387E0,7.477570791E-3,9.705717267E0
3.638480792E0,-5.922235921E-2,9.696016312E0,2.422732860E-2,9.696227440E0
3.640904021E0,-4.965107143E-2,9.703194618E0,3.379862010E-2,9.703380513E0
3.643327303E0,-3.290131316E-2,9.693623543E0,1.226321608E-2,9.693687135E0
3.645749959E0,-6.161518395E-2,9.707980156E0,2.662015148E-2,9.708212182E0
3.648173448E0,-4.725824669E-2,9.693623543E0,1.465603895E-2,9.693749818E0
3.650596730E0,-5.682953820E-2,9.710372925E0,9.870393202E-3,9.710544236E0
3.653020844E0,-2.333002165E-2,9.707980156E0,1.226321608E-2,9.708015935E0
3.655444334E0,-3.290131316E-2,9.707980156E0,9.870393202E-3,9.708040926E0
3.657867719E0,-3.050848842E-2,9.693623543E0,1.704886183E-2,9.693686544E0
3.660291053E0,-5.922235921E-2,9.700801849E0,1.704886183E-2,9.700997602E0
3.662715636E0,-4.725824669E-2,9.700801849E0,2.662015148E-2,9.700953484E0
3.665139126E0,-4.725824669E-2,9.710372925E0,2.691925503E-3,9.710488295E0
3.667562667E0,-4.486542568E-2,9.703194618E0,5.084747914E-3,9.703299674E0
3.669986573E0,-6.400800496E-2,9.686445236E0,3.619144112E-2,9.686724326E0
3.672410532E0,-4.007977992E-2,9.672088623E0,2.422732860E-2,9.672202008E0
3.674833761E0,-4.007977992E-2,9.688838005E0,4.336991161E-2,9.689017970E0
3.677257563E0,-6.161518395E-2,9.719944954E0,3.619144112E-2,9.720207619E0
3.679681626E0,-7.357929647E-2,9.719944954E0,4.576273263E-2,9.720331170E0
3.682105115E0,-4.486542568E-2,9.698409081E0,3.619144112E-2,9.698580382E0
3.684528188E0,-7.118647546E-2,9.693623543E0,4.097708687E-2,9.693971530E0
3.686952146E0,-2.572284266E-2,9.691230774E0,9.870393202E-3,9.691269938E0
3.689375844E0,-4.247260094E-2,9.703194618E0,1.944168471E-2,9.703307050E0
3.691799646E0,-4.007977992E-2,9.703194618E0,2.901297435E-2,9.703320769E0
3.694222615E0,-4.965107143E-2,9.681659698E0,1.465603895E-2,9.681798105E0
3.696645896E0,-5.443671346E-2,9.696016312E0,2.691925503E-3,9.696169497E0
3.699069021E0,-5.204389244E-2,9.686445236E0,2.991028305E-4,9.686585052E0
3.701492303E0,-3.290131316E-2,9.710372925E0,7.477570791E-3,9.710431543E0
3.703915948E0,-7.836493850E-2,9.717552185E0,9.870393202E-3,9.717873170E0
3.706338969E0,-5.443671346E-2,9.700801849E0,2.183450572E-2,9.700979158E0
3.708762511E0,-6.640082598E-2,9.667302132E0,2.183450572E-2,9.667554826E0
3.711186209E0,-5.443671346E-2,9.696016312E0,1.465603895E-2,9.696180200E0
3.713610115E0,-6.640082598E-2,9.717552185E0,1.944168471E-2,9.717798491E0
3.716034594E0,-7.118647546E-2,9.705587387E0,2.991028305E-4,9.705848450E0
3.718458553E0,-6.161518395E-2,9.705587387E0,1.944168471E-2,9.705802437E0
3.720882094E0,-5.682953820E-2,9.710372925E0,2.183450572E-2,9.710563767E0
3.723305428E0,-3.290131316E-2,9.703194618E0,1.944168471E-2,9.703269875E0
3.725728344E0,-5.204389244E-2,9.691230774E0,-2.093719784E-3,9.691370742E0
3.728151626E0,-6.640082598E-2,9.691230774E0,1.944168471E-2,9.691477749E0
3.730574334E0,-1.375873014E-2,9.676874161E0,9.870393202E-3,9.676888976E0
3.732997251E0,-2.811566554E-2,9.691230774E0,2.991028305E-4,9.691271562E0
3.735420480E0,-4.725824669E-2,9.693623543E0,2.691925503E-3,9.693739112E0
3.737844282E0,-5.204389244E-2,9.684052467E0,2.901297435E-2,9.684235773E0
3.740267719E0,-4.965107143E-2,9.700801849E0,7.477570791E-3,9.700931794E0
3.742691521E0,-3.290131316E-2,9.703194618E0,9.870393202E-3,9.703255419E0
3.745115271E0,-4.725824669E-2,9.696016312E0,2.422732860E-2,9.696161747E0
3.747537511E0,-3.768695518E-2,9.693623543E0,2.662015148E-2,9.693733353E0
3.749960376E0,-2.811566554E-2,9.719944954E0,2.901297435E-2,9.720028917E0
3.752384073E0,-3.768695518E-2,9.698409081E0,1.944168471E-2,9.698501790E0
3.754807303E0,-3.050848842E-2,9.696016312E0,2.183450572E-2,9.696088893E0
3.757230323E0,-4.965107143E-2,9.698409081E0,3.858426586E-2,9.698612925E0
3.759653188E0,-5.682953820E-2,9.688838005E0,1.465603895E-2,9.689015754E0
3.762076469E0,-4.247260094E-2,9.707980156E0,2.422732860E-2,9.708103295E0
3.764500219E0,-2.811566554E-2,9.710372925E0,2.991028305E-4,9.710413633E0
3.766923136E0,-1.615155302E-2,9.707980156E0,-4.486542661E-3,9.707994629E0
3.769345688E0,-4.007977992E-2,9.688838005E0,2.991028305E-4,9.688920908E0
3.771769230E0,-4.965107143E-2,9.703194618E0,7.477570791E-3,9.703324530E0
3.774192615E0,-2.811566554E-2,9.719944954E0,2.183450572E-2,9.720010141E0
3.776616105E0,-2.333002165E-2,9.705587387E0,1.465603895E-2,9.705626493E0
3.779039073E0,-2.811566554E-2,9.681659698E0,2.901297435E-2,9.681743994E0
3.781461886E0,-5.443671346E-2,9.712766647E0,1.944168471E-2,9.712938653E0
3.783884698E0,-2.333002165E-2,9.698409081E0,1.944168471E-2,9.698456628E0
3.786308032E0,-5.682953820E-2,9.693623543E0,1.704886183E-2,9.693805117E0
3.788731573E0,-3.290131316E-2,9.676874161E0,3.140579537E-2,9.676981055E0
3.791155219E0,-4.965107143E-2,9.672088623E0,2.422732860E-2,9.672246405E0
3.793579334E0,-4.486542568E-2,9.693623543E0,2.691925503E-3,9.693727742E0
3.796002928E0,-2.811566554E-2,9.691230774E0,2.691925503E-3,9.691271932E0
3.798427355E0,-4.965107143E-2,9.693623543E0,-2.093719784E-3,9.693750925E0
3.800851001E0,-4.486542568E-2,9.710372925E0,-4.486542661E-3,9.710477608E0
3.803274751E0,-5.204389244E-2,9.693623543E0,2.691925503E-3,9.693763624E0
3.805698136E0,-9.750752151E-2,9.693623543E0,2.991028305E-4,9.694113946E0
3.808122251E0,-6.879365444E-2,9.707980156E0,9.870393202E-3,9.708228917E0
3.810546417E0,-5.682953820E-2,9.707980156E0,2.183450572E-2,9.708171046E0
3.812969907E0,-4.486542568E-2,9.693623543E0,3.379862010E-2,9.693786290E0
3.815392667E0,-5.204389244E-2,9.684052467E0,4.815555736E-2,9.684312041E0
3.817816521E0,-3.768695518E-2,9.700801849E0,3.619144112E-2,9.700942565E0
3.820240584E0,-6.161518395E-2,9.703194618E0,2.422732860E-2,9.703420489E0
3.822664230E0,-5.922235921E-2,9.705587387E0,3.140579537E-2,9.705818880E0
3.825087876E0,-5.443671346E-2,9.717552185E0,1.465603895E-2,9.717715710E0
3.827511261E0,-5.443671346E-2,9.691230774E0,1.226321608E-2,9.691391420E0
3.829934698E0,-3.529413417E-2,9.684052467E0,-2.093719784E-3,9.684117009E0
3.832358553E0,-4.965107143E-2,9.707980156E0,-6.879365072E-3,9.708109562E0
3.834782876E0,-6.879365444E-2,9.698409081E0,-3.080759197E-2,9.698701994E0
3.837206886E0,-7.118647546E-2,9.696016312E0,-6.879365072E-3,9.696280068E0
3.839630792E0,-5.204389244E-2,9.674481392E0,-4.486542661E-3,9.674622416E0
3.842054282E0,-4.725824669E-2,9.707980156E0,2.901297435E-2,9.708138534E0
3.844478188E0,-5.204389244E-2,9.676874161E0,3.140579537E-2,9.677065072E0
3.846901782E0,-5.443671346E-2,9.691230774E0,4.097708687E-2,9.691470290E0
3.849325636E0,-3.768695518E-2,9.700801849E0,3.379862010E-2,9.700933933E0
3.851749803E0,-4.007977992E-2,9.703194618E0,4.336991161E-2,9.703374317E0
3.854173344E0,-4.007977992E-2,9.705587387E0,4.815555736E-2,9.705789606E0
3.856597303E0,-4.725824669E-2,9.703194618E0,3.858426586E-2,9.703386413E0
3.859020740E0,-5.922235921E-2,9.686445236E0,2.662015148E-2,9.686662853E0
3.861444178E0,-3.050848842E-2,9.710372925E0,1.226321608E-2,9.710428595E0
3.863867980E0,-2.572284266E-2,9.698409081E0,-4.486542661E-3,9.698444230E0
3.866292198E0,-2.333002165E-2,9.693623543E0,-2.123630047E-2,9.693674879E0
3.868716261E0,-4.965107143E-2,9.698409081E0,5.084747914E-3,9.698537507E0
3.871139855E0,-6.161518395E-2,9.700801849E0,-9.272187948E-3,9.701001955E0
3.873563292E0,-2.333002165E-2,9.696016312E0,7.477570791E-3,9.696047263E0
3.875987042E0,-2.811566554E-2,9.700801849E0,1.944168471E-2,9.700862075E0
3.878410115E0,-6.161518395E-2,9.705587387E0,3.140579537E-2,9.705833776E0
3.880833344E0,-5.204389244E-2,9.717552185E0,4.336991161E-2,9.717788328E0
3.883257146E0,-4.247260094E-2,9.676874161E0,2.422732860E-2,9.676997696E0
3.885681053E0,-6.640082598E-2,9.715159416E0,2.183450572E-2,9.715410866E0
3.888104386E0,-6.400800496E-2,9.717552185E0,4.097708687E-2,9.717849382E0
3.890528136E0,-5.682953820E-2,9.688838005E0,2.422732860E-2,9.689034960E0
3.892952094E0,-3.768695518E-2,9.707980156E0,2.901297435E-2,9.708096660E0
3.895375323E0,-5.204389244E-2,9.712766647E0,2.183450572E-2,9.712930621E0
3.897799334E0,-3.529413417E-2,9.688838005E0,3.858426586E-2,9.688979116E0
3.900222198E0,-4.486542568E-2,9.684052467E0,1.226321608E-2,9.684164160E0
3.902646521E0,-6.879365444E-2,9.700801849E0,5.084747914E-3,9.701047105E0
3.905070115E0,-5.443671346E-2,9.681659698E0,-6.879365072E-3,9.681815181E0
3.907493813E0,-4.965107143E-2,9.681659698E0,2.691925503E-3,9.681787386E0
3.909917355E0,-4.725824669E-2,9.696016312E0,2.662015148E-2,9.696168021E0
3.912341105E0,-4.247260094E-2,9.722337723E0,3.379862010E-2,9.722489242E0
3.914764959E0,-4.725824669E-2,9.703194618E0,5.294119939E-2,9.703454123E0
3.917189178E0,-2.333002165E-2,9.715159416E0,5.054837838E-2,9.715318930E0
3.919612823E0,-3.290131316E-2,9.700801849E0,4.576273263E-2,9.700965583E0
3.922036521E0,-5.204389244E-2,9.686445236E0,1.944168471E-2,9.686604558E0
3.924460271E0,-3.290131316E-2,9.707980156E0,2.422732860E-2,9.708066139E0
3.926884073E0,-4.486542568E-2,9.715159416E0,4.576273263E-2,9.715370791E0
3.929308605E0,-6.400800496E-2,9.679266930E0,2.183450572E-2,9.679503193E0
3.931732563E0,-6.879365444E-2,9.705587387E0,1.226321608E-2,9.705838938E0
3.934156990E0,-4.965107143E-2,9.712766647E0,9.870393202E-3,9.712898568E0
3.936581209E0,-5.204389244E-2,9.717552185E0,2.691925503E-3,9.717691922E0
3.939004959E0,-5.922235921E-2,9.717552185E0,-2.093719784E-3,9.717732870E0
3.941428813E0,-5.682953820E-2,9.722337723E0,9.870393202E-3,9.722508823E0
3.943852407E0,-5.682953820E-2,9.719944954E0,2.183450572E-2,9.720135609E0
3.946276157E0,-5.204389244E-2,9.715159416E0,1.226321608E-2,9.715306554E0
3.948699803E0,-3.768695518E-2,9.691230774E0,2.183450572E-2,9.691328648E0
3.951123605E0,-5.922235921E-2,9.691230774E0,5.294119939E-2,9.691556324E0
3.953547563E0,-4.486542568E-2,9.696016312E0,3.140579537E-2,9.696170973E0
3.955971834E0,-3.050848842E-2,9.712766647E0,3.140579537E-2,9.712865336E0
3.958395792E0,-4.486542568E-2,9.703194618E0,2.901297435E-2,9.703341716E0
3.960819438E0,-3.768695518E-2,9.691230774E0,2.662015148E-2,9.691340612E0
3.963243188E0,-5.922235921E-2,9.703194618E0,3.619144112E-2,9.703442838E0
3.965667042E0,-6.640082598E-2,9.693623543E0,5.084747914E-3,9.693852295E0
3.968091157E0,-4.486542568E-2,9.684052467E0,2.662015148E-2,9.684192983E0
3.970514334E0,-6.400800496E-2,9.691230774E0,2.183450572E-2,9.691466746E0
3.972937771E0,-3.768695518E-2,9.710372925E0,1.465603895E-2,9.710457118E0
3.975361105E0,-4.725824669E-2,9.700801849E0,2.183450572E-2,9.700941532E0
3.977784542E0,-6.400800496E-2,9.693623543E0,1.944168471E-2,9.693854362E0
3.980208605E0,-5.922235921E-2,9.703194618E0,5.084747914E-3,9.703376677E0
3.982632407E0,-5.204389244E-2,9.698409081E0,9.870393202E-3,9.698553742E0
