"Time (s)","Acceleration x (m/s^2)","Acceleration y (m/s^2)","Acceleration z (m/s^2)","Absolute acceleration (m/s^2)"
2.746924000E-2,1.956132501E-1,-2.126621157E-1,-9.865906715E0,9.870137032E0
2.991455300E-2,2.003988922E-1,-2.054836452E-1,-9.849157333E0,9.853338694E0
3.235908400E-2,1.764706671E-1,-2.126621157E-1,-9.853942871E0,9.857817060E0
3.480283400E-2,1.980060786E-1,-2.030908167E-1,-9.856335640E0,9.860416043E0
3.724741700E-2,1.884347796E-1,-2.030908167E-1,-9.885049820E0,9.888931362E0
3.969278200E-2,1.836491376E-1,-1.983051747E-1,-9.844371796E0,9.848081437E0
4.213726100E-2,1.956132501E-1,-2.078764737E-1,-9.861121178E0,9.865251545E0
4.458101100E-2,1.884347796E-1,-1.959123611E-1,-9.873085022E0,9.876826270E0
4.702564700E-2,1.908276081E-1,-1.815554202E-1,-9.873085022E0,9.876597866E0
4.947095900E-2,1.980060786E-1,-2.006980032E-1,-9.885049820E0,9.889069523E0
5.191549000E-2,2.003988922E-1,-2.006980032E-1,-9.863513947E0,9.867590728E0
5.435924000E-2,1.956132501E-1,-2.006980032E-1,-9.875477791E0,9.879453721E0
5.680382400E-2,1.956132501E-1,-2.006980032E-1,-9.873085022E0,9.877061916E0
5.924918800E-2,1.932204217E-1,-2.174477577E-1,-9.873085022E0,9.877369362E0
6.169366700E-2,1.932204217E-1,-2.054836452E-1,-9.868299484E0,9.872329632E0
6.413741700E-2,2.075773627E-1,-2.078764737E-1,-9.873085022E0,9.877454573E0
6.658205300E-2,2.075773627E-1,-1.983051747E-1,-9.856335640E0,9.860515481E0
6.902736500E-2,1.932204217E-1,-2.006980032E-1,-9.873085022E0,9.877014816E0
7.147194900E-2,2.171486616E-1,-2.126621157E-1,-9.868299484E0,9.872978954E0
7.391564700E-2,1.860419661E-1,-1.983051747E-1,-9.853942871E0,9.857693780E0
7.636023000E-2,1.836491376E-1,-2.078764737E-1,-9.875477791E0,9.879372512E0
7.880559500E-2,1.860419661E-1,-2.222333997E-1,-9.870692253E0,9.874946322E0
8.125007400E-2,1.740778536E-1,-2.174477577E-1,-9.841979027E0,9.845919855E0
8.369382400E-2,1.884347796E-1,-2.150549293E-1,-9.839586258E0,9.843739839E0
8.613840700E-2,1.812563092E-1,-1.983051747E-1,-9.853942871E0,9.857604623E0
8.858377200E-2,1.788634956E-1,-2.102692872E-1,-9.853942871E0,9.857808855E0
9.102825100E-2,1.692921966E-1,-2.222333997E-1,-9.844371796E0,9.848335067E0
9.347205300E-2,1.932204217E-1,-2.078764737E-1,-9.875477791E0,9.879555069E0
9.591663600E-2,2.003988922E-1,-2.030908167E-1,-9.882657051E0,9.886774802E0
9.836200100E-2,1.884347796E-1,-2.078764737E-1,-9.858728409E0,9.862720017E0
1.008064800E-1,1.908276081E-1,-2.102692872E-1,-9.863513947E0,9.867600302E0
1.032502300E-1,1.884347796E-1,-2.030908167E-1,-9.863513947E0,9.867403960E0
1.056948130E-1,1.956132501E-1,-1.983051747E-1,-9.885049820E0,9.888973629E0
1.081401780E-1,1.980060786E-1,-1.959123611E-1,-9.885049820E0,9.888973557E0
1.105847610E-1,1.908276081E-1,-1.959123611E-1,-9.877870560E0,9.881655915E0
1.130284590E-1,2.027917206E-1,-2.222333997E-1,-9.873085022E0,9.877667742E0
1.154730420E-1,1.860419661E-1,-1.983051747E-1,-9.877870560E0,9.881612386E0
1.179184070E-1,1.932204217E-1,-1.863410622E-1,-9.873085022E0,9.876733517E0
1.203628860E-1,1.645065546E-1,-1.911267042E-1,-9.858728409E0,9.861953035E0
1.228066360E-1,1.812563092E-1,-2.078764737E-1,-9.858728409E0,9.862585478E0
1.252512720E-1,1.860419661E-1,-2.126621157E-1,-9.856335640E0,9.860384832E0
1.276965840E-1,2.003988922E-1,-2.006980032E-1,-9.853942871E0,9.858023611E0
1.301410630E-1,1.956132501E-1,-2.006980032E-1,-9.846764565E0,9.850752084E0
1.325848650E-1,1.932204217E-1,-2.054836452E-1,-9.856335640E0,9.860370678E0
1.350294490E-1,2.123630047E-1,-2.126621157E-1,-9.849157333E0,9.853741594E0
1.374748130E-1,1.692921966E-1,-1.863410622E-1,-9.861121178E0,9.864334429E0
1.399192920E-1,1.692921966E-1,-2.102692872E-1,-9.858728409E0,9.862423579E0
1.423630420E-1,1.908276081E-1,-2.126621157E-1,-9.861121178E0,9.865259816E0
1.448076780E-1,1.740778536E-1,-2.102692872E-1,-9.851550102E0,9.855331333E0
1.472529900E-1,2.051845491E-1,-2.102692872E-1,-9.861121178E0,9.865496681E0
1.496975740E-1,1.812563092E-1,-2.078764737E-1,-9.863513947E0,9.867369145E0
1.521412720E-1,2.003988922E-1,-2.102692872E-1,-9.856335640E0,9.860614846E0
1.545858550E-1,1.860419661E-1,-2.150549293E-1,-9.865906715E0,9.870003827E0
1.570312200E-1,1.860419661E-1,-1.863410622E-1,-9.873085022E0,9.876595692E0
1.594756990E-1,1.932204217E-1,-1.911267042E-1,-9.870692253E0,9.874433103E0
1.619194490E-1,2.075773627E-1,-1.983051747E-1,-9.875477791E0,9.879649533E0
1.643640320E-1,1.860419661E-1,-1.983051747E-1,-9.863513947E0,9.867261217E0
1.668093970E-1,2.171486616E-1,-1.959123611E-1,-9.861121178E0,9.865457216E0
1.692538760E-1,1.932204217E-1,-2.102692872E-1,-9.877870560E0,9.881997475E0
1.716976780E-1,1.956132501E-1,-2.030908167E-1,-9.870692253E0,9.874719033E0
1.741422610E-1,1.980060786E-1,-2.150549293E-1,-9.870692253E0,9.875020030E0
1.765876260E-1,1.860419661E-1,-2.006980032E-1,-9.877870560E0,9.881660695E0
1.790321050E-1,2.003988922E-1,-2.078764737E-1,-9.885049820E0,9.889266014E0
1.814758550E-1,2.027917206E-1,-2.102692872E-1,-9.873085022E0,9.877405809E0
1.839204900E-1,1.932204217E-1,-1.959123611E-1,-9.858728409E0,9.862567699E0
1.863658030E-1,1.836491376E-1,-1.887338907E-1,-9.856335640E0,9.859852927E0
1.888102820E-1,1.836491376E-1,-1.935195327E-1,-9.858728409E0,9.862337586E0
1.912540840E-1,1.812563092E-1,-2.030908167E-1,-9.861121178E0,9.864877628E0
1.936986670E-1,1.932204217E-1,-2.030908167E-1,-9.853942871E0,9.857929302E0
1.961440320E-1,2.051845491E-1,-2.198405862E-1,-9.844371796E0,9.848963734E0
1.985885110E-1,1.812563092E-1,-1.959123611E-1,-9.865906715E0,9.869516240E0
2.010322610E-1,1.908276081E-1,-1.887338907E-1,-9.856335640E0,9.859989245E0
2.034768450E-1,1.908276081E-1,-2.150549293E-1,-9.849157333E0,9.853352931E0
2.059222090E-1,1.884347796E-1,-2.054836452E-1,-9.865906715E0,9.869845313E0
2.083666880E-1,1.980060786E-1,-2.006980032E-1,-9.870692253E0,9.874717801E0
2.108104900E-1,1.788634956E-1,-1.935195327E-1,-9.870692253E0,9.874209210E0
2.132550740E-1,1.836491376E-1,-2.078764737E-1,-9.877870560E0,9.881764338E0
2.157004380E-1,2.147558331E-1,-1.815554202E-1,-9.873085022E0,9.877089161E0
2.181449170E-1,1.812563092E-1,-2.126621157E-1,-9.853942871E0,9.857903891E0
2.205886670E-1,1.788634956E-1,-2.078764737E-1,-9.856335640E0,9.860149949E0
2.230332510E-1,1.884347796E-1,-1.911267042E-1,-9.875477791E0,9.879124388E0
2.254786150E-1,2.003988922E-1,-2.126621157E-1,-9.873085022E0,9.877408200E0
2.279231990E-1,1.908276081E-1,-2.030908167E-1,-9.868299484E0,9.872233575E0
2.303668970E-1,2.003988922E-1,-1.959123611E-1,-9.865906715E0,9.869886356E0
2.328114800E-1,1.980060786E-1,-1.935195327E-1,-9.873085022E0,9.876966339E0
2.352568450E-1,1.836491376E-1,-1.959123611E-1,-9.863513947E0,9.867168592E0
2.377013240E-1,2.171486616E-1,-1.911267042E-1,-9.846764565E0,9.851012910E0
2.401450740E-1,1.956132501E-1,-1.815554202E-1,-9.870692253E0,9.874299594E0
2.425896570E-1,1.836491376E-1,-2.054836452E-1,-9.853942871E0,9.857795932E0
2.450350220E-1,1.812563092E-1,-2.198405862E-1,-9.882657051E0,9.886763582E0
2.474795010E-1,1.956132501E-1,-1.983051747E-1,-9.851550102E0,9.855487248E0
2.499233030E-1,1.692921966E-1,-2.054836452E-1,-9.863513947E0,9.867106503E0
2.523678860E-1,1.764706671E-1,-2.222333997E-1,-9.868299484E0,9.872378857E0
2.548132510E-1,2.003988922E-1,-2.174477577E-1,-9.863513947E0,9.867945613E0
2.572577300E-1,2.051845491E-1,-2.078764737E-1,-9.870692253E0,9.875012855E0
2.597014800E-1,1.908276081E-1,-2.126621157E-1,-9.870692253E0,9.874826880E0
2.621460630E-1,1.932204217E-1,-2.174477577E-1,-9.834799767E0,9.839100777E0
2.645914280E-1,1.884347796E-1,-2.078764737E-1,-9.882657051E0,9.886638998E0
2.670359070E-1,1.932204217E-1,-2.006980032E-1,-9.865906715E0,9.869839367E0
2.694797090E-1,1.980060786E-1,-2.174477577E-1,-9.865906715E0,9.870289016E0
2.719242920E-1,1.860419661E-1,-2.030908167E-1,-9.899406433E0,9.903237108E0
2.743696570E-1,1.908276081E-1,-2.078764737E-1,-9.887442589E0,9.891468483E0
2.768141360E-1,1.740778536E-1,-2.102692872E-1,-9.861121178E0,9.864898740E0
2.792578860E-1,2.027917206E-1,-2.030908167E-1,-9.853942871E0,9.858121549E0
2.817024700E-1,1.908276081E-1,-1.983051747E-1,-9.861121178E0,9.864960770E0
2.841478340E-1,2.027917206E-1,-2.150549293E-1,-9.861121178E0,9.865550364E0
2.865923130E-1,1.908276081E-1,-2.126621157E-1,-9.880263329E0,9.884393952E0
2.890361150E-1,1.884347796E-1,-1.935195327E-1,-9.877870560E0,9.881562846E0
2.914806990E-1,2.051845491E-1,-1.887338907E-1,-9.880263329E0,9.884195699E0
2.939260630E-1,1.812563092E-1,-2.030908167E-1,-9.887442589E0,9.891189043E0
2.963705420E-1,1.884347796E-1,-2.054836452E-1,-9.873085022E0,9.877020758E0
2.988142920E-1,1.860419661E-1,-2.246262282E-1,-9.882657051E0,9.886960046E0
3.012588760E-1,1.884347796E-1,-2.126621157E-1,-9.875477791E0,9.879564486E0
3.037042400E-1,1.692921966E-1,-2.054836452E-1,-9.834799767E0,9.838402809E0
3.061487200E-1,1.788634956E-1,-2.174477577E-1,-9.841979027E0,9.846005629E0
3.085925220E-1,1.836491376E-1,-2.006980032E-1,-9.865906715E0,9.869656631E0
3.110371050E-1,1.980060786E-1,-2.078764737E-1,-9.873085022E0,9.877258065E0
3.134824700E-1,1.932204217E-1,-2.126621157E-1,-9.889835358E0,9.894008425E0
3.159269490E-1,1.812563092E-1,-2.294118702E-1,-9.880263329E0,9.884588363E0
3.183706990E-1,1.908276081E-1,-2.078764737E-1,-9.868299484E0,9.872333185E0
3.208153340E-1,1.788634956E-1,-2.126621157E-1,-9.853942871E0,9.857860185E0
3.232606470E-1,2.027917206E-1,-2.102692872E-1,-9.846764565E0,9.851096895E0
3.257051260E-1,1.740778536E-1,-2.006980032E-1,-9.841979027E0,9.845564176E0
3.281489280E-1,1.716850251E-1,-2.054836452E-1,-9.851550102E0,9.855188415E0
3.305935110E-1,1.956132501E-1,-2.006980032E-1,-9.873085022E0,9.877061916E0
3.330388760E-1,1.788634956E-1,-2.030908167E-1,-9.877870560E0,9.881577041E0
3.354833550E-1,2.195414752E-1,-2.126621157E-1,-9.856335640E0,9.861073769E0
3.379271050E-1,2.099701911E-1,-2.054836452E-1,-9.870692253E0,9.875063370E0
3.403717400E-1,2.027917206E-1,-1.959123611E-1,-9.863513947E0,9.867543438E0
3.428170530E-1,1.597209126E-1,-2.174477577E-1,-9.834799767E0,9.838499924E0
3.452616360E-1,1.668993831E-1,-2.150549293E-1,-9.846764565E0,9.850526708E0
3.477053340E-1,1.836491376E-1,-2.126621157E-1,-9.856335640E0,9.860339975E0
3.501499170E-1,1.716850251E-1,-2.078764737E-1,-9.853942871E0,9.857630470E0
3.525952820E-1,1.740778536E-1,-2.030908167E-1,-9.856335640E0,9.859964565E0
3.550397610E-1,2.075773627E-1,-2.102692872E-1,-9.887442589E0,9.891856372E0
3.574835110E-1,2.075773627E-1,-1.839482337E-1,-9.858728409E0,9.862629018E0
3.599280950E-1,1.980060786E-1,-1.983051747E-1,-9.858728409E0,9.862710438E0
3.623734590E-1,2.027917206E-1,-1.983051747E-1,-9.868299484E0,9.872374797E0
3.648179380E-1,1.740778536E-1,-2.078764737E-1,-9.846764565E0,9.850496846E0
3.672617400E-1,1.812563092E-1,-2.222333997E-1,-9.856335640E0,9.860506771E0
3.697063240E-1,1.740778536E-1,-1.791625917E-1,-9.849157333E0,9.852324726E0
3.721516880E-1,1.836491376E-1,-1.815554202E-1,-9.846764565E0,9.850150342E0
3.745961670E-1,2.027917206E-1,-2.102692872E-1,-9.861121178E0,9.865447204E0
3.770399170E-1,2.051845491E-1,-2.174477577E-1,-9.873085022E0,9.877610646E0
3.794845010E-1,2.051845491E-1,-2.030908167E-1,-9.873085022E0,9.877305019E0
3.819298650E-1,2.147558331E-1,-2.126621157E-1,-9.851550102E0,9.856185097E0
3.843743450E-1,1.932204217E-1,-2.078764737E-1,-9.865906715E0,9.869987947E0
3.868181470E-1,1.884347796E-1,-2.198405862E-1,-9.873085022E0,9.877329872E0
3.892627300E-1,1.764706671E-1,-2.318046987E-1,-9.875477791E0,9.879774133E0
3.917080950E-1,1.740778536E-1,-1.887338907E-1,-9.851550102E0,9.854895382E0
3.941525740E-1,1.812563092E-1,-2.150549293E-1,-9.870692253E0,9.874698377E0
3.965963240E-1,2.195414752E-1,-2.270190418E-1,-9.870692253E0,9.875743094E0
3.990409590E-1,2.099701911E-1,-1.815554202E-1,-9.861121178E0,9.865027153E0
4.014862720E-1,1.932204217E-1,-2.054836452E-1,-9.861121178E0,9.865154258E0
4.039308550E-1,1.884347796E-1,-2.006980032E-1,-9.861121178E0,9.864963164E0
4.063745530E-1,1.932204217E-1,-1.815554202E-1,-9.885049820E0,9.888604879E0
4.088191360E-1,1.860419661E-1,-2.126621157E-1,-9.868299484E0,9.872343769E0
4.112645010E-1,1.860419661E-1,-1.935195327E-1,-9.885049820E0,9.888694118E0
4.137089800E-1,1.860419661E-1,-2.030908167E-1,-9.849157333E0,9.853007544E0
4.161527300E-1,1.932204217E-1,-2.150549293E-1,-9.861121178E0,9.865358262E0
4.185973130E-1,2.027917206E-1,-2.150549293E-1,-9.846764565E0,9.851200206E0
4.210426780E-1,2.027917206E-1,-2.102692872E-1,-9.863513947E0,9.867838924E0
4.234872610E-1,2.123630047E-1,-2.222333997E-1,-9.873085022E0,9.877868878E0
4.259309590E-1,1.740778536E-1,-2.030908167E-1,-9.865906715E0,9.869532121E0
4.283755420E-1,1.812563092E-1,-2.270190418E-1,-9.882657051E0,9.886925806E0
4.308209070E-1,2.027917206E-1,-2.174477577E-1,-9.880263329E0,9.884736286E0
4.332653860E-1,1.860419661E-1,-1.959123611E-1,-9.880263329E0,9.883956531E0
4.357091360E-1,2.027917206E-1,-2.102692872E-1,-9.868299484E0,9.872622365E0
4.381537200E-1,2.099701911E-1,-2.078764737E-1,-9.875477791E0,9.879896847E0
4.405990840E-1,1.836491376E-1,-2.150549293E-1,-9.870692253E0,9.874742588E0
4.430435630E-1,1.788634956E-1,-2.006980032E-1,-9.856335640E0,9.860001221E0
4.454873650E-1,1.908276081E-1,-1.959123611E-1,-9.870692253E0,9.874480360E0
4.479319490E-1,1.884347796E-1,-2.030908167E-1,-9.863513947E0,9.867403960E0
4.503773130E-1,2.075773627E-1,-2.030908167E-1,-9.856335640E0,9.860612886E0
4.528217920E-1,1.884347796E-1,-2.102692872E-1,-9.861121178E0,9.865162529E0
4.552655420E-1,1.860419661E-1,-2.198405862E-1,-9.865906715E0,9.870109260E0
4.577101260E-1,2.003988922E-1,-2.126621157E-1,-9.887442589E0,9.891759492E0
4.601554900E-1,1.836491376E-1,-2.030908167E-1,-9.853942871E0,9.857746344E0
4.625999700E-1,1.812563092E-1,-2.198405862E-1,-9.870692253E0,9.874803759E0
4.650437720E-1,1.740778536E-1,-2.294118702E-1,-9.849157333E0,9.853366586E0
4.674883550E-1,1.716850251E-1,-2.054836452E-1,-9.861121178E0,9.864755960E0
4.699337200E-1,1.788634956E-1,-2.030908167E-1,-9.885049820E0,9.888753611E0
4.723781990E-1,2.003988922E-1,-1.959123611E-1,-9.875477791E0,9.879453576E0
4.748219490E-1,2.315055877E-1,-2.150549293E-1,-9.894620895E0,9.899664950E0
4.772665840E-1,2.171486616E-1,-2.054836452E-1,-9.861121178E0,9.865651927E0
4.797118970E-1,2.027917206E-1,-1.983051747E-1,-9.853942871E0,9.858024119E0
4.821563760E-1,1.860419661E-1,-1.983051747E-1,-9.849157333E0,9.852910064E0
4.846001780E-1,1.764706671E-1,-1.935195327E-1,-9.863513947E0,9.866990376E0
4.870447610E-1,1.788634956E-1,-2.054836452E-1,-9.865906715E0,9.869667218E0
4.894901260E-1,1.884347796E-1,-1.911267042E-1,-9.873085022E0,9.876732503E0
4.919346050E-1,1.764706671E-1,-2.246262282E-1,-9.873085022E0,9.877216546E0
4.943783550E-1,1.932204217E-1,-2.222333997E-1,-9.841979027E0,9.846383751E0
4.968229380E-1,2.027917206E-1,-2.198405862E-1,-9.858728409E0,9.863264176E0
4.992683030E-1,2.051845491E-1,-1.983051747E-1,-9.846764565E0,9.850898336E0
5.017127820E-1,2.027917206E-1,-1.959123611E-1,-9.868299484E0,9.872327023E0
5.041565840E-1,1.884347796E-1,-1.959123611E-1,-9.856335640E0,9.860083243E0
5.066011670E-1,1.788634956E-1,-1.935195327E-1,-9.849157333E0,9.852681977E0
5.090465320E-1,1.645065546E-1,-1.911267042E-1,-9.863513947E0,9.866737009E0
5.114910110E-1,1.597209126E-1,-2.222333997E-1,-9.873085022E0,9.876877356E0
5.139347610E-1,1.908276081E-1,-2.102692872E-1,-9.856335640E0,9.860424970E0
5.163793450E-1,2.075773627E-1,-2.126621157E-1,-9.868299484E0,9.872773078E0
5.188247090E-1,2.123630047E-1,-1.959123611E-1,-9.868299484E0,9.872528268E0
5.212692920E-1,1.860419661E-1,-2.198405862E-1,-9.870692253E0,9.874892762E0
5.237129900E-1,1.884347796E-1,-1.911267042E-1,-9.870692253E0,9.874340618E0
5.261575740E-1,1.860419661E-1,-1.911267042E-1,-9.875477791E0,9.879079037E0
5.286029380E-1,1.812563092E-1,-1.983051747E-1,-9.851550102E0,9.855212743E0
5.310474170E-1,1.740778536E-1,-2.006980032E-1,-9.865906715E0,9.869483173E0
5.334911670E-1,1.884347796E-1,-2.030908167E-1,-9.861121178E0,9.865012135E0
5.359357510E-1,1.764706671E-1,-1.911267042E-1,-9.875477791E0,9.878903427E0
5.383811150E-1,1.932204217E-1,-2.126621157E-1,-9.868299484E0,9.872481654E0
5.408256990E-1,1.932204217E-1,-2.054836452E-1,-9.858728409E0,9.862762468E0
5.432693970E-1,2.075773627E-1,-1.959123611E-1,-9.858728409E0,9.862859416E0
5.457139800E-1,1.932204217E-1,-1.959123611E-1,-9.865906715E0,9.869743214E0
5.481593450E-1,2.003988922E-1,-2.078764737E-1,-9.858728409E0,9.862955854E0
5.506038240E-1,2.075773627E-1,-2.174477577E-1,-9.858728409E0,9.863310688E0
5.530475740E-1,2.123630047E-1,-1.887338907E-1,-9.885049820E0,9.889131836E0
5.554921570E-1,1.932204217E-1,-1.911267042E-1,-9.865906715E0,9.869649379E0
5.579375220E-1,1.860419661E-1,-1.959123611E-1,-9.894620895E0,9.898308741E0
5.603820010E-1,1.764706671E-1,-1.983051747E-1,-9.858728409E0,9.862301591E0
5.628258030E-1,1.908276081E-1,-1.983051747E-1,-9.849157333E0,9.853001588E0
5.652703860E-1,1.764706671E-1,-1.983051747E-1,-9.863513947E0,9.867085396E0
5.677157510E-1,1.788634956E-1,-2.054836452E-1,-9.846764565E0,9.850532375E0
5.701602300E-1,2.003988922E-1,-1.911267042E-1,-9.865906715E0,9.869792523E0
5.726039800E-1,1.956132501E-1,-2.126621157E-1,-9.870692253E0,9.874920520E0
5.750485630E-1,2.003988922E-1,-2.126621157E-1,-9.868299484E0,9.872624757E0
5.774939280E-1,2.003988922E-1,-2.030908167E-1,-9.870692253E0,9.874814993E0
5.799385110E-1,1.812563092E-1,-1.911267042E-1,-9.873085022E0,9.876598155E0
5.823822090E-1,1.932204217E-1,-2.054836452E-1,-9.851550102E0,9.855587100E0
5.848267920E-1,1.740778536E-1,-2.078764737E-1,-9.897013664E0,9.900727003E0
5.872721570E-1,1.836491376E-1,-1.911267042E-1,-9.885049820E0,9.888602852E0
5.897166360E-1,1.668993831E-1,-1.959123611E-1,-9.861121178E0,9.864479101E0
5.921603860E-1,1.836491376E-1,-1.959123611E-1,-9.851550102E0,9.855209185E0
5.946049700E-1,2.147558331E-1,-1.983051747E-1,-9.865906715E0,9.870236083E0
5.970503340E-1,1.908276081E-1,-2.198405862E-1,-9.877870560E0,9.882159271E0
5.994949170E-1,1.908276081E-1,-1.959123611E-1,-9.875477791E0,9.879264063E0
6.019386150E-1,1.908276081E-1,-1.815554202E-1,-9.868299484E0,9.871814031E0
6.043831990E-1,1.812563092E-1,-2.054836452E-1,-9.861121178E0,9.864927180E0
6.068285630E-1,1.740778536E-1,-2.270190418E-1,-9.861121178E0,9.865269972E0
6.092730420E-1,1.860419661E-1,-2.030908167E-1,-9.846764565E0,9.850615711E0
6.117167920E-1,1.908276081E-1,-2.078764737E-1,-9.858728409E0,9.862766024E0
6.141613760E-1,1.908276081E-1,-2.102692872E-1,-9.861121178E0,9.865208524E0
6.166067400E-1,1.908276081E-1,-2.198405862E-1,-9.877870560E0,9.882159271E0
6.190512200E-1,2.243271172E-1,-2.150549293E-1,-9.889835358E0,9.894716503E0
6.214950220E-1,1.884347796E-1,-2.126621157E-1,-9.889835358E0,9.893916123E0
6.239396050E-1,1.908276081E-1,-2.078764737E-1,-9.853942871E0,9.857982446E0
6.263849700E-1,2.003988922E-1,-2.006980032E-1,-9.861121178E0,9.865198948E0
6.288294490E-1,1.884347796E-1,-2.078764737E-1,-9.868299484E0,9.872287223E0
6.312731990E-1,1.836491376E-1,-2.054836452E-1,-9.865906715E0,9.869755106E0
6.337178340E-1,1.956132501E-1,-2.078764737E-1,-9.880263329E0,9.884385697E0
6.361631470E-1,1.884347796E-1,-2.222333997E-1,-9.885049820E0,9.889343016E0
6.386076260E-1,2.075773627E-1,-1.983051747E-1,-9.865906715E0,9.870082503E0
6.410514280E-1,2.003988922E-1,-2.270190418E-1,-9.877870560E0,9.882511025E0
6.434960110E-1,1.908276081E-1,-2.126621157E-1,-9.875477791E0,9.879610415E0
6.459413760E-1,1.908276081E-1,-2.102692872E-1,-9.868299484E0,9.872383859E0
6.483858550E-1,1.764706671E-1,-2.126621157E-1,-9.885049820E0,9.888911822E0
6.508296050E-1,1.812563092E-1,-2.126621157E-1,-9.877870560E0,9.881821989E0
6.532742400E-1,1.980060786E-1,-1.935195327E-1,-9.865906715E0,9.869790856E0
6.557195530E-1,1.980060786E-1,-2.102692872E-1,-9.870692253E0,9.874916969E0
6.581641360E-1,1.812563092E-1,-1.935195327E-1,-9.865906715E0,9.869469032E0
6.606078340E-1,2.099701911E-1,-2.006980032E-1,-9.858728409E0,9.863006287E0
6.630524170E-1,2.075773627E-1,-2.174477577E-1,-9.870692253E0,9.875268981E0
6.654977820E-1,1.884347796E-1,-2.126621157E-1,-9.858728409E0,9.862822044E0
6.679422610E-1,1.956132501E-1,-1.959123611E-1,-9.885049820E0,9.888925935E0
6.703860110E-1,2.027917206E-1,-1.959123611E-1,-9.863513947E0,9.867543438E0
6.728306470E-1,1.764706671E-1,-1.911267042E-1,-9.882657051E0,9.886080199E0
6.752759590E-1,1.956132501E-1,-2.174477577E-1,-9.849157333E0,9.853499290E0
6.777205420E-1,1.956132501E-1,-2.006980032E-1,-9.846764565E0,9.850752084E0
6.801642400E-1,1.716850251E-1,-2.102692872E-1,-9.853942871E0,9.857681220E0
6.826088240E-1,1.932204217E-1,-2.150549293E-1,-9.868299484E0,9.872533488E0
6.850541880E-1,1.908276081E-1,-1.959123611E-1,-9.870692253E0,9.874480360E0
6.874986670E-1,1.740778536E-1,-2.030908167E-1,-9.877870560E0,9.881491576E0
6.899424170E-1,1.956132501E-1,-2.054836452E-1,-9.863513947E0,9.867593194E0
6.923870530E-1,2.027917206E-1,-1.935195327E-1,-9.853942871E0,9.857929012E0
6.948323650E-1,2.075773627E-1,-2.102692872E-1,-9.868299484E0,9.872721826E0
6.972768450E-1,2.099701911E-1,-2.078764737E-1,-9.856335640E0,9.860763275E0
6.997206470E-1,1.956132501E-1,-2.030908167E-1,-9.873085022E0,9.877110826E0
7.021652300E-1,1.860419661E-1,-2.054836452E-1,-9.863513947E0,9.867408095E0
7.046105950E-1,1.932204217E-1,-2.078764737E-1,-9.856335640E0,9.860420833E0
7.070550740E-1,1.836491376E-1,-1.959123611E-1,-9.853942871E0,9.857601065E0
7.094988240E-1,2.099701911E-1,-1.959123611E-1,-9.877870560E0,9.882044117E0
7.119434590E-1,2.123630047E-1,-2.078764737E-1,-9.870692253E0,9.875164618E0
7.143887720E-1,1.956132501E-1,-2.030908167E-1,-9.875477791E0,9.879502620E0
7.168333550E-1,2.003988922E-1,-2.222333997E-1,-9.849157333E0,9.853702227E0
7.192770530E-1,1.908276081E-1,-2.078764737E-1,-9.870692253E0,9.874724976E0
7.217216360E-1,2.003988922E-1,-2.126621157E-1,-9.856335640E0,9.860666161E0
7.241670010E-1,1.956132501E-1,-2.198405862E-1,-9.846764565E0,9.851160684E0
7.266114800E-1,1.860419661E-1,-2.102692872E-1,-9.856335640E0,9.860333515E0
7.290552300E-1,1.908276081E-1,-2.030908167E-1,-9.841979027E0,9.845923635E0
7.314998130E-1,1.764706671E-1,-1.983051747E-1,-9.853942871E0,9.857517788E0
7.339451780E-1,1.692921966E-1,-1.959123611E-1,-9.877870560E0,9.881263497E0
7.363897610E-1,1.908276081E-1,-1.983051747E-1,-9.892228127E0,9.896055650E0
7.388334590E-1,1.908276081E-1,-1.959123611E-1,-9.889835358E0,9.893616135E0
7.412780420E-1,1.884347796E-1,-2.126621157E-1,-9.858728409E0,9.862822044E0
7.437234070E-1,1.716850251E-1,-1.983051747E-1,-9.865906715E0,9.869392889E0
7.461678860E-1,1.884347796E-1,-2.006980032E-1,-9.856335640E0,9.860179491E0
7.486116360E-1,1.812563092E-1,-1.911267042E-1,-9.863513947E0,9.867030487E0
7.510562720E-1,1.716850251E-1,-2.126621157E-1,-9.875477791E0,9.879259209E0
7.535015840E-1,1.836491376E-1,-2.006980032E-1,-9.865906715E0,9.869656631E0
7.559460630E-1,1.884347796E-1,-2.102692872E-1,-9.892228127E0,9.896256774E0
7.583898650E-1,1.812563092E-1,-2.126621157E-1,-9.868299484E0,9.872254744E0
7.608344490E-1,1.884347796E-1,-1.959123611E-1,-9.887442589E0,9.891178406E0
7.632798130E-1,2.051845491E-1,-2.030908167E-1,-9.877870560E0,9.882088513E0
7.657242920E-1,1.956132501E-1,-2.054836452E-1,-9.849157333E0,9.853242525E0
7.681680420E-1,1.980060786E-1,-2.126621157E-1,-9.853942871E0,9.858226092E0
7.706126780E-1,1.908276081E-1,-2.198405862E-1,-9.868299484E0,9.872592353E0
7.730579900E-1,1.836491376E-1,-2.054836452E-1,-9.870692253E0,9.874538779E0
7.755025740E-1,1.932204217E-1,-1.983051747E-1,-9.861121178E0,9.865007347E0
7.779462720E-1,1.956132501E-1,-2.078764737E-1,-9.856335640E0,9.860468012E0
7.803908550E-1,2.051845491E-1,-2.006980032E-1,-9.858728409E0,9.862905567E0
7.828362200E-1,1.980060786E-1,-2.006980032E-1,-9.827621460E0,9.831664643E0
7.852806990E-1,1.788634956E-1,-1.959123611E-1,-9.877870560E0,9.881432113E0
7.877244490E-1,1.956132501E-1,-2.126621157E-1,-9.870692253E0,9.874920520E0
7.901690840E-1,1.573280841E-1,-1.863410622E-1,-9.877870560E0,9.880880624E0
7.926143970E-1,1.812563092E-1,-1.959123611E-1,-9.865906715E0,9.869516240E0
7.950589800E-1,2.003988922E-1,-2.006980032E-1,-9.863513947E0,9.867590728E0
7.975026780E-1,1.836491376E-1,-2.030908167E-1,-9.880263329E0,9.884056674E0
7.999472610E-1,1.884347796E-1,-1.959123611E-1,-9.856335640E0,9.860083243E0
8.023926260E-1,1.980060786E-1,-2.102692872E-1,-9.858728409E0,9.862958249E0
8.048371050E-1,1.980060786E-1,-2.054836452E-1,-9.858728409E0,9.862857384E0
8.072808550E-1,1.956132501E-1,-2.054836452E-1,-9.861121178E0,9.865201415E0
8.097254900E-1,1.836491376E-1,-1.959123611E-1,-9.839586258E0,9.843249788E0
8.121708030E-1,1.980060786E-1,-2.150549293E-1,-9.868299484E0,9.872628310E0
8.146153860E-1,1.956132501E-1,-2.198405862E-1,-9.856335640E0,9.860727492E0
8.170590840E-1,2.123630047E-1,-2.150549293E-1,-9.839586258E0,9.844226958E0
8.195036670E-1,1.860419661E-1,-1.959123611E-1,-9.889835358E0,9.893524987E0
8.219490320E-1,1.884347796E-1,-1.983051747E-1,-9.870692253E0,9.874482172E0
8.243935110E-1,1.956132501E-1,-1.959123611E-1,-9.861121178E0,9.865006694E0
8.268372610E-1,1.956132501E-1,-1.959123611E-1,-9.858728409E0,9.862614868E0
8.292818970E-1,1.788634956E-1,-2.030908167E-1,-9.858728409E0,9.862442084E0
8.317272090E-1,1.980060786E-1,-2.126621157E-1,-9.861121178E0,9.865401282E0
8.341717920E-1,2.171486616E-1,-1.983051747E-1,-9.861121178E0,9.865505023E0
8.366154900E-1,1.884347796E-1,-2.030908167E-1,-9.875477791E0,9.879363094E0
8.390600740E-1,2.123630047E-1,-2.030908167E-1,-9.865906715E0,9.870281619E0
8.415054380E-1,1.932204217E-1,-1.959123611E-1,-9.846764565E0,9.850608518E0
8.439499170E-1,1.836491376E-1,-2.054836452E-1,-9.861121178E0,9.864971435E0
8.463936670E-1,1.860419661E-1,-2.126621157E-1,-9.885049820E0,9.889087255E0
8.488383030E-1,1.884347796E-1,-1.791625917E-1,-9.856335640E0,9.859764660E0
8.512836150E-1,2.027917206E-1,-1.959123611E-1,-9.861121178E0,9.865151647E0
8.537281990E-1,1.932204217E-1,-2.054836452E-1,-9.861121178E0,9.865154258E0
8.561718970E-1,1.668993831E-1,-2.054836452E-1,-9.827621460E0,9.831186220E0
8.586164800E-1,1.932204217E-1,-2.006980032E-1,-9.873085022E0,9.877014816E0
8.610618450E-1,1.860419661E-1,-2.078764737E-1,-9.870692253E0,9.874633654E0
8.635063240E-1,1.836491376E-1,-1.959123611E-1,-9.873085022E0,9.876736126E0
8.659500740E-1,1.980060786E-1,-2.102692872E-1,-9.863513947E0,9.867741735E0
8.683947090E-1,1.812563092E-1,-2.174477577E-1,-9.868299484E0,9.872358993E0
8.708400220E-1,1.884347796E-1,-2.150549293E-1,-9.858728409E0,9.862873928E0
8.732846050E-1,1.860419661E-1,-2.006980032E-1,-9.868299484E0,9.872093294E0
8.757283030E-1,1.932204217E-1,-2.174477577E-1,-9.846764565E0,9.851060351E0
8.781728860E-1,1.980060786E-1,-2.102692872E-1,-9.856335640E0,9.860566506E0
8.806182510E-1,1.956132501E-1,-2.030908167E-1,-9.856335640E0,9.860368283E0
8.830627300E-1,1.788634956E-1,-2.198405862E-1,-9.851550102E0,9.855625878E0
8.855064800E-1,1.956132501E-1,-2.006980032E-1,-9.870692253E0,9.874670110E0
8.879511150E-1,2.051845491E-1,-2.006980032E-1,-9.868299484E0,9.872472593E0
8.903964280E-1,2.147558331E-1,-2.246262282E-1,-9.853942871E0,9.858842078E0
8.928410110E-1,1.764706671E-1,-2.078764737E-1,-9.887442589E0,9.891201922E0
8.952847090E-1,1.980060786E-1,-2.174477577E-1,-9.877870560E0,9.882247555E0
8.977292920E-1,1.932204217E-1,-2.078764737E-1,-9.870692253E0,9.874771507E0
9.001746570E-1,1.764706671E-1,-1.887338907E-1,-9.870692253E0,9.874073523E0
9.026191360E-1,1.860419661E-1,-2.150549293E-1,-9.858728409E0,9.862828503E0
9.050628860E-1,1.836491376E-1,-1.887338907E-1,-9.885049820E0,9.888556893E0
9.075075220E-1,2.027917206E-1,-1.911267042E-1,-9.873085022E0,9.877016845E0
9.099528340E-1,1.932204217E-1,-2.150549293E-1,-9.861121178E0,9.865358262E0
9.123974170E-1,2.003988922E-1,-2.054836452E-1,-9.858728409E0,9.862905712E0
9.148411150E-1,2.099701911E-1,-1.983051747E-1,-9.858728409E0,9.862957886E0
9.172856990E-1,1.812563092E-1,-2.030908167E-1,-9.863513947E0,9.867269486E0
9.197310630E-1,1.812563092E-1,-2.102692872E-1,-9.849157333E0,9.853068923E0
9.221755420E-1,1.860419661E-1,-1.935195327E-1,-9.882657051E0,9.886302231E0
9.246192920E-1,1.980060786E-1,-2.078764737E-1,-9.861121178E0,9.865299282E0
9.270639280E-1,1.956132501E-1,-2.102692872E-1,-9.846764565E0,9.850951736E0
9.295092400E-1,1.812563092E-1,-2.150549293E-1,-9.858728409E0,9.862739392E0
9.319538240E-1,1.980060786E-1,-2.054836452E-1,-9.861121178E0,9.865249151E0
9.343975220E-1,2.099701911E-1,-2.150549293E-1,-9.865906715E0,9.870483849E0
9.368421050E-1,1.884347796E-1,-2.006980032E-1,-9.863513947E0,9.867355002E0
9.392874700E-1,1.860419661E-1,-1.887338907E-1,-9.858728409E0,9.862289690E0
9.417319490E-1,2.003988922E-1,-2.030908167E-1,-9.861121178E0,9.865247918E0
9.441756990E-1,2.075773627E-1,-1.935195327E-1,-9.858728409E0,9.862812176E0
9.466203340E-1,1.884347796E-1,-2.006980032E-1,-9.865906715E0,9.869746839E0
9.490656470E-1,1.956132501E-1,-1.959123611E-1,-9.873085022E0,9.876965832E0
9.515102300E-1,1.980060786E-1,-1.935195327E-1,-9.873085022E0,9.876966339E0
9.539539280E-1,2.075773627E-1,-2.078764737E-1,-9.861121178E0,9.865496028E0
9.563985110E-1,1.980060786E-1,-1.983051747E-1,-9.889835358E0,9.893804867E0
9.588438760E-1,1.884347796E-1,-1.935195327E-1,-9.875477791E0,9.879170971E0
9.612883550E-1,1.956132501E-1,-2.126621157E-1,-9.863513947E0,9.867745289E0
9.637321050E-1,1.980060786E-1,-2.270190418E-1,-9.873085022E0,9.877679480E0
9.661767400E-1,1.980060786E-1,-1.935195327E-1,-9.868299484E0,9.872182683E0
9.686220530E-1,1.980060786E-1,-2.054836452E-1,-9.844371796E0,9.848506790E0
9.710666360E-1,1.740778536E-1,-2.078764737E-1,-9.877870560E0,9.881591093E0
9.735103340E-1,1.788634956E-1,-2.126621157E-1,-9.863513947E0,9.867427461E0
9.759549170E-1,2.027917206E-1,-2.198405862E-1,-9.865906715E0,9.870439184E0
9.784002820E-1,2.051845491E-1,-2.054836452E-1,-9.880263329E0,9.884529714E0
9.808447610E-1,1.860419661E-1,-2.054836452E-1,-9.861121178E0,9.865016271E0
9.832885110E-1,1.932204217E-1,-2.246262282E-1,-9.887442589E0,9.891881116E0
9.857331470E-1,1.812563092E-1,-2.078764737E-1,-9.870692253E0,9.874544649E0
9.881784590E-1,2.051845491E-1,-1.959123611E-1,-9.861121178E0,9.865201125E0
9.906230420E-1,2.027917206E-1,-1.959123611E-1,-9.839586258E0,9.843625545E0
9.930667400E-1,1.884347796E-1,-2.246262282E-1,-9.863513947E0,9.867870691E0
9.955113240E-1,1.692921966E-1,-2.030908167E-1,-9.865906715E0,9.869448872E0
9.979566880E-1,1.908276081E-1,-2.078764737E-1,-9.846764565E0,9.850807083E0
1.000401167E0,1.860419661E-1,-2.006980032E-1,-9.875477791E0,9.879268844E0
1.002844917E0,1.908276081E-1,-2.102692872E-1,-9.870692253E0,9.874775638E0
1.005289553E0,2.147558331E-1,-1.983051747E-1,-9.863513947E0,9.867844364E0
1.007734865E0,2.075773627E-1,-2.102692872E-1,-9.863513947E0,9.867938433E0
1.010179449E0,1.884347796E-1,-2.030908167E-1,-9.856335640E0,9.860228486E0
1.012623147E0,1.908276081E-1,-2.174477577E-1,-9.856335640E0,9.860580660E0
1.015067730E0,2.123630047E-1,-1.911267042E-1,-9.853942871E0,9.858083869E0
1.017513095E0,1.908276081E-1,-2.054836452E-1,-9.851550102E0,9.855540478E0
1.019957574E0,1.668993831E-1,-2.006980032E-1,-9.868299484E0,9.871751101E0
1.022401324E0,2.003988922E-1,-2.150549293E-1,-9.873085022E0,9.877460007E0
1.024845959E0,2.147558331E-1,-1.887338907E-1,-9.858728409E0,9.862873130E0
1.027291272E0,1.956132501E-1,-2.198405862E-1,-9.868299484E0,9.872686014E0
1.029735855E0,1.836491376E-1,-2.102692872E-1,-9.889835358E0,9.893774991E0
1.032179553E0,2.003988922E-1,-1.959123611E-1,-9.870692253E0,9.874669965E0
1.034624136E0,1.980060786E-1,-2.150549293E-1,-9.858728409E0,9.863061435E0
1.037069501E0,1.764706671E-1,-1.983051747E-1,-9.865906715E0,9.869477299E0
1.039513980E0,1.932204217E-1,-1.959123611E-1,-9.863513947E0,9.867351375E0
1.041957730E0,1.980060786E-1,-2.006980032E-1,-9.858728409E0,9.862758840E0
1.044402365E0,1.980060786E-1,-2.078764737E-1,-9.858728409E0,9.862907526E0
1.046847678E0,1.812563092E-1,-1.983051747E-1,-9.856335640E0,9.859996503E0
1.049292261E0,1.956132501E-1,-2.126621157E-1,-9.851550102E0,9.855786581E0
1.051735959E0,1.932204217E-1,-2.102692872E-1,-9.856335640E0,9.860471568E0
1.054180542E0,1.956132501E-1,-2.006980032E-1,-9.851550102E0,9.855535686E0
1.056625907E0,1.932204217E-1,-2.078764737E-1,-9.875477791E0,9.879555069E0
1.059070386E0,1.788634956E-1,-1.959123611E-1,-9.863513947E0,9.867080682E0
1.061514136E0,1.716850251E-1,-2.102692872E-1,-9.863513947E0,9.867248669E0
1.063958772E0,1.860419661E-1,-2.078764737E-1,-9.865906715E0,9.869850027E0
1.066404084E0,1.836491376E-1,-1.911267042E-1,-9.873085022E0,9.876642358E0
1.068848667E0,1.956132501E-1,-1.719841212E-1,-9.861121178E0,9.864560505E0
1.071292365E0,1.908276081E-1,-2.078764737E-1,-9.868299484E0,9.872333185E0
1.073736949E0,1.884347796E-1,-2.198405862E-1,-9.861121178E0,9.865371175E0
1.076182313E0,1.908276081E-1,-1.983051747E-1,-9.856335640E0,9.860177096E0
1.078626792E0,1.860419661E-1,-2.150549293E-1,-9.865906715E0,9.870003827E0
1.081070542E0,1.932204217E-1,-1.983051747E-1,-9.863513947E0,9.867399173E0
1.083515178E0,1.908276081E-1,-1.983051747E-1,-9.853942871E0,9.857785260E0
1.085960490E0,1.884347796E-1,-1.863410622E-1,-9.861121178E0,9.864681522E0
1.088405074E0,2.051845491E-1,-2.174477577E-1,-9.870692253E0,9.875218974E0
1.090848772E0,1.716850251E-1,-2.150549293E-1,-9.870692253E0,9.874527327E0
1.093293355E0,2.147558331E-1,-2.054836452E-1,-9.873085022E0,9.877557970E0
1.095738720E0,1.956132501E-1,-2.126621157E-1,-9.885049820E0,9.889271948E0
1.098183199E0,1.980060786E-1,-2.102692872E-1,-9.863513947E0,9.867741735E0
1.100626949E0,1.956132501E-1,-2.078764737E-1,-9.851550102E0,9.855684481E0
1.103071584E0,2.123630047E-1,-2.006980032E-1,-9.877870560E0,9.882191282E0
1.105516897E0,1.908276081E-1,-2.006980032E-1,-9.856335640E0,9.860225510E0
1.107961480E0,1.956132501E-1,-1.983051747E-1,-9.856335640E0,9.860270875E0
1.110405178E0,1.908276081E-1,-2.030908167E-1,-9.861121178E0,9.865058131E0
1.112849761E0,1.764706671E-1,-1.959123611E-1,-9.863513947E0,9.867037596E0
1.115295126E0,1.836491376E-1,-2.174477577E-1,-9.858728409E0,9.862836122E0
1.117739605E0,1.980060786E-1,-2.078764737E-1,-9.877870560E0,9.882041582E0
1.120183355E0,1.956132501E-1,-2.054836452E-1,-9.837192535E0,9.841282693E0
1.122627990E0,1.860419661E-1,-2.102692872E-1,-9.873085022E0,9.877076118E0
1.125073303E0,1.956132501E-1,-2.126621157E-1,-9.856335640E0,9.860570063E0
1.127517886E0,1.980060786E-1,-2.102692872E-1,-9.841979027E0,9.846216062E0
1.129961584E0,1.860419661E-1,-2.102692872E-1,-9.877870560E0,9.881859723E0
1.132406167E0,1.980060786E-1,-2.006980032E-1,-9.853942871E0,9.857975259E0
1.134851532E0,1.788634956E-1,-1.983051747E-1,-9.870692253E0,9.874304160E0
1.137296011E0,2.003988922E-1,-1.815554202E-1,-9.851550102E0,9.855260600E0
1.139739813E0,1.932204217E-1,-2.030908167E-1,-9.853942871E0,9.857929302E0
1.142184397E0,1.956132501E-1,-2.102692872E-1,-9.849157333E0,9.853343488E0
1.144629709E0,2.075773627E-1,-1.887338907E-1,-9.837192535E0,9.841192297E0
1.147074292E0,1.716850251E-1,-2.078764737E-1,-9.885049820E0,9.888725819E0
1.149517990E0,2.099701911E-1,-2.030908167E-1,-9.853942871E0,9.858271830E0
1.151962574E0,1.980060786E-1,-2.030908167E-1,-9.861121178E0,9.865199601E0
1.154407938E0,1.908276081E-1,-1.911267042E-1,-9.858728409E0,9.862427208E0
1.156852417E0,1.668993831E-1,-2.006980032E-1,-9.849157333E0,9.852615656E0
1.159296167E0,1.716850251E-1,-1.911267042E-1,-9.827621460E0,9.830979032E0
1.161740803E0,1.740778536E-1,-2.030908167E-1,-9.863513947E0,9.867140232E0
1.164186115E0,1.980060786E-1,-2.030908167E-1,-9.858728409E0,9.862807822E0
1.166630699E0,1.836491376E-1,-2.078764737E-1,-9.875477791E0,9.879372512E0
1.169074397E0,1.980060786E-1,-1.935195327E-1,-9.863513947E0,9.867399029E0
1.171518980E0,1.956132501E-1,-2.054836452E-1,-9.889835358E0,9.893903753E0
1.173964345E0,1.956132501E-1,-2.126621157E-1,-9.870692253E0,9.874920520E0
1.176408824E0,1.932204217E-1,-2.174477577E-1,-9.875477791E0,9.879761093E0
1.178852574E0,1.932204217E-1,-2.150549293E-1,-9.856335640E0,9.860574780E0
1.181297209E0,2.027917206E-1,-2.006980032E-1,-9.870692253E0,9.874814921E0
1.183742522E0,1.764706671E-1,-2.126621157E-1,-9.863513947E0,9.867384377E0
1.186187105E0,1.884347796E-1,-2.006980032E-1,-9.844371796E0,9.848220317E0
1.188630803E0,2.075773627E-1,-1.887338907E-1,-9.868299484E0,9.872286643E0
1.191075386E0,1.932204217E-1,-2.150549293E-1,-9.858728409E0,9.862966521E0
1.193520751E0,1.836491376E-1,-2.198405862E-1,-9.868299484E0,9.872456209E0
1.195965230E0,1.788634956E-1,-2.030908167E-1,-9.863513947E0,9.867225821E0
1.198408980E0,1.764706671E-1,-2.126621157E-1,-9.868299484E0,9.872168039E0
1.200853615E0,2.147558331E-1,-2.126621157E-1,-9.870692253E0,9.875318263E0
1.203298928E0,1.956132501E-1,-2.174477577E-1,-9.858728409E0,9.863066152E0
1.205743511E0,1.812563092E-1,-2.006980032E-1,-9.880263329E0,9.883963627E0
1.208187209E0,1.884347796E-1,-2.030908167E-1,-9.853942871E0,9.857836662E0
1.210631792E0,1.956132501E-1,-1.959123611E-1,-9.889835358E0,9.893709597E0
1.213077157E0,1.908276081E-1,-2.126621157E-1,-9.882657051E0,9.886786674E0
1.215521636E0,1.884347796E-1,-2.174477577E-1,-9.873085022E0,9.877276904E0
1.217965438E0,1.764706671E-1,-1.911267042E-1,-9.851550102E0,9.854984055E0
1.220410022E0,1.740778536E-1,-2.030908167E-1,-9.863513947E0,9.867140232E0
1.222855334E0,1.980060786E-1,-2.078764737E-1,-9.865906715E0,9.870082794E0
1.225299917E0,1.692921966E-1,-2.078764737E-1,-9.868299484E0,9.871940396E0
1.227743615E0,1.860419661E-1,-2.126621157E-1,-9.849157333E0,9.853209475E0
1.230188199E0,1.836491376E-1,-2.270190418E-1,-9.875477791E0,9.879793836E0
1.232633563E0,1.836491376E-1,-2.126621157E-1,-9.849157333E0,9.853164586E0
1.235078042E0,1.812563092E-1,-2.222333997E-1,-9.863513947E0,9.867682043E0
1.237521845E0,2.003988922E-1,-2.030908167E-1,-9.858728409E0,9.862856150E0
1.239966428E0,2.075773627E-1,-1.911267042E-1,-9.873085022E0,9.877116261E0
1.242411792E0,2.003988922E-1,-1.983051747E-1,-9.870692253E0,9.874717728E0
1.244856272E0,1.860419661E-1,-2.054836452E-1,-9.863513947E0,9.867408095E0
1.247300022E0,2.171486616E-1,-2.030908167E-1,-9.851550102E0,9.856035655E0
1.249744605E0,2.003988922E-1,-2.078764737E-1,-9.844371796E0,9.848605404E0
1.252189970E0,1.908276081E-1,-2.150549293E-1,-9.849157333E0,9.853352931E0
1.254634449E0,1.764706671E-1,-1.959123611E-1,-9.858728409E0,9.862253768E0
1.257078251E0,2.003988922E-1,-1.863410622E-1,-9.865906715E0,9.869701010E0
1.259522834E0,2.099701911E-1,-2.054836452E-1,-9.841979027E0,9.846362891E0
1.261968147E0,2.051845491E-1,-2.126621157E-1,-9.858728409E0,9.863156275E0
1.264412730E0,1.788634956E-1,-2.174477577E-1,-9.868299484E0,9.872315351E0
1.266856428E0,1.908276081E-1,-2.078764737E-1,-9.856335640E0,9.860374235E0
1.269301011E0,2.003988922E-1,-2.054836452E-1,-9.863513947E0,9.867689224E0
1.271746376E0,1.908276081E-1,-2.174477577E-1,-9.839586258E0,9.843838501E0
1.274190855E0,1.980060786E-1,-2.174477577E-1,-9.858728409E0,9.863113898E0
1.276634657E0,1.764706671E-1,-2.030908167E-1,-9.844371796E0,9.848047717E0
1.279079240E0,1.980060786E-1,-1.839482337E-1,-9.853942871E0,9.857648476E0
1.281524605E0,1.956132501E-1,-2.006980032E-1,-9.873085022E0,9.877061916E0
1.283969084E0,1.836491376E-1,-1.983051747E-1,-9.865906715E0,9.869608263E0
1.286412834E0,1.956132501E-1,-2.054836452E-1,-9.863513947E0,9.867593194E0
1.288857417E0,1.884347796E-1,-2.150549293E-1,-9.856335640E0,9.860482166E0
1.291302782E0,1.764706671E-1,-2.150549293E-1,-9.858728409E0,9.862652603E0
1.293747261E0,1.884347796E-1,-2.126621157E-1,-9.877870560E0,9.881956266E0
1.296191063E0,2.027917206E-1,-2.054836452E-1,-9.865906715E0,9.870129854E0
1.298635647E0,1.836491376E-1,-1.815554202E-1,-9.858728409E0,9.862110079E0
1.301080959E0,1.836491376E-1,-1.983051747E-1,-9.865906715E0,9.869608263E0
1.303525542E0,1.956132501E-1,-2.030908167E-1,-9.846764565E0,9.850801125E0
1.305969240E0,1.860419661E-1,-2.006980032E-1,-9.861121178E0,9.864917748E0
1.308413824E0,1.812563092E-1,-2.054836452E-1,-9.875477791E0,9.879278262E0
1.310859188E0,1.932204217E-1,-1.935195327E-1,-9.853942871E0,9.857736761E0
1.313303667E0,1.980060786E-1,-2.102692872E-1,-9.870692253E0,9.874916969E0
1.315747470E0,1.980060786E-1,-2.126621157E-1,-9.865906715E0,9.870184745E0
1.318192053E0,1.980060786E-1,-2.102692872E-1,-9.868299484E0,9.872525224E0
1.320637365E0,1.836491376E-1,-2.078764737E-1,-9.863513947E0,9.867413390E0
1.323081949E0,2.051845491E-1,-1.911267042E-1,-9.873085022E0,9.877066263E0
1.325525647E0,2.099701911E-1,-2.030908167E-1,-9.873085022E0,9.877405591E0
1.327970230E0,1.836491376E-1,-2.270190418E-1,-9.863513947E0,9.867835225E0
1.330415595E0,1.884347796E-1,-1.887338907E-1,-9.865906715E0,9.869510802E0
1.332860074E0,1.860419661E-1,-1.983051747E-1,-9.870692253E0,9.874436800E0
1.335303824E0,1.956132501E-1,-2.054836452E-1,-9.875477791E0,9.879552099E0
1.337748459E0,2.075773627E-1,-2.030908167E-1,-9.875477791E0,9.879746750E0
1.340193772E0,1.860419661E-1,-2.006980032E-1,-9.863513947E0,9.867309597E0
1.342638355E0,1.932204217E-1,-1.959123611E-1,-9.875477791E0,9.879310572E0
1.345082053E0,1.764706671E-1,-2.174477577E-1,-9.856335640E0,9.860313264E0
1.347526636E0,1.908276081E-1,-2.030908167E-1,-9.870692253E0,9.874625391E0
1.349972001E0,2.051845491E-1,-2.030908167E-1,-9.897013664E0,9.901223462E0
1.352416480E0,1.908276081E-1,-2.006980032E-1,-9.863513947E0,9.867400987E0
1.354860230E0,1.884347796E-1,-2.006980032E-1,-9.851550102E0,9.855395820E0
1.357304865E0,1.764706671E-1,-1.935195327E-1,-9.849157333E0,9.852638828E0
1.359750230E0,1.836491376E-1,-2.054836452E-1,-9.856335640E0,9.860187766E0
1.362194709E0,2.123630047E-1,-2.126621157E-1,-9.868299484E0,9.872874857E0
1.364638459E0,1.812563092E-1,-2.198405862E-1,-9.861121178E0,9.865236673E0
1.367083042E0,1.812563092E-1,-2.030908167E-1,-9.870692253E0,9.874445062E0
1.369528407E0,2.003988922E-1,-2.246262282E-1,-9.865906715E0,9.870498061E0
1.371972886E0,1.980060786E-1,-2.126621157E-1,-9.861121178E0,9.865401282E0
1.374416636E0,2.051845491E-1,-1.959123611E-1,-9.849157333E0,9.853242234E0
1.376861272E0,1.836491376E-1,-1.959123611E-1,-9.877870560E0,9.881519896E0
1.379306636E0,1.932204217E-1,-2.006980032E-1,-9.865906715E0,9.869839367E0
1.381751115E0,1.884347796E-1,-2.006980032E-1,-9.837192535E0,9.841043864E0
1.384194865E0,1.956132501E-1,-2.078764737E-1,-9.849157333E0,9.853292716E0
1.386639449E0,1.764706671E-1,-2.030908167E-1,-9.856335640E0,9.860007101E0
1.389084813E0,1.980060786E-1,-2.126621157E-1,-9.870692253E0,9.874968209E0
1.391529292E0,1.956132501E-1,-2.198405862E-1,-9.868299484E0,9.872686014E0
1.393973095E0,1.908276081E-1,-2.102692872E-1,-9.849157333E0,9.853249643E0
1.396417678E0,1.836491376E-1,-2.150549293E-1,-9.856335640E0,9.860391872E0
1.398862990E0,2.003988922E-1,-1.911267042E-1,-9.877870560E0,9.881751663E0
1.401307574E0,1.836491376E-1,-2.054836452E-1,-9.870692253E0,9.874538779E0
1.403751272E0,1.980060786E-1,-2.174477577E-1,-9.865906715E0,9.870289016E0
1.406195855E0,1.860419661E-1,-2.054836452E-1,-9.861121178E0,9.865016271E0
1.408641220E0,1.668993831E-1,-2.054836452E-1,-9.873085022E0,9.876633373E0
1.411085699E0,1.980060786E-1,-2.150549293E-1,-9.863513947E0,9.867844871E0
1.413529449E0,2.003988922E-1,-1.935195327E-1,-9.837192535E0,9.841136444E0
1.415974084E0,1.836491376E-1,-2.246262282E-1,-9.849157333E0,9.853430069E0
1.418419449E0,1.956132501E-1,-2.102692872E-1,-9.856335640E0,9.860518747E0
1.420863928E0,1.836491376E-1,-2.054836452E-1,-9.858728409E0,9.862579600E0
1.423307678E0,1.788634956E-1,-1.959123611E-1,-9.865906715E0,9.869472586E0
1.425752261E0,2.027917206E-1,-2.006980032E-1,-9.849157333E0,9.853289012E0
1.428197626E0,2.075773627E-1,-2.078764737E-1,-9.870692253E0,9.875062863E0
1.430642105E0,1.956132501E-1,-1.911267042E-1,-9.853942871E0,9.857737269E0
1.433085907E0,1.956132501E-1,-2.198405862E-1,-9.887442589E0,9.891820630E0
1.435530490E0,2.051845491E-1,-2.365903407E-1,-9.870692253E0,9.875659028E0
1.437975855E0,2.027917206E-1,-1.935195327E-1,-9.839586258E0,9.843578212E0
1.440420334E0,2.099701911E-1,-1.839482337E-1,-9.861121178E0,9.865071480E0
1.442864084E0,2.075773627E-1,-2.078764737E-1,-9.870692253E0,9.875062863E0
1.445308667E0,1.812563092E-1,-2.054836452E-1,-9.868299484E0,9.872102719E0
1.447754032E0,1.836491376E-1,-2.150549293E-1,-9.861121178E0,9.865175442E0
1.450198615E0,1.812563092E-1,-2.102692872E-1,-9.861121178E0,9.865028023E0
1.452642313E0,1.788634956E-1,-2.030908167E-1,-9.880263329E0,9.883968913E0
1.455086897E0,2.051845491E-1,-2.006980032E-1,-9.870692253E0,9.874864351E0
1.457532261E0,2.075773627E-1,-2.222333997E-1,-9.853942871E0,9.858634092E0
1.459976740E0,2.051845491E-1,-1.911267042E-1,-9.846764565E0,9.850756443E0
1.462420490E0,1.980060786E-1,-1.911267042E-1,-9.870692253E0,9.874527907E0
1.464865074E0,1.764706671E-1,-1.839482337E-1,-9.863513947E0,9.866807296E0
1.467310438E0,1.908276081E-1,-2.126621157E-1,-9.873085022E0,9.877218647E0
1.469754917E0,1.884347796E-1,-1.983051747E-1,-9.861121178E0,9.864914774E0
1.472198720E0,1.788634956E-1,-1.959123611E-1,-9.868299484E0,9.871864490E0
1.474643303E0,1.956132501E-1,-2.006980032E-1,-9.853942871E0,9.857927487E0
1.477088667E0,1.860419661E-1,-2.054836452E-1,-9.863513947E0,9.867408095E0
1.479533147E0,2.027917206E-1,-2.054836452E-1,-9.873085022E0,9.877305091E0
1.481976897E0,2.075773627E-1,-2.102692872E-1,-9.865906715E0,9.870330129E0
1.484421480E0,1.908276081E-1,-2.006980032E-1,-9.851550102E0,9.855441861E0
1.486866845E0,1.956132501E-1,-1.935195327E-1,-9.868299484E0,9.872134980E0
1.489311324E0,1.836491376E-1,-2.078764737E-1,-9.863513947E0,9.867413390E0
1.491755126E0,2.075773627E-1,-2.126621157E-1,-9.863513947E0,9.867989710E0
1.494199709E0,2.075773627E-1,-2.006980032E-1,-9.856335640E0,9.860563893E0
1.496645074E0,1.716850251E-1,-1.863410622E-1,-9.851550102E0,9.854807870E0
1.499089553E0,2.075773627E-1,-2.006980032E-1,-9.861121178E0,9.865347380E0
1.501533303E0,1.908276081E-1,-1.935195327E-1,-9.841979027E0,9.845730859E0
1.503977886E0,1.884347796E-1,-2.078764737E-1,-9.853942871E0,9.857936417E0
1.506423251E0,1.836491376E-1,-1.887338907E-1,-9.839586258E0,9.843109530E0
1.508867834E0,1.908276081E-1,-2.054836452E-1,-9.868299484E0,9.872283090E0
1.511311532E0,1.932204217E-1,-2.006980032E-1,-9.858728409E0,9.862663923E0
1.513756115E0,1.860419661E-1,-2.030908167E-1,-9.868299484E0,9.872142230E0
1.516201480E0,1.812563092E-1,-1.959123611E-1,-9.868299484E0,9.871908134E0
1.518645959E0,1.908276081E-1,-2.126621157E-1,-9.882657051E0,9.886786674E0
1.521089709E0,1.980060786E-1,-1.839482337E-1,-9.861121178E0,9.864824086E0
1.523534292E0,2.099701911E-1,-2.102692872E-1,-9.861121178E0,9.865597373E0
1.525979657E0,2.027917206E-1,-2.174477577E-1,-9.865906715E0,9.870386179E0
1.528424136E0,2.003988922E-1,-2.150549293E-1,-9.877870560E0,9.882243426E0
1.530867938E0,1.956132501E-1,-2.102692872E-1,-9.870692253E0,9.874869279E0
1.533312522E0,1.932204217E-1,-1.983051747E-1,-9.856335640E0,9.860223695E0
1.535757886E0,1.980060786E-1,-2.030908167E-1,-9.865906715E0,9.869983161E0
1.538202365E0,1.812563092E-1,-2.078764737E-1,-9.885049820E0,9.888896623E0
1.540646115E0,1.956132501E-1,-2.078764737E-1,-9.892228127E0,9.896345511E0
1.543090751E0,2.027917206E-1,-1.839482337E-1,-9.846764565E0,9.850570228E0
1.545536063E0,1.860419661E-1,-2.174477577E-1,-9.853942871E0,9.858097446E0
1.547980542E0,1.932204217E-1,-2.150549293E-1,-9.853942871E0,9.858183041E0
1.550424345E0,1.932204217E-1,-2.126621157E-1,-9.870692253E0,9.874873410E0
1.552868928E0,1.956132501E-1,-2.102692872E-1,-9.873085022E0,9.877261036E0
1.555314292E0,1.980060786E-1,-2.030908167E-1,-9.858728409E0,9.862807822E0
1.557758772E0,1.956132501E-1,-2.030908167E-1,-9.873085022E0,9.877110826E0
1.560202522E0,2.123630047E-1,-2.054836452E-1,-9.861121178E0,9.865547752E0
1.562647105E0,2.027917206E-1,-2.198405862E-1,-9.868299484E0,9.872830854E0
1.565092470E0,2.027917206E-1,-2.222333997E-1,-9.861121178E0,9.865709455E0
1.567536949E0,1.836491376E-1,-2.126621157E-1,-9.861121178E0,9.865123571E0
1.569980751E0,1.812563092E-1,-2.054836452E-1,-9.873085022E0,9.876886414E0
1.572425334E0,1.788634956E-1,-1.935195327E-1,-9.865906715E0,9.869425377E0
1.574870699E0,1.908276081E-1,-2.126621157E-1,-9.877870560E0,9.882002183E0
1.577315178E0,1.956132501E-1,-2.126621157E-1,-9.861121178E0,9.865353547E0
1.579758928E0,1.956132501E-1,-2.174477577E-1,-9.849157333E0,9.853499290E0
1.582203511E0,2.027917206E-1,-2.030908167E-1,-9.841979027E0,9.846162782E0
1.584648876E0,1.836491376E-1,-2.054836452E-1,-9.873085022E0,9.876930616E0
1.587093355E0,2.003988922E-1,-2.126621157E-1,-9.863513947E0,9.867841317E0
1.589537157E0,1.956132501E-1,-1.959123611E-1,-9.873085022E0,9.876965832E0
1.591981740E0,1.860419661E-1,-1.911267042E-1,-9.856335640E0,9.859943878E0
1.594427105E0,1.908276081E-1,-2.006980032E-1,-9.885049820E0,9.888928395E0
1.596871584E0,1.956132501E-1,-2.006980032E-1,-9.861121178E0,9.865102894E0
1.599315334E0,2.147558331E-1,-2.078764737E-1,-9.861121178E0,9.865649678E0
1.601759970E0,1.860419661E-1,-2.246262282E-1,-9.856335640E0,9.860650121E0
1.604205282E0,1.836491376E-1,-2.126621157E-1,-9.868299484E0,9.872298967E0
1.606649761E0,1.884347796E-1,-1.959123611E-1,-9.832406998E0,9.836163718E0
1.609093563E0,1.980060786E-1,-2.030908167E-1,-9.863513947E0,9.867591381E0
1.611538147E0,2.027917206E-1,-1.935195327E-1,-9.877870560E0,9.881847048E0
1.613983511E0,1.788634956E-1,-2.006980032E-1,-9.861121178E0,9.864784981E0
1.616427990E0,1.884347796E-1,-1.935195327E-1,-9.861121178E0,9.864819733E0
1.618871740E0,1.860419661E-1,-2.174477577E-1,-9.870692253E0,9.874839781E0
1.621316376E0,2.027917206E-1,-2.078764737E-1,-9.870692253E0,9.874963426E0
1.623761688E0,2.003988922E-1,-2.030908167E-1,-9.875477791E0,9.879598534E0
1.626206167E0,1.932204217E-1,-2.150549293E-1,-9.868299484E0,9.872533488E0
1.628649970E0,2.027917206E-1,-2.174477577E-1,-9.853942871E0,9.858427771E0
1.631094553E0,1.716850251E-1,-2.174477577E-1,-9.870692253E0,9.874579729E0
1.633539917E0,1.932204217E-1,-2.102692872E-1,-9.863513947E0,9.867646866E0
1.635984397E0,1.860419661E-1,-1.911267042E-1,-9.873085022E0,9.876687141E0
1.638428147E0,1.812563092E-1,-2.030908167E-1,-9.868299484E0,9.872053203E0
1.640872730E0,1.788634956E-1,-2.102692872E-1,-9.877870560E0,9.881727183E0
1.643318095E0,2.075773627E-1,-2.006980032E-1,-9.863513947E0,9.867739124E0
1.645762678E0,1.836491376E-1,-2.150549293E-1,-9.861121178E0,9.865175442E0
1.648206376E0,1.812563092E-1,-2.054836452E-1,-9.856335640E0,9.860143489E0
1.650650959E0,1.860419661E-1,-2.150549293E-1,-9.856335640E0,9.860436729E0
1.653096324E0,1.956132501E-1,-2.198405862E-1,-9.870692253E0,9.875077720E0
1.655540803E0,1.932204217E-1,-1.863410622E-1,-9.856335640E0,9.859990333E0
1.657984553E0,1.884347796E-1,-2.030908167E-1,-9.889835358E0,9.893715023E0
1.660429188E0,1.836491376E-1,-2.198405862E-1,-9.870692253E0,9.874847971E0
1.662874501E0,2.003988922E-1,-1.911267042E-1,-9.873085022E0,9.876968006E0
1.665318980E0,1.812563092E-1,-1.887338907E-1,-9.861121178E0,9.864592501E0
1.667762730E0,1.812563092E-1,-2.198405862E-1,-9.844371796E0,9.848494290E0
1.670207365E0,1.764706671E-1,-1.935195327E-1,-9.839586258E0,9.843071138E0
1.672652730E0,1.812563092E-1,-2.030908167E-1,-9.844371796E0,9.848134635E0
1.675097209E0,2.003988922E-1,-2.078764737E-1,-9.863513947E0,9.867739342E0
1.677540959E0,1.836491376E-1,-1.935195327E-1,-9.865906715E0,9.869513267E0
1.679985542E0,1.908276081E-1,-2.054836452E-1,-9.873085022E0,9.877066698E0
1.682430907E0,2.003988922E-1,-1.959123611E-1,-9.849157333E0,9.853143739E0
1.684875386E0,1.908276081E-1,-2.030908167E-1,-9.861121178E0,9.865058131E0
1.687319136E0,2.027917206E-1,-2.006980032E-1,-9.882657051E0,9.886774730E0
1.689763772E0,1.908276081E-1,-1.839482337E-1,-9.863513947E0,9.867074516E0
1.692209136E0,1.860419661E-1,-2.126621157E-1,-9.868299484E0,9.872343769E0
1.694653615E0,1.932204217E-1,-2.054836452E-1,-9.863513947E0,9.867546049E0
1.697097365E0,1.884347796E-1,-2.006980032E-1,-9.880263329E0,9.884097875E0
1.699541949E0,2.123630047E-1,-1.959123611E-1,-9.853942871E0,9.858177814E0
1.701987313E0,1.932204217E-1,-2.006980032E-1,-9.858728409E0,9.862663923E0
1.704431792E0,1.980060786E-1,-2.270190418E-1,-9.861121178E0,9.865721207E0
1.706875595E0,2.075773627E-1,-2.054836452E-1,-9.873085022E0,9.877404504E0
1.709320178E0,1.908276081E-1,-1.959123611E-1,-9.880263329E0,9.884047768E0
1.711765542E0,1.812563092E-1,-2.150549293E-1,-9.875477791E0,9.879481974E0
1.714210022E0,1.860419661E-1,-2.150549293E-1,-9.889835358E0,9.893922561E0
1.716653772E0,2.099701911E-1,-2.054836452E-1,-9.865906715E0,9.870279952E0
1.719098355E0,2.099701911E-1,-2.030908167E-1,-9.856335640E0,9.860663548E0
1.721543720E0,1.860419661E-1,-2.006980032E-1,-9.861121178E0,9.864917748E0
1.723988199E0,1.908276081E-1,-1.911267042E-1,-9.885049820E0,9.888738774E0
1.726432001E0,1.812563092E-1,-2.102692872E-1,-9.851550102E0,9.855460742E0
1.728876584E0,1.884347796E-1,-2.078764737E-1,-9.873085022E0,9.877070828E0
1.731321949E0,1.932204217E-1,-2.006980032E-1,-9.853942871E0,9.857880296E0
1.733766428E0,1.812563092E-1,-2.030908167E-1,-9.858728409E0,9.862485770E0
1.736210178E0,1.860419661E-1,-2.078764737E-1,-9.858728409E0,9.862674591E0
1.738654761E0,2.051845491E-1,-2.054836452E-1,-9.853942871E0,9.858220647E0
1.741100126E0,1.980060786E-1,-2.078764737E-1,-9.868299484E0,9.872474550E0
1.743544605E0,2.051845491E-1,-1.959123611E-1,-9.880263329E0,9.884335374E0
1.745988407E0,1.884347796E-1,-2.150549293E-1,-9.861121178E0,9.865265692E0
1.748432990E0,1.788634956E-1,-2.054836452E-1,-9.858728409E0,9.862491649E0
1.750878355E0,1.980060786E-1,-2.006980032E-1,-9.858728409E0,9.862758840E0
1.753322834E0,2.099701911E-1,-2.030908167E-1,-9.870692253E0,9.875013869E0
1.755766584E0,2.027917206E-1,-2.102692872E-1,-9.865906715E0,9.870230644E0
1.758211167E0,1.860419661E-1,-2.030908167E-1,-9.873085022E0,9.876925906E0
1.760656532E0,1.860419661E-1,-2.054836452E-1,-9.875477791E0,9.879367224E0
1.763101011E0,2.027917206E-1,-1.911267042E-1,-9.873085022E0,9.877016845E0
1.765544813E0,1.716850251E-1,-2.030908167E-1,-9.863513947E0,9.867098307E0
1.767989397E0,1.812563092E-1,-2.078764737E-1,-9.856335640E0,9.860193645E0
1.770434761E0,1.716850251E-1,-1.935195327E-1,-9.875477791E0,9.878865682E0
1.772879240E0,1.956132501E-1,-2.054836452E-1,-9.841979027E0,9.846067196E0
1.775322990E0,2.003988922E-1,-2.150549293E-1,-9.861121178E0,9.865501468E0
1.777767574E0,1.980060786E-1,-2.102692872E-1,-9.856335640E0,9.860566506E0
1.780212938E0,1.812563092E-1,-2.198405862E-1,-9.851550102E0,9.855669594E0
1.782657417E0,1.812563092E-1,-2.150549293E-1,-9.851550102E0,9.855564007E0
1.785101220E0,2.075773627E-1,-2.054836452E-1,-9.863513947E0,9.867837618E0
1.787545803E0,1.860419661E-1,-2.030908167E-1,-9.861121178E0,9.864966719E0
1.789991167E0,2.027917206E-1,-2.102692872E-1,-9.846764565E0,9.851096895E0
1.792435647E0,2.099701911E-1,-2.102692872E-1,-9.863513947E0,9.867989057E0
1.794879397E0,1.932204217E-1,-1.839482337E-1,-9.856335640E0,9.859945402E0
1.797323980E0,1.692921966E-1,-2.102692872E-1,-9.846764565E0,9.850464223E0
1.799769345E0,2.003988922E-1,-2.198405862E-1,-9.841979027E0,9.846473519E0
1.802213824E0,1.956132501E-1,-2.006980032E-1,-9.865906715E0,9.869886501E0
1.804657574E0,1.860419661E-1,-2.054836452E-1,-9.877870560E0,9.881759051E0
1.807102209E0,1.860419661E-1,-1.959123611E-1,-9.868299484E0,9.871997163E0
1.809547522E0,1.884347796E-1,-2.030908167E-1,-9.885049820E0,9.888931362E0
1.811992105E0,1.956132501E-1,-1.911267042E-1,-9.877870560E0,9.881655770E0
1.814435803E0,1.884347796E-1,-1.983051747E-1,-9.889835358E0,9.893617943E0
1.816880386E0,1.980060786E-1,-1.935195327E-1,-9.880263329E0,9.884141827E0
1.819325751E0,1.980060786E-1,-2.126621157E-1,-9.885049820E0,9.889319568E0
1.821770230E0,1.980060786E-1,-2.102692872E-1,-9.870692253E0,9.874916969E0
1.824214032E0,2.099701911E-1,-2.102692872E-1,-9.870692253E0,9.875164111E0
1.826658615E0,1.860419661E-1,-1.719841212E-1,-9.863513947E0,9.866767329E0
1.829103980E0,1.908276081E-1,-2.030908167E-1,-9.868299484E0,9.872233575E0
1.831548459E0,1.836491376E-1,-2.030908167E-1,-9.849157333E0,9.852962654E0
1.833992209E0,1.668993831E-1,-2.030908167E-1,-9.875477791E0,9.878975801E0
1.836436792E0,1.788634956E-1,-1.983051747E-1,-9.885049820E0,9.888656483E0
1.838882157E0,1.932204217E-1,-2.030908167E-1,-9.868299484E0,9.872280118E0
1.841326636E0,2.003988922E-1,-2.102692872E-1,-9.849157333E0,9.853439657E0
1.843770438E0,1.932204217E-1,-2.054836452E-1,-9.865906715E0,9.869937841E0
1.846215022E0,1.932204217E-1,-2.222333997E-1,-9.858728409E0,9.863125653E0
1.848660334E0,2.099701911E-1,-2.174477577E-1,-9.849157333E0,9.853794761E0
1.851104917E0,2.051845491E-1,-2.054836452E-1,-9.849157333E0,9.853437187E0
1.853548615E0,1.908276081E-1,-2.054836452E-1,-9.870692253E0,9.874674894E0
1.855993199E0,1.764706671E-1,-1.911267042E-1,-9.841979027E0,9.845416318E0
1.858438563E0,1.932204217E-1,-2.222333997E-1,-9.858728409E0,9.863125653E0
1.860883042E0,1.932204217E-1,-1.959123611E-1,-9.873085022E0,9.876918732E0
1.863326792E0,2.027917206E-1,-2.054836452E-1,-9.856335640E0,9.860562877E0
1.865771428E0,2.051845491E-1,-2.150549293E-1,-9.858728409E0,9.863208158E0
1.868216792E0,2.027917206E-1,-2.150549293E-1,-9.870692253E0,9.875117147E0
1.870661272E0,2.075773627E-1,-1.719841212E-1,-9.868299484E0,9.871980633E0
1.873105022E0,1.860419661E-1,-2.102692872E-1,-9.863513947E0,9.867508914E0
1.875549605E0,1.788634956E-1,-2.006980032E-1,-9.844371796E0,9.848041830E0
1.877994970E0,2.051845491E-1,-2.102692872E-1,-9.856335640E0,9.860713266E0
1.880439449E0,1.908276081E-1,-2.222333997E-1,-9.880263329E0,9.884604509E0
1.882883251E0,1.812563092E-1,-2.150549293E-1,-9.844371796E0,9.848388626E0
1.885327834E0,1.980060786E-1,-2.102692872E-1,-9.849157333E0,9.853391282E0
1.887773147E0,2.003988922E-1,-2.078764737E-1,-9.837192535E0,9.841429232E0
1.890217730E0,1.836491376E-1,-2.318046987E-1,-9.856335640E0,9.860771403E0
1.892661428E0,1.788634956E-1,-2.150549293E-1,-9.870692253E0,9.874654745E0
1.895106011E0,1.956132501E-1,-2.150549293E-1,-9.868299484E0,9.872580609E0
1.897551376E0,2.075773627E-1,-2.054836452E-1,-9.841979027E0,9.846312155E0
1.899995855E0,1.932204217E-1,-1.935195327E-1,-9.837192535E0,9.840992883E0
1.902439605E0,1.860419661E-1,-1.959123611E-1,-9.841979027E0,9.845686590E0
1.904884240E0,1.980060786E-1,-2.006980032E-1,-9.877870560E0,9.881893183E0
1.907329605E0,1.956132501E-1,-1.839482337E-1,-9.889835358E0,9.893479919E0
1.909774084E0,1.932204217E-1,-2.030908167E-1,-9.856335640E0,9.860321103E0
1.912217834E0,1.980060786E-1,-2.030908167E-1,-9.887442589E0,9.891510159E0
1.914662417E0,1.884347796E-1,-2.006980032E-1,-9.877870560E0,9.881706034E0
1.917107782E0,1.884347796E-1,-2.078764737E-1,-9.865906715E0,9.869895420E0
1.919552261E0,1.812563092E-1,-2.126621157E-1,-9.882657051E0,9.886606567E0
1.921996063E0,1.836491376E-1,-2.102692872E-1,-9.858728409E0,9.862680468E0
1.924440647E0,1.980060786E-1,-2.078764737E-1,-9.858728409E0,9.862907526E0
1.926885959E0,2.027917206E-1,-2.030908167E-1,-9.880263329E0,9.884430879E0
1.929330542E0,2.291127741E-1,-2.126621157E-1,-9.856335640E0,9.861291502E0
1.931774240E0,2.027917206E-1,-2.030908167E-1,-9.853942871E0,9.858121549E0
1.934218824E0,1.956132501E-1,-2.102692872E-1,-9.861121178E0,9.865302256E0
1.936664188E0,1.668993831E-1,-2.102692872E-1,-9.856335640E0,9.859990914E0
1.939108667E0,1.884347796E-1,-2.174477577E-1,-9.865906715E0,9.870101646E0
1.941552417E0,1.812563092E-1,-2.126621157E-1,-9.849157333E0,9.853120277E0
1.943997053E0,1.812563092E-1,-2.006980032E-1,-9.868299484E0,9.872004267E0
1.946442365E0,1.980060786E-1,-2.150549293E-1,-9.865906715E0,9.870236590E0
1.948886949E0,1.932204217E-1,-2.078764737E-1,-9.868299484E0,9.872379727E0
1.951330647E0,1.860419661E-1,-2.102692872E-1,-9.853942871E0,9.857941717E0
1.953775230E0,2.051845491E-1,-1.983051747E-1,-9.856335640E0,9.860465399E0
1.956220595E0,1.740778536E-1,-2.078764737E-1,-9.858728409E0,9.862456163E0
1.958665074E0,1.932204217E-1,-2.006980032E-1,-9.863513947E0,9.867447552E0
1.961108824E0,1.980060786E-1,-2.102692872E-1,-9.870692253E0,9.874916969E0
1.963553459E0,1.884347796E-1,-2.078764737E-1,-9.861121178E0,9.865111818E0
1.965998772E0,1.956132501E-1,-2.054836452E-1,-9.868299484E0,9.872376755E0
1.968443355E0,1.860419661E-1,-2.054836452E-1,-9.868299484E0,9.872191745E0
1.970887053E0,1.836491376E-1,-1.935195327E-1,-9.865906715E0,9.869513267E0
1.973331636E0,2.003988922E-1,-1.911267042E-1,-9.868299484E0,9.872184350E0
1.975777001E0,2.195414752E-1,-2.030908167E-1,-9.861121178E0,9.865655337E0
1.978221480E0,1.884347796E-1,-1.983051747E-1,-9.846764565E0,9.850563689E0
1.980665230E0,1.980060786E-1,-2.030908167E-1,-9.849157333E0,9.853240709E0
1.983109865E0,2.003988922E-1,-2.174477577E-1,-9.861121178E0,9.865553919E0
1.985555178E0,1.980060786E-1,-1.863410622E-1,-9.870692253E0,9.874436437E0
1.987999761E0,1.764706671E-1,-1.959123611E-1,-9.868299484E0,9.871821426E0
1.990443459E0,1.884347796E-1,-1.935195327E-1,-9.865906715E0,9.869603477E0
1.992888042E0,1.932204217E-1,-2.102692872E-1,-9.858728409E0,9.862863334E0
1.995333407E0,1.884347796E-1,-2.102692872E-1,-9.868299484E0,9.872337897E0
1.997777886E0,1.860419661E-1,-2.006980032E-1,-9.873085022E0,9.876876994E0
2.000221636E0,1.908276081E-1,-1.959123611E-1,-9.887442589E0,9.891224281E0
2.002666272E0,2.123630047E-1,-2.030908167E-1,-9.865906715E0,9.870281619E0
2.005111584E0,2.003988922E-1,-2.102692872E-1,-9.868299484E0,9.872573504E0
2.007556167E0,1.932204217E-1,-1.959123611E-1,-9.873085022E0,9.876918732E0
2.009999865E0,1.836491376E-1,-1.935195327E-1,-9.834799767E0,9.838417722E0
2.012444449E0,2.003988922E-1,-2.030908167E-1,-9.880263329E0,9.884382077E0
2.014889813E0,1.860419661E-1,-2.174477577E-1,-9.868299484E0,9.872448017E0
2.017334292E0,1.692921966E-1,-1.911267042E-1,-9.863513947E0,9.866817959E0
2.019778042E0,1.980060786E-1,-2.102692872E-1,-9.851550102E0,9.855783023E0
2.022222678E0,1.812563092E-1,-2.078764737E-1,-9.856335640E0,9.860193645E0
2.024667990E0,1.932204217E-1,-2.078764737E-1,-9.868299484E0,9.872379727E0
2.027112574E0,2.075773627E-1,-1.911267042E-1,-9.858728409E0,9.862765516E0
2.029556272E0,2.003988922E-1,-2.150549293E-1,-9.875477791E0,9.879851716E0
2.032000855E0,2.123630047E-1,-2.078764737E-1,-9.841979027E0,9.846464433E0
2.034446220E0,1.836491376E-1,-2.054836452E-1,-9.868299484E0,9.872146942E0
2.036890699E0,1.740778536E-1,-2.054836452E-1,-9.861121178E0,9.864797895E0
2.039334449E0,1.836491376E-1,-2.078764737E-1,-9.870692253E0,9.874588862E0
2.041779084E0,1.812563092E-1,-1.959123611E-1,-9.873085022E0,9.876691924E0
2.044224397E0,2.003988922E-1,-2.126621157E-1,-9.887442589E0,9.891759492E0
2.046668980E0,1.860419661E-1,-2.126621157E-1,-9.870692253E0,9.874735558E0
2.049112678E0,2.027917206E-1,-1.863410622E-1,-9.870692253E0,9.874533560E0
2.051557261E0,1.836491376E-1,-2.078764737E-1,-9.873085022E0,9.876980687E0
2.054002626E0,1.932204217E-1,-1.959123611E-1,-9.858728409E0,9.862567699E0
2.056447105E0,1.860419661E-1,-2.006980032E-1,-9.861121178E0,9.864917748E0
2.058890855E0,1.860419661E-1,-2.150549293E-1,-9.861121178E0,9.865220277E0
2.061335490E0,1.597209126E-1,-2.126621157E-1,-9.868299484E0,9.871882832E0
2.063780803E0,1.860419661E-1,-2.006980032E-1,-9.856335640E0,9.860134053E0
2.066225386E0,1.956132501E-1,-2.054836452E-1,-9.858728409E0,9.862809636E0
2.068669084E0,2.027917206E-1,-1.839482337E-1,-9.853942871E0,9.857745764E0
2.071113667E0,2.147558331E-1,-2.126621157E-1,-9.851550102E0,9.856185097E0
2.073559032E0,1.932204217E-1,-1.983051747E-1,-9.846764565E0,9.850656398E0
2.076003511E0,1.860419661E-1,-1.911267042E-1,-9.868299484E0,9.871903349E0
2.078447261E0,2.003988922E-1,-2.078764737E-1,-9.868299484E0,9.872522831E0
2.080891897E0,1.884347796E-1,-1.935195327E-1,-9.880263329E0,9.883954721E0
2.083337209E0,1.980060786E-1,-2.198405862E-1,-9.858728409E0,9.863166942E0
2.085781792E0,1.860419661E-1,-2.030908167E-1,-9.844371796E0,9.848223878E0
2.088225490E0,1.716850251E-1,-2.198405862E-1,-9.877870560E0,9.881808156E0
2.090670074E0,1.812563092E-1,-1.983051747E-1,-9.856335640E0,9.859996503E0
2.093115438E0,1.836491376E-1,-1.983051747E-1,-9.880263329E0,9.883959500E0
2.095559917E0,1.836491376E-1,-2.150549293E-1,-9.849157333E0,9.853216521E0
2.098003667E0,2.027917206E-1,-2.054836452E-1,-9.844371796E0,9.848604168E0
2.100448303E0,1.956132501E-1,-2.006980032E-1,-9.856335640E0,9.860319289E0
2.102893615E0,1.860419661E-1,-2.006980032E-1,-9.865906715E0,9.869701445E0
2.105338199E0,2.051845491E-1,-2.150549293E-1,-9.856335640E0,9.860816476E0
2.107781897E0,1.668993831E-1,-1.887338907E-1,-9.865906715E0,9.869123122E0
2.110226480E0,1.956132501E-1,-2.174477577E-1,-9.853942871E0,9.858282720E0
2.112671845E0,1.980060786E-1,-2.102692872E-1,-9.853942871E0,9.858174764E0
2.115116324E0,1.860419661E-1,-2.078764737E-1,-9.856335640E0,9.860282779E0
2.117560074E0,1.908276081E-1,-2.126621157E-1,-9.868299484E0,9.872435113E0
2.120004709E0,1.812563092E-1,-2.030908167E-1,-9.887442589E0,9.891189043E0
2.122450022E0,1.764706671E-1,-2.006980032E-1,-9.849157333E0,9.852782438E0
2.124894605E0,1.980060786E-1,-2.054836452E-1,-9.875477791E0,9.879599766E0
2.127338303E0,1.932204217E-1,-1.935195327E-1,-9.844371796E0,9.848169373E0
2.129782886E0,1.956132501E-1,-2.006980032E-1,-9.873085022E0,9.877061916E0
2.132228251E0,1.908276081E-1,-2.078764737E-1,-9.873085022E0,9.877116768E0
2.134672730E0,1.812563092E-1,-2.222333997E-1,-9.868299484E0,9.872465561E0
2.137116480E0,1.932204217E-1,-2.030908167E-1,-9.846764565E0,9.850753900E0
2.139561115E0,1.908276081E-1,-2.174477577E-1,-9.849157333E0,9.853405446E0
2.142006428E0,1.980060786E-1,-2.078764737E-1,-9.863513947E0,9.867691037E0
2.144451011E0,1.884347796E-1,-2.030908167E-1,-9.863513947E0,9.867403960E0
2.146894709E0,2.003988922E-1,-1.791625917E-1,-9.851550102E0,9.855216810E0
2.149339292E0,2.027917206E-1,-2.030908167E-1,-9.841979027E0,9.846162782E0
2.151784657E0,1.884347796E-1,-2.054836452E-1,-9.861121178E0,9.865061686E0
2.154229136E0,1.740778536E-1,-2.030908167E-1,-9.873085022E0,9.876707793E0
2.156672886E0,1.908276081E-1,-2.054836452E-1,-9.849157333E0,9.853148679E0
2.159117522E0,2.195414752E-1,-2.102692872E-1,-9.856335640E0,9.861022456E0
2.161562834E0,1.668993831E-1,-1.935195327E-1,-9.870692253E0,9.873999735E0
2.164007417E0,1.788634956E-1,-1.959123611E-1,-9.858728409E0,9.862296875E0
2.166451115E0,1.860419661E-1,-2.030908167E-1,-9.868299484E0,9.872142230E0
2.168895699E0,1.884347796E-1,-2.078764737E-1,-9.882657051E0,9.886638998E0
2.171341063E0,1.956132501E-1,-2.054836452E-1,-9.853942871E0,9.858026079E0
2.173785542E0,2.099701911E-1,-2.054836452E-1,-9.844371796E0,9.848754594E0
2.176229292E0,1.908276081E-1,-2.174477577E-1,-9.853942871E0,9.858188921E0
2.178673928E0,1.836491376E-1,-1.959123611E-1,-9.861121178E0,9.864776710E0
2.181119240E0,1.908276081E-1,-2.006980032E-1,-9.863513947E0,9.867400987E0
2.183563720E0,1.860419661E-1,-1.935195327E-1,-9.863513947E0,9.867166199E0
2.186007522E0,2.003988922E-1,-2.054836452E-1,-9.875477791E0,9.879648012E0
2.188452105E0,2.003988922E-1,-2.126621157E-1,-9.875477791E0,9.879799921E0
2.190897470E0,2.003988922E-1,-2.078764737E-1,-9.877870560E0,9.882089816E0
2.193341949E0,1.932204217E-1,-1.959123611E-1,-9.856335640E0,9.860175862E0
2.195785699E0,1.980060786E-1,-2.294118702E-1,-9.861121178E0,9.865776558E0
2.198230334E0,1.836491376E-1,-2.126621157E-1,-9.841979027E0,9.845989201E0
2.200675647E0,1.860419661E-1,-2.054836452E-1,-9.839586258E0,9.843489872E0
2.203120230E0,1.836491376E-1,-2.054836452E-1,-9.873085022E0,9.876930616E0
2.205563928E0,2.003988922E-1,-2.030908167E-1,-9.863513947E0,9.867639686E0
2.208008511E0,2.075773627E-1,-2.102692872E-1,-9.863513947E0,9.867938433E0
2.210453876E0,1.884347796E-1,-2.054836452E-1,-9.861121178E0,9.865061686E0
2.212898355E0,1.812563092E-1,-2.150549293E-1,-9.858728409E0,9.862739392E0
2.215342105E0,1.764706671E-1,-1.983051747E-1,-9.863513947E0,9.867085396E0
2.217786740E0,1.740778536E-1,-2.054836452E-1,-9.870692253E0,9.874365407E0
2.220232053E0,1.788634956E-1,-1.911267042E-1,-9.877870560E0,9.881338389E0
2.222676636E0,1.956132501E-1,-1.863410622E-1,-9.868299484E0,9.871996872E0
2.225120334E0,1.860419661E-1,-1.935195327E-1,-9.861121178E0,9.864774316E0
2.227564917E0,2.051845491E-1,-1.959123611E-1,-9.875477791E0,9.879551809E0
2.230010282E0,2.003988922E-1,-2.054836452E-1,-9.880263329E0,9.884431531E0
2.232454761E0,2.099701911E-1,-2.126621157E-1,-9.861121178E0,9.865648663E0
2.234898511E0,1.860419661E-1,-1.983051747E-1,-9.853942871E0,9.857693780E0
2.237343095E0,1.788634956E-1,-2.102692872E-1,-9.841979027E0,9.845849709E0
2.239788459E0,1.716850251E-1,-2.150549293E-1,-9.856335640E0,9.860176298E0
2.242233042E0,1.860419661E-1,-2.054836452E-1,-9.875477791E0,9.879367224E0
2.244676740E0,1.812563092E-1,-2.078764737E-1,-9.865906715E0,9.869760980E0
2.247121324E0,1.836491376E-1,-2.102692872E-1,-9.870692253E0,9.874639524E0
2.249566688E0,2.027917206E-1,-2.126621157E-1,-9.870692253E0,9.875065327E0
2.252011167E0,2.123630047E-1,-2.006980032E-1,-9.856335640E0,9.860665798E0
2.254454917E0,2.051845491E-1,-2.054836452E-1,-9.868299484E0,9.872571040E0
2.256899553E0,1.884347796E-1,-2.150549293E-1,-9.858728409E0,9.862873928E0
2.259344865E0,1.836491376E-1,-2.150549293E-1,-9.892228127E0,9.896269647E0
2.261789345E0,1.932204217E-1,-2.102692872E-1,-9.861121178E0,9.865255100E0
2.264233147E0,1.668993831E-1,-2.030908167E-1,-9.865906715E0,9.869408118E0
2.266677730E0,1.836491376E-1,-2.102692872E-1,-9.868299484E0,9.872247712E0
2.269123095E0,1.908276081E-1,-2.030908167E-1,-9.858728409E0,9.862666318E0
2.271567574E0,1.788634956E-1,-2.150549293E-1,-9.861121178E0,9.865087514E0
2.274011324E0,2.075773627E-1,-2.054836452E-1,-9.870692253E0,9.875012782E0
2.276455959E0,1.908276081E-1,-2.102692872E-1,-9.865906715E0,9.869992080E0
2.278901272E0,1.716850251E-1,-2.198405862E-1,-9.870692253E0,9.874632711E0
2.281345751E0,1.908276081E-1,-2.126621157E-1,-9.865906715E0,9.870043347E0
2.283789553E0,1.932204217E-1,-1.983051747E-1,-9.880263329E0,9.884141972E0
2.286234136E0,1.764706671E-1,-2.006980032E-1,-9.880263329E0,9.883877024E0
2.288679501E0,1.932204217E-1,-1.935195327E-1,-9.861121178E0,9.864912307E0
2.291123980E0,1.980060786E-1,-2.006980032E-1,-9.863513947E0,9.867542423E0
2.293567730E0,1.932204217E-1,-2.150549293E-1,-9.856335640E0,9.860574780E0
2.296012313E0,1.836491376E-1,-1.959123611E-1,-9.882657051E0,9.886304620E0
2.298457678E0,1.932204217E-1,-2.054836452E-1,-9.870692253E0,9.874721425E0
2.300902157E0,1.860419661E-1,-2.030908167E-1,-9.849157333E0,9.853007544E0
2.303345959E0,1.884347796E-1,-1.959123611E-1,-9.858728409E0,9.862475103E0
2.305790542E0,1.908276081E-1,-1.935195327E-1,-9.865906715E0,9.869649452E0
2.308235855E0,1.788634956E-1,-2.150549293E-1,-9.865906715E0,9.869871128E0
2.310680438E0,1.692921966E-1,-1.935195327E-1,-9.865906715E0,9.869256556E0
2.313124136E0,2.027917206E-1,-1.935195327E-1,-9.861121178E0,9.865104418E0
2.315568720E0,1.956132501E-1,-2.174477577E-1,-9.868299484E0,9.872633022E0
2.318014084E0,1.860419661E-1,-1.983051747E-1,-9.873085022E0,9.876828661E0
2.320458563E0,1.908276081E-1,-2.150549293E-1,-9.870692253E0,9.874878701E0
2.322902365E0,1.692921966E-1,-1.959123611E-1,-9.846764565E0,9.850168216E0
2.325346949E0,1.884347796E-1,-2.174477577E-1,-9.861121178E0,9.865318144E0
2.327792313E0,1.932204217E-1,-2.054836452E-1,-9.861121178E0,9.865154258E0
2.330236792E0,1.812563092E-1,-2.078764737E-1,-9.858728409E0,9.862585478E0
2.332680542E0,1.788634956E-1,-2.078764737E-1,-9.873085022E0,9.876892863E0
2.335125126E0,1.932204217E-1,-2.198405862E-1,-9.861121178E0,9.865463745E0
2.337570490E0,1.932204217E-1,-2.054836452E-1,-9.858728409E0,9.862762468E0
2.340014970E0,2.003988922E-1,-2.246262282E-1,-9.858728409E0,9.863323096E0
2.342458772E0,2.003988922E-1,-2.126621157E-1,-9.880263329E0,9.884583367E0
2.344903355E0,1.980060786E-1,-2.078764737E-1,-9.877870560E0,9.882041582E0
2.347348720E0,2.147558331E-1,-1.911267042E-1,-9.844371796E0,9.848568705E0
2.349793199E0,2.003988922E-1,-2.054836452E-1,-9.858728409E0,9.862905712E0
2.352236949E0,1.884347796E-1,-1.959123611E-1,-9.856335640E0,9.860083243E0
2.354681532E0,1.980060786E-1,-1.935195327E-1,-9.853942871E0,9.857831725E0
2.357126897E0,1.764706671E-1,-2.078764737E-1,-9.851550102E0,9.855323127E0
2.359571376E0,2.027917206E-1,-2.102692872E-1,-9.841979027E0,9.846313463E0
2.362015126E0,1.980060786E-1,-2.126621157E-1,-9.858728409E0,9.863009552E0
2.364459761E0,2.027917206E-1,-2.174477577E-1,-9.856335640E0,9.860819452E0
2.366905074E0,1.956132501E-1,-2.102692872E-1,-9.877870560E0,9.882044551E0
2.369349657E0,1.836491376E-1,-2.006980032E-1,-9.861121178E0,9.864872912E0
2.371793355E0,2.051845491E-1,-2.030908167E-1,-9.856335640E0,9.860562805E0
2.374237938E0,1.836491376E-1,-2.030908167E-1,-9.856335640E0,9.860138190E0
2.376683303E0,1.860419661E-1,-1.887338907E-1,-9.861121178E0,9.864681595E0
2.379127782E0,1.932204217E-1,-2.078764737E-1,-9.865906715E0,9.869987947E0
2.381571532E0,2.003988922E-1,-2.126621157E-1,-9.853942871E0,9.858274443E0
2.384016167E0,1.860419661E-1,-1.983051747E-1,-9.863513947E0,9.867261217E0
2.386461480E0,1.812563092E-1,-2.102692872E-1,-9.863513947E0,9.867419845E0
2.388906063E0,1.908276081E-1,-2.150549293E-1,-9.851550102E0,9.855744681E0
2.391349761E0,2.003988922E-1,-2.030908167E-1,-9.856335640E0,9.860464383E0
2.393794345E0,2.123630047E-1,-2.030908167E-1,-9.853942871E0,9.858323084E0
2.396239709E0,1.980060786E-1,-2.222333997E-1,-9.861121178E0,9.865612245E0
2.398684188E0,1.812563092E-1,-2.030908167E-1,-9.853942871E0,9.857702057E0
2.401127938E0,1.956132501E-1,-1.815554202E-1,-9.870692253E0,9.874299594E0
2.403572574E0,1.932204217E-1,-2.030908167E-1,-9.885049820E0,9.889023711E0
2.406017886E0,1.788634956E-1,-1.983051747E-1,-9.858728409E0,9.862344697E0
2.408462470E0,1.908276081E-1,-2.006980032E-1,-9.861121178E0,9.865009161E0
2.410906167E0,1.836491376E-1,-1.935195327E-1,-9.853942871E0,9.857553800E0
2.413350751E0,1.908276081E-1,-1.959123611E-1,-9.853942871E0,9.857737415E0
2.415796115E0,2.075773627E-1,-2.198405862E-1,-9.856335640E0,9.860972087E0
2.418240595E0,1.908276081E-1,-1.911267042E-1,-9.858728409E0,9.862427208E0
2.420684345E0,1.908276081E-1,-2.126621157E-1,-9.865906715E0,9.870043347E0
2.423128980E0,1.908276081E-1,-1.935195327E-1,-9.894620895E0,9.898352775E0
2.425574292E0,1.836491376E-1,-2.150549293E-1,-9.865906715E0,9.869959014E0
2.428018876E0,1.884347796E-1,-1.839482337E-1,-9.858728409E0,9.862244697E0
2.430462574E0,1.884347796E-1,-1.959123611E-1,-9.870692253E0,9.874434408E0
2.432907157E0,1.860419661E-1,-2.006980032E-1,-9.863513947E0,9.867309597E0
2.435352522E0,2.267199457E-1,-2.078764737E-1,-9.873085022E0,9.877875400E0
2.437797001E0,1.932204217E-1,-2.126621157E-1,-9.873085022E0,9.877265166E0
2.440240751E0,1.932204217E-1,-2.198405862E-1,-9.853942871E0,9.858288600E0
2.442685386E0,2.003988922E-1,-2.006980032E-1,-9.868299484E0,9.872374290E0
2.445130699E0,1.764706671E-1,-2.030908167E-1,-9.858728409E0,9.862398979E0
2.447575282E0,1.860419661E-1,-2.054836452E-1,-9.853942871E0,9.857840801E0
2.450018980E0,2.051845491E-1,-2.102692872E-1,-9.868299484E0,9.872671806E0
2.452463563E0,2.027917206E-1,-2.078764737E-1,-9.885049820E0,9.889314792E0
2.454908928E0,1.788634956E-1,-2.102692872E-1,-9.873085022E0,9.876943514E0
2.457353407E0,1.956132501E-1,-1.959123611E-1,-9.856335640E0,9.860223042E0
2.459797157E0,1.980060786E-1,-2.006980032E-1,-9.868299484E0,9.872326008E0
2.462241792E0,1.980060786E-1,-2.198405862E-1,-9.856335640E0,9.860775250E0
2.464687105E0,1.932204217E-1,-2.006980032E-1,-9.870692253E0,9.874622999E0
2.467131688E0,1.956132501E-1,-2.006980032E-1,-9.853942871E0,9.857927487E0
2.469575386E0,2.171486616E-1,-1.839482337E-1,-9.882657051E0,9.886753809E0
2.472019970E0,1.932204217E-1,-2.054836452E-1,-9.870692253E0,9.874721425E0
2.474465334E0,1.884347796E-1,-2.150549293E-1,-9.868299484E0,9.872440985E0
2.476909813E0,1.836491376E-1,-2.270190418E-1,-9.863513947E0,9.867835225E0
2.479353563E0,2.027917206E-1,-2.078764737E-1,-9.858728409E0,9.863004763E0
2.481798199E0,2.147558331E-1,-2.030908167E-1,-9.844371796E0,9.848808151E0
2.484243511E0,1.836491376E-1,-1.983051747E-1,-9.865906715E0,9.869608263E0
2.486688095E0,1.980060786E-1,-2.078764737E-1,-9.870692253E0,9.874866308E0
2.489131792E0,1.932204217E-1,-2.126621157E-1,-9.865906715E0,9.870089899E0
2.491576376E0,2.003988922E-1,-2.126621157E-1,-9.875477791E0,9.879799921E0
2.494021740E0,1.884347796E-1,-2.078764737E-1,-9.865906715E0,9.869895420E0
2.496466220E0,2.003988922E-1,-2.006980032E-1,-9.858728409E0,9.862807169E0
2.498909970E0,1.908276081E-1,-2.126621157E-1,-9.868299484E0,9.872435113E0
2.501354553E0,1.884347796E-1,-2.078764737E-1,-9.861121178E0,9.865111818E0
2.503799917E0,1.932204217E-1,-2.222333997E-1,-9.885049820E0,9.889435361E0
2.506244501E0,1.932204217E-1,-2.054836452E-1,-9.849157333E0,9.853195311E0
2.508688199E0,1.908276081E-1,-2.006980032E-1,-9.856335640E0,9.860225510E0
2.511132782E0,2.075773627E-1,-2.078764737E-1,-9.861121178E0,9.865496028E0
2.513578147E0,1.812563092E-1,-2.222333997E-1,-9.856335640E0,9.860506771E0
2.516022626E0,2.003988922E-1,-1.863410622E-1,-9.873085022E0,9.876876559E0
2.518466376E0,1.932204217E-1,-1.887338907E-1,-9.875477791E0,9.879170826E0
2.520911011E0,1.884347796E-1,-2.054836452E-1,-9.865906715E0,9.869845313E0
2.523356324E0,1.956132501E-1,-2.126621157E-1,-9.870692253E0,9.874920520E0
2.525800907E0,2.003988922E-1,-1.983051747E-1,-9.870692253E0,9.874717728E0
2.528244605E0,2.027917206E-1,-2.006980032E-1,-9.885049820E0,9.889166502E0
2.530689188E0,1.788634956E-1,-2.054836452E-1,-9.861121178E0,9.864883505E0
2.533134553E0,1.812563092E-1,-1.959123611E-1,-9.861121178E0,9.864732454E0
2.535579032E0,1.740778536E-1,-2.078764737E-1,-9.865906715E0,9.869631758E0
2.538022782E0,1.812563092E-1,-2.078764737E-1,-9.868299484E0,9.872152814E0
2.540467417E0,1.908276081E-1,-2.246262282E-1,-9.875477791E0,9.879875187E0
2.542912730E0,1.764706671E-1,-2.102692872E-1,-9.849157333E0,9.852982048E0
2.545357209E0,1.908276081E-1,-2.006980032E-1,-9.856335640E0,9.860225510E0
2.547801011E0,1.764706671E-1,-1.887338907E-1,-9.868299484E0,9.871681574E0
2.550245595E0,1.884347796E-1,-1.839482337E-1,-9.856335640E0,9.859852781E0
2.552690959E0,1.764706671E-1,-1.959123611E-1,-9.868299484E0,9.871821426E0
2.555135438E0,1.908276081E-1,-2.078764737E-1,-9.837192535E0,9.841238986E0
2.557579188E0,1.932204217E-1,-2.006980032E-1,-9.863513947E0,9.867447552E0
2.560023772E0,1.932204217E-1,-2.126621157E-1,-9.873085022E0,9.877265166E0
2.562469136E0,1.932204217E-1,-2.126621157E-1,-9.880263329E0,9.884440437E0
2.564913615E0,1.812563092E-1,-2.006980032E-1,-9.856335640E0,9.860044918E0
2.567357417E0,1.932204217E-1,-2.222333997E-1,-9.856335640E0,9.860733952E0
2.569802001E0,1.549352705E-1,-2.054836452E-1,-9.834799767E0,9.838166237E0
2.572247365E0,1.860419661E-1,-2.006980032E-1,-9.863513947E0,9.867309597E0
2.574691845E0,1.764706671E-1,-2.150549293E-1,-9.873085022E0,9.877003512E0
2.577135595E0,1.788634956E-1,-2.198405862E-1,-9.870692253E0,9.874760128E0
2.579580178E0,2.099701911E-1,-1.935195327E-1,-9.861121178E0,9.865254592E0
2.582025542E0,2.051845491E-1,-2.198405862E-1,-9.877870560E0,9.882446933E0
2.584470022E0,1.908276081E-1,-2.054836452E-1,-9.863513947E0,9.867499485E0
2.586913824E0,1.812563092E-1,-2.198405862E-1,-9.880263329E0,9.884370854E0
2.589358407E0,1.860419661E-1,-2.174477577E-1,-9.873085022E0,9.877231545E0
2.591803720E0,2.075773627E-1,-2.222333997E-1,-9.868299484E0,9.872983883E0
2.594248303E0,1.836491376E-1,-1.959123611E-1,-9.863513947E0,9.867168592E0
2.596692001E0,1.932204217E-1,-2.198405862E-1,-9.856335640E0,9.860680314E0
2.599136584E0,1.836491376E-1,-1.887338907E-1,-9.863513947E0,9.867028674E0
2.601581949E0,1.812563092E-1,-2.030908167E-1,-9.873085022E0,9.876836922E0
2.604026428E0,1.740778536E-1,-1.863410622E-1,-9.863513947E0,9.866809690E0
2.606470178E0,2.027917206E-1,-2.126621157E-1,-9.868299484E0,9.872673618E0
2.608914813E0,2.003988922E-1,-1.935195327E-1,-9.849157333E0,9.853096453E0
2.611360126E0,1.908276081E-1,-2.102692872E-1,-9.846764565E0,9.850857868E0
2.613804709E0,1.884347796E-1,-2.174477577E-1,-9.870692253E0,9.874885151E0
2.616248407E0,1.860419661E-1,-2.054836452E-1,-9.856335640E0,9.860232623E0
2.618692990E0,1.980060786E-1,-2.030908167E-1,-9.868299484E0,9.872374942E0
2.621138355E0,1.980060786E-1,-2.246262282E-1,-9.865906715E0,9.870449770E0
2.623582834E0,2.147558331E-1,-2.054836452E-1,-9.853942871E0,9.858424504E0
2.626026584E0,2.075773627E-1,-1.983051747E-1,-9.849157333E0,9.853340220E0
2.628471220E0,2.003988922E-1,-2.126621157E-1,-9.844371796E0,9.848707577E0
2.630916532E0,1.812563092E-1,-2.318046987E-1,-9.863513947E0,9.867902241E0
2.633361115E0,1.908276081E-1,-2.294118702E-1,-9.875477791E0,9.879985151E0
2.635804813E0,1.788634956E-1,-2.294118702E-1,-9.851550102E0,9.855844021E0
2.638249397E0,1.788634956E-1,-2.006980032E-1,-9.856335640E0,9.860001221E0
2.640694761E0,1.908276081E-1,-2.030908167E-1,-9.865906715E0,9.869841760E0
2.643139240E0,1.764706671E-1,-2.102692872E-1,-9.880263329E0,9.884076007E0
2.645582990E0,1.884347796E-1,-2.078764737E-1,-9.873085022E0,9.877070828E0
2.648027626E0,1.908276081E-1,-1.959123611E-1,-9.870692253E0,9.874480360E0
2.650472938E0,1.932204217E-1,-2.030908167E-1,-9.858728409E0,9.862712905E0
2.652917522E0,1.908276081E-1,-2.054836452E-1,-9.865906715E0,9.869891287E0
2.655361220E0,1.597209126E-1,-2.174477577E-1,-9.873085022E0,9.876770836E0
2.657805803E0,1.836491376E-1,-2.030908167E-1,-9.892228127E0,9.896016885E0
2.660251167E0,1.908276081E-1,-2.006980032E-1,-9.875477791E0,9.879360124E0
2.662695647E0,2.099701911E-1,-2.102692872E-1,-9.856335640E0,9.860814008E0
2.665139397E0,2.003988922E-1,-2.126621157E-1,-9.849157333E0,9.853491009E0
2.667584032E0,1.980060786E-1,-2.150549293E-1,-9.856335640E0,9.860669717E0
2.670029345E0,1.908276081E-1,-2.102692872E-1,-9.851550102E0,9.855641418E0
2.672473928E0,2.027917206E-1,-1.983051747E-1,-9.853942871E0,9.858024119E0
2.674917626E0,1.932204217E-1,-2.054836452E-1,-9.849157333E0,9.853195311E0
2.677362209E0,1.932204217E-1,-2.102692872E-1,-9.870692253E0,9.874822169E0
2.679807574E0,1.668993831E-1,-2.006980032E-1,-9.863513947E0,9.866967238E0
2.682252053E0,1.884347796E-1,-1.959123611E-1,-9.849157333E0,9.852907667E0
2.684695803E0,1.932204217E-1,-2.102692872E-1,-9.870692253E0,9.874822169E0
2.687140438E0,1.621137410E-1,-2.006980032E-1,-9.853942871E0,9.857319649E0
2.689585751E0,1.812563092E-1,-2.006980032E-1,-9.865906715E0,9.869612396E0
2.692030334E0,1.884347796E-1,-2.054836452E-1,-9.870692253E0,9.874628942E0
2.694474032E0,1.932204217E-1,-2.126621157E-1,-9.870692253E0,9.874873410E0
2.696918615E0,1.836491376E-1,-2.174477577E-1,-9.856335640E0,9.860444350E0
2.699363980E0,1.740778536E-1,-2.030908167E-1,-9.875477791E0,9.879099684E0
2.701808459E0,1.932204217E-1,-2.126621157E-1,-9.863513947E0,9.867698145E0
2.704252209E0,1.956132501E-1,-2.078764737E-1,-9.861121178E0,9.865251545E0
2.706696792E0,1.788634956E-1,-2.054836452E-1,-9.849157333E0,9.852924229E0
2.709142157E0,1.932204217E-1,-1.959123611E-1,-9.865906715E0,9.869743214E0
2.711586740E0,1.764706671E-1,-2.102692872E-1,-9.863513947E0,9.867333097E0
2.714030438E0,1.836491376E-1,-1.911267042E-1,-9.882657051E0,9.886210943E0
2.716475022E0,2.075773627E-1,-2.078764737E-1,-9.865906715E0,9.870279444E0
2.718920386E0,2.051845491E-1,-1.959123611E-1,-9.841979027E0,9.846066906E0
2.721364865E0,1.764706671E-1,-2.054836452E-1,-9.856335640E0,9.860056677E0
2.723808615E0,1.764706671E-1,-2.006980032E-1,-9.846764565E0,9.850390549E0
2.726253251E0,2.027917206E-1,-2.030908167E-1,-9.856335640E0,9.860513304E0
2.728698563E0,2.099701911E-1,-2.054836452E-1,-9.865906715E0,9.870279952E0
2.731143147E0,2.099701911E-1,-2.054836452E-1,-9.861121178E0,9.865496535E0
2.733586845E0,1.908276081E-1,-2.054836452E-1,-9.861121178E0,9.865107682E0
2.736031428E0,2.027917206E-1,-2.030908167E-1,-9.875477791E0,9.879647360E0
2.738476792E0,1.980060786E-1,-2.126621157E-1,-9.858728409E0,9.863009552E0
2.740921272E0,1.812563092E-1,-2.006980032E-1,-9.870692253E0,9.874396138E0
2.743365022E0,1.932204217E-1,-2.030908167E-1,-9.861121178E0,9.865104708E0
2.745809605E0,1.932204217E-1,-1.983051747E-1,-9.856335640E0,9.860223695E0
2.748254970E0,1.788634956E-1,-2.030908167E-1,-9.844371796E0,9.848090885E0
2.750699449E0,1.956132501E-1,-2.006980032E-1,-9.849157333E0,9.853143885E0
2.753143251E0,1.860419661E-1,-1.935195327E-1,-9.865906715E0,9.869558082E0
2.755587834E0,1.716850251E-1,-2.078764737E-1,-9.856335640E0,9.860022344E0
2.758033199E0,1.836491376E-1,-2.102692872E-1,-9.863513947E0,9.867464089E0
2.760477678E0,1.740778536E-1,-2.078764737E-1,-9.856335640E0,9.860064299E0
2.762921428E0,1.908276081E-1,-2.030908167E-1,-9.858728409E0,9.862666318E0
2.765366011E0,1.884347796E-1,-2.006980032E-1,-9.853942871E0,9.857787656E0
2.767811376E0,1.812563092E-1,-2.102692872E-1,-9.863513947E0,9.867419845E0
2.770255855E0,1.908276081E-1,-2.006980032E-1,-9.873085022E0,9.876968296E0
2.772699657E0,1.908276081E-1,-2.078764737E-1,-9.858728409E0,9.862766024E0
2.775144240E0,2.003988922E-1,-2.030908167E-1,-9.858728409E0,9.862856150E0
2.777589553E0,2.075773627E-1,-2.078764737E-1,-9.880263329E0,9.884629706E0
2.780034136E0,1.884347796E-1,-2.150549293E-1,-9.877870560E0,9.882008049E0
2.782477834E0,1.812563092E-1,-2.030908167E-1,-9.865906715E0,9.869661344E0
2.784922417E0,1.812563092E-1,-2.222333997E-1,-9.851550102E0,9.855723259E0
2.787367782E0,1.812563092E-1,-2.102692872E-1,-9.861121178E0,9.865028023E0
2.789812261E0,1.932204217E-1,-2.054836452E-1,-9.837192535E0,9.841235422E0
2.792256011E0,1.980060786E-1,-2.198405862E-1,-9.868299484E0,9.872733715E0
2.794700647E0,1.980060786E-1,-2.078764737E-1,-9.856335640E0,9.860515772E0
2.797145959E0,1.836491376E-1,-1.983051747E-1,-9.875477791E0,9.879175752E0
2.799590542E0,1.956132501E-1,-2.078764737E-1,-9.863513947E0,9.867643313E0
2.802034240E0,1.884347796E-1,-2.078764737E-1,-9.832406998E0,9.836409287E0
2.804478824E0,1.980060786E-1,-1.983051747E-1,-9.849157333E0,9.853143231E0
2.806924188E0,2.003988922E-1,-2.054836452E-1,-9.858728409E0,9.862905712E0
2.809368667E0,1.836491376E-1,-1.983051747E-1,-9.870692253E0,9.874392007E0
2.811812417E0,1.884347796E-1,-1.839482337E-1,-9.875477791E0,9.878988117E0
2.814257053E0,2.075773627E-1,-1.887338907E-1,-9.889835358E0,9.893813837E0
2.816702365E0,1.980060786E-1,-1.887338907E-1,-9.865906715E0,9.869698182E0
2.819146949E0,1.956132501E-1,-1.935195327E-1,-9.858728409E0,9.862567627E0
2.821590647E0,1.932204217E-1,-2.126621157E-1,-9.861121178E0,9.865306391E0
2.824035230E0,2.027917206E-1,-2.078764737E-1,-9.865906715E0,9.870179959E0
2.826480595E0,1.860419661E-1,-2.102692872E-1,-9.865906715E0,9.869900714E0
2.828925074E0,1.956132501E-1,-2.030908167E-1,-9.853942871E0,9.857976493E0
2.831368824E0,1.764706671E-1,-2.198405862E-1,-9.880263329E0,9.884284254E0
2.833813459E0,1.980060786E-1,-2.126621157E-1,-9.865906715E0,9.870184745E0
2.836258772E0,1.956132501E-1,-2.198405862E-1,-9.863513947E0,9.867902604E0
2.838703355E0,2.003988922E-1,-2.078764737E-1,-9.880263329E0,9.884481564E0
2.841147053E0,1.932204217E-1,-1.911267042E-1,-9.873085022E0,9.876824966E0
2.843591636E0,2.027917206E-1,-1.935195327E-1,-9.863513947E0,9.867496221E0
2.846037001E0,1.932204217E-1,-2.174477577E-1,-9.832406998E0,9.836709055E0
2.848481480E0,1.932204217E-1,-2.198405862E-1,-9.856335640E0,9.860680314E0
2.850925230E0,1.932204217E-1,-1.839482337E-1,-9.844371796E0,9.847985943E0
2.853369865E0,1.836491376E-1,-2.078764737E-1,-9.851550102E0,9.855454279E0
2.855815178E0,1.932204217E-1,-2.150549293E-1,-9.856335640E0,9.860574780E0
2.858259761E0,2.027917206E-1,-2.126621157E-1,-9.865906715E0,9.870281910E0
2.860703459E0,2.123630047E-1,-2.126621157E-1,-9.861121178E0,9.865699879E0
2.863148042E0,1.956132501E-1,-2.006980032E-1,-9.856335640E0,9.860319289E0
2.865593407E0,1.932204217E-1,-2.030908167E-1,-9.856335640E0,9.860321103E0
2.868037886E0,1.860419661E-1,-2.102692872E-1,-9.863513947E0,9.867508914E0
2.870481636E0,1.908276081E-1,-2.078764737E-1,-9.856335640E0,9.860374235E0
2.872926220E0,1.956132501E-1,-2.006980032E-1,-9.865906715E0,9.869886501E0
2.875371584E0,1.740778536E-1,-2.054836452E-1,-9.858728409E0,9.862406018E0
2.877816063E0,1.884347796E-1,-1.863410622E-1,-9.856335640E0,9.859897713E0
2.880259865E0,1.645065546E-1,-2.054836452E-1,-9.865906715E0,9.869417473E0
2.882704449E0,1.836491376E-1,-1.935195327E-1,-9.844371796E0,9.847986234E0
2.885149813E0,1.740778536E-1,-2.150549293E-1,-9.863513947E0,9.867393734E0
2.887594292E0,1.764706671E-1,-1.935195327E-1,-9.863513947E0,9.866990376E0
2.890038042E0,2.027917206E-1,-1.911267042E-1,-9.863513947E0,9.867449583E0
2.892482678E0,1.764706671E-1,-2.006980032E-1,-9.868299484E0,9.871917559E0
2.894927990E0,1.932204217E-1,-2.078764737E-1,-9.858728409E0,9.862812611E0
2.897372470E0,1.884347796E-1,-1.959123611E-1,-9.863513947E0,9.867258824E0
2.899816272E0,1.836491376E-1,-1.887338907E-1,-9.875477791E0,9.878988262E0
2.902260855E0,1.932204217E-1,-2.198405862E-1,-9.861121178E0,9.865463745E0
2.904706220E0,1.908276081E-1,-2.078764737E-1,-9.877870560E0,9.881900354E0
2.907150699E0,2.027917206E-1,-1.983051747E-1,-9.870692253E0,9.874766579E0
2.909594449E0,1.908276081E-1,-2.078764737E-1,-9.856335640E0,9.860374235E0
2.912039032E0,1.932204217E-1,-2.030908167E-1,-9.853942871E0,9.857929302E0
2.914484397E0,1.764706671E-1,-2.222333997E-1,-9.865906715E0,9.869987077E0
2.916928876E0,1.932204217E-1,-2.054836452E-1,-9.841979027E0,9.846019948E0
2.919372678E0,1.980060786E-1,-2.126621157E-1,-9.846764565E0,9.851050907E0
2.921817261E0,1.908276081E-1,-2.078764737E-1,-9.863513947E0,9.867549604E0
2.924262626E0,1.788634956E-1,-2.078764737E-1,-9.861121178E0,9.864933637E0
2.926707105E0,1.549352705E-1,-1.983051747E-1,-9.853942871E0,9.857155776E0
2.929150855E0,1.668993831E-1,-1.935195327E-1,-9.849157333E0,9.852472045E0
2.931595438E0,2.051845491E-1,-2.102692872E-1,-9.865906715E0,9.870280097E0
2.934040803E0,1.716850251E-1,-2.078764737E-1,-9.856335640E0,9.860022344E0
2.936485282E0,1.740778536E-1,-2.126621157E-1,-9.865906715E0,9.869733714E0
2.938929032E0,1.956132501E-1,-2.126621157E-1,-9.858728409E0,9.862961805E0
2.941373667E0,2.027917206E-1,-2.054836452E-1,-9.853942871E0,9.858171135E0
2.943818980E0,1.908276081E-1,-2.006980032E-1,-9.858728409E0,9.862617335E0
2.946263563E0,1.884347796E-1,-1.887338907E-1,-9.868299484E0,9.871902697E0
2.948707261E0,1.932204217E-1,-2.030908167E-1,-9.863513947E0,9.867496510E0
2.951151845E0,1.932204217E-1,-2.126621157E-1,-9.861121178E0,9.865306391E0
2.953597209E0,1.908276081E-1,-2.030908167E-1,-9.865906715E0,9.869841760E0
2.956041688E0,1.908276081E-1,-2.054836452E-1,-9.865906715E0,9.869891287E0
2.958485438E0,1.956132501E-1,-1.935195327E-1,-9.863513947E0,9.867351302E0
2.960930074E0,1.860419661E-1,-1.983051747E-1,-9.875477791E0,9.879220524E0
2.963375386E0,1.956132501E-1,-2.102692872E-1,-9.856335640E0,9.860518747E0
2.965819970E0,1.908276081E-1,-2.030908167E-1,-9.853942871E0,9.857882692E0
2.968263667E0,1.788634956E-1,-2.054836452E-1,-9.865906715E0,9.869667218E0
2.970708251E0,1.860419661E-1,-2.222333997E-1,-9.853942871E0,9.858204167E0
2.973153615E0,1.980060786E-1,-2.246262282E-1,-9.863513947E0,9.868058103E0
2.975598095E0,1.908276081E-1,-1.935195327E-1,-9.873085022E0,9.876825038E0
2.978041845E0,1.812563092E-1,-2.102692872E-1,-9.856335640E0,9.860244382E0
2.980486480E0,2.027917206E-1,-2.174477577E-1,-9.868299484E0,9.872777862E0
2.982931792E0,1.908276081E-1,-1.983051747E-1,-9.870692253E0,9.874528124E0
2.985376376E0,1.980060786E-1,-2.102692872E-1,-9.875477791E0,9.879700460E0
2.987820074E0,1.836491376E-1,-2.102692872E-1,-9.863513947E0,9.867464089E0
2.990264657E0,1.932204217E-1,-2.030908167E-1,-9.863513947E0,9.867496510E0
2.992710022E0,2.075773627E-1,-2.198405862E-1,-9.875477791E0,9.880105255E0
2.995154501E0,1.860419661E-1,-1.983051747E-1,-9.853942871E0,9.857693780E0
2.997598251E0,1.668993831E-1,-1.959123611E-1,-9.877870560E0,9.881222791E0
3.000042886E0,1.812563092E-1,-2.078764737E-1,-9.863513947E0,9.867369145E0
3.002488199E0,1.956132501E-1,-2.102692872E-1,-9.873085022E0,9.877261036E0
3.004932782E0,1.980060786E-1,-1.983051747E-1,-9.885049820E0,9.889021250E0
3.007376480E0,2.003988922E-1,-2.126621157E-1,-9.863513947E0,9.867841317E0
3.009821063E0,1.980060786E-1,-2.006980032E-1,-9.865906715E0,9.869934215E0
3.012266428E0,1.908276081E-1,-2.078764737E-1,-9.861121178E0,9.865157813E0
3.014710907E0,1.788634956E-1,-2.126621157E-1,-9.851550102E0,9.855468367E0
3.017154657E0,2.051845491E-1,-2.054836452E-1,-9.863513947E0,9.867787574E0
3.019599292E0,1.860419661E-1,-2.102692872E-1,-9.863513947E0,9.867508914E0
3.022044605E0,1.860419661E-1,-2.222333997E-1,-9.868299484E0,9.872554584E0
3.024489188E0,1.932204217E-1,-2.030908167E-1,-9.870692253E0,9.874671922E0
3.026932886E0,1.956132501E-1,-2.054836452E-1,-9.844371796E0,9.848458972E0
3.029377470E0,1.884347796E-1,-2.126621157E-1,-9.834799767E0,9.838903358E0
3.031822834E0,1.956132501E-1,-1.863410622E-1,-9.851550102E0,9.855253774E0
3.034267313E0,1.980060786E-1,-2.078764737E-1,-9.841979027E0,9.846165254E0
3.036711063E0,1.956132501E-1,-2.222333997E-1,-9.870692253E0,9.875131279E0
3.039155647E0,1.740778536E-1,-1.887338907E-1,-9.875477791E0,9.878814968E0
3.041601011E0,1.812563092E-1,-2.078764737E-1,-9.853942871E0,9.857801813E0
3.044045490E0,1.860419661E-1,-1.983051747E-1,-9.865906715E0,9.869653078E0
3.046489292E0,1.836491376E-1,-1.935195327E-1,-9.851550102E0,9.855161908E0
3.048933876E0,1.668993831E-1,-2.006980032E-1,-9.856335640E0,9.859791445E0
3.051379240E0,1.980060786E-1,-1.959123611E-1,-9.853942871E0,9.857878989E0
3.053823720E0,1.812563092E-1,-2.102692872E-1,-9.868299484E0,9.872203489E0
3.056267470E0,1.980060786E-1,-1.983051747E-1,-9.882657051E0,9.886629443E0
3.058712053E0,1.956132501E-1,-1.983051747E-1,-9.865906715E0,9.869838135E0
3.061157417E0,1.908276081E-1,-2.102692872E-1,-9.849157333E0,9.853249643E0
3.063601897E0,1.908276081E-1,-1.959123611E-1,-9.870692253E0,9.874480360E0
3.066045647E0,1.884347796E-1,-1.983051747E-1,-9.863513947E0,9.867306622E0
3.068490282E0,2.147558331E-1,-2.030908167E-1,-9.882657051E0,9.887076228E0
3.070935595E0,1.908276081E-1,-2.030908167E-1,-9.853942871E0,9.857882692E0
3.073380178E0,1.980060786E-1,-2.054836452E-1,-9.863513947E0,9.867640919E0
3.075823876E0,1.764706671E-1,-2.126621157E-1,-9.861121178E0,9.864992547E0
3.078268459E0,1.740778536E-1,-2.030908167E-1,-9.851550102E0,9.855180790E0
3.080713824E0,2.075773627E-1,-1.983051747E-1,-9.882657051E0,9.886825764E0
3.083158303E0,1.956132501E-1,-1.887338907E-1,-9.858728409E0,9.862474885E0
3.085602053E0,2.075773627E-1,-2.078764737E-1,-9.868299484E0,9.872671153E0
3.088046688E0,2.075773627E-1,-2.030908167E-1,-9.875477791E0,9.879746750E0
3.090492001E0,1.860419661E-1,-2.102692872E-1,-9.853942871E0,9.857941717E0
3.092936584E0,1.812563092E-1,-2.102692872E-1,-9.853942871E0,9.857852562E0
3.095380282E0,2.003988922E-1,-1.911267042E-1,-9.853942871E0,9.857833395E0
3.097824865E0,1.980060786E-1,-1.983051747E-1,-9.853942871E0,9.857926834E0
3.100270230E0,1.908276081E-1,-2.198405862E-1,-9.853942871E0,9.858241992E0
3.102714709E0,1.812563092E-1,-2.054836452E-1,-9.851550102E0,9.855359800E0
3.105158459E0,1.956132501E-1,-2.126621157E-1,-9.870692253E0,9.874920520E0
3.107603095E0,1.956132501E-1,-1.983051747E-1,-9.882657051E0,9.886581809E0
3.110048407E0,1.860419661E-1,-2.006980032E-1,-9.858728409E0,9.862525901E0
3.112492990E0,2.051845491E-1,-1.983051747E-1,-9.853942871E0,9.858073633E0
3.114936688E0,1.812563092E-1,-2.102692872E-1,-9.875477791E0,9.879378959E0
3.117381272E0,1.860419661E-1,-2.054836452E-1,-9.858728409E0,9.862624447E0
3.119826636E0,1.860419661E-1,-2.222333997E-1,-9.856335640E0,9.860595902E0
3.122271115E0,1.884347796E-1,-1.959123611E-1,-9.851550102E0,9.855299525E0
3.124714865E0,1.980060786E-1,-2.054836452E-1,-9.849157333E0,9.853290319E0
3.127159501E0,2.075773627E-1,-2.078764737E-1,-9.870692253E0,9.875062863E0
3.129604813E0,2.075773627E-1,-2.054836452E-1,-9.865906715E0,9.870229339E0
3.132049397E0,1.956132501E-1,-1.887338907E-1,-9.851550102E0,9.855299308E0
3.134493095E0,2.075773627E-1,-2.006980032E-1,-9.861121178E0,9.865347380E0
3.136937678E0,2.075773627E-1,-2.126621157E-1,-9.861121178E0,9.865598026E0
3.139383042E0,1.956132501E-1,-1.887338907E-1,-9.858728409E0,9.862474885E0
3.141827522E0,1.740778536E-1,-1.959123611E-1,-9.870692253E0,9.874170867E0
3.144271272E0,2.099701911E-1,-2.054836452E-1,-9.873085022E0,9.877455080E0
3.146715907E0,1.980060786E-1,-2.126621157E-1,-9.877870560E0,9.882143410E0
3.149161220E0,1.932204217E-1,-1.959123611E-1,-9.882657051E0,9.886487049E0
3.151605803E0,1.884347796E-1,-2.054836452E-1,-9.858728409E0,9.862669873E0
3.154049501E0,2.123630047E-1,-2.054836452E-1,-9.861121178E0,9.865547752E0
3.156494084E0,1.788634956E-1,-1.983051747E-1,-9.875477791E0,9.879087948E0
3.158939449E0,2.003988922E-1,-2.222333997E-1,-9.846764565E0,9.851310562E0
3.161383928E0,1.740778536E-1,-2.054836452E-1,-9.861121178E0,9.864797895E0
3.163827678E0,1.812563092E-1,-2.054836452E-1,-9.839586258E0,9.843400586E0
3.166272261E0,2.003988922E-1,-2.030908167E-1,-9.868299484E0,9.872423224E0
3.168717626E0,2.338984162E-1,-2.078764737E-1,-9.873085022E0,9.878042769E0
3.171162105E0,1.956132501E-1,-2.222333997E-1,-9.834799767E0,9.839254986E0
3.173605907E0,1.884347796E-1,-2.198405862E-1,-9.851550102E0,9.855804227E0
3.176050490E0,1.980060786E-1,-2.102692872E-1,-9.856335640E0,9.860566506E0
3.178495803E0,1.980060786E-1,-2.102692872E-1,-9.865906715E0,9.870133479E0
3.180940386E0,1.836491376E-1,-1.983051747E-1,-9.889835358E0,9.893527953E0
3.183384084E0,1.908276081E-1,-2.030908167E-1,-9.870692253E0,9.874625391E0
3.185828667E0,1.788634956E-1,-2.198405862E-1,-9.863513947E0,9.867584781E0
3.188274032E0,1.932204217E-1,-1.983051747E-1,-9.889835358E0,9.893710248E0
3.190718511E0,1.716850251E-1,-1.719841212E-1,-9.849157333E0,9.852154813E0
3.193162261E0,2.003988922E-1,-1.959123611E-1,-9.873085022E0,9.877061771E0
3.195606897E0,1.812563092E-1,-2.102692872E-1,-9.882657051E0,9.886555387E0
3.198052209E0,1.932204217E-1,-2.078764737E-1,-9.865906715E0,9.869987947E0
3.200496792E0,1.980060786E-1,-2.054836452E-1,-9.844371796E0,9.848506790E0
3.202940490E0,1.860419661E-1,-1.887338907E-1,-9.849157333E0,9.852722074E0
3.205385074E0,1.908276081E-1,-2.126621157E-1,-9.846764565E0,9.850909234E0
3.207830438E0,1.908276081E-1,-2.102692872E-1,-9.868299484E0,9.872383859E0
3.210274917E0,2.027917206E-1,-1.983051747E-1,-9.873085022E0,9.877158360E0
3.212718667E0,1.812563092E-1,-2.102692872E-1,-9.877870560E0,9.881770783E0
3.215163303E0,1.980060786E-1,-2.150549293E-1,-9.856335640E0,9.860669717E0
3.217608615E0,1.860419661E-1,-2.102692872E-1,-9.882657051E0,9.886644283E0
3.220053199E0,1.860419661E-1,-2.030908167E-1,-9.877870560E0,9.881709583E0
3.222496897E0,1.980060786E-1,-1.911267042E-1,-9.873085022E0,9.876919746E0
3.224941480E0,1.860419661E-1,-1.935195327E-1,-9.853942871E0,9.857598670E0
3.227386845E0,1.740778536E-1,-2.078764737E-1,-9.858728409E0,9.862456163E0
3.229831324E0,1.884347796E-1,-1.983051747E-1,-9.880263329E0,9.884049577E0
3.232275074E0,2.003988922E-1,-2.102692872E-1,-9.870692253E0,9.874965238E0
3.234719709E0,1.836491376E-1,-2.006980032E-1,-9.863513947E0,9.867264771E0
3.237165022E0,1.932204217E-1,-2.054836452E-1,-9.853942871E0,9.857978889E0
3.239609501E0,2.003988922E-1,-2.150549293E-1,-9.873085022E0,9.877460007E0
3.242053303E0,2.003988922E-1,-2.150549293E-1,-9.870692253E0,9.875068298E0
3.244497886E0,1.980060786E-1,-2.102692872E-1,-9.875477791E0,9.879700460E0
3.246943251E0,1.812563092E-1,-2.150549293E-1,-9.875477791E0,9.879481974E0
3.249387730E0,1.908276081E-1,-2.006980032E-1,-9.858728409E0,9.862617335E0
3.251831480E0,1.956132501E-1,-2.294118702E-1,-9.841979027E0,9.846595631E0
3.254276115E0,1.812563092E-1,-2.126621157E-1,-9.853942871E0,9.857903891E0
3.256721428E0,2.027917206E-1,-2.006980032E-1,-9.849157333E0,9.853289012E0
3.259165907E0,1.788634956E-1,-2.078764737E-1,-9.870692253E0,9.874501017E0
3.261609709E0,2.003988922E-1,-2.054836452E-1,-9.846764565E0,9.850946941E0
3.264054292E0,1.908276081E-1,-2.006980032E-1,-9.870692253E0,9.874576468E0
3.266499657E0,2.027917206E-1,-1.935195327E-1,-9.861121178E0,9.865104418E0
3.268944136E0,1.788634956E-1,-2.054836452E-1,-9.863513947E0,9.867275361E0
3.271387886E0,2.195414752E-1,-1.983051747E-1,-9.873085022E0,9.877516452E0
3.273832470E0,1.980060786E-1,-1.911267042E-1,-9.863513947E0,9.867352390E0
3.276277834E0,1.836491376E-1,-2.030908167E-1,-9.868299484E0,9.872097426E0
3.278722313E0,1.860419661E-1,-1.887338907E-1,-9.863513947E0,9.867073501E0
3.281166115E0,1.980060786E-1,-2.078764737E-1,-9.877870560E0,9.882041582E0
3.283610699E0,1.932204217E-1,-2.030908167E-1,-9.865906715E0,9.869888314E0
3.286056063E0,1.812563092E-1,-2.030908167E-1,-9.863513947E0,9.867269486E0
3.288500542E0,1.860419661E-1,-2.126621157E-1,-9.865906715E0,9.869951981E0
3.290944292E0,2.099701911E-1,-2.078764737E-1,-9.858728409E0,9.863154969E0
3.293388876E0,1.980060786E-1,-2.006980032E-1,-9.863513947E0,9.867542423E0
3.295834240E0,1.788634956E-1,-2.030908167E-1,-9.861121178E0,9.864833953E0
3.298278720E0,1.788634956E-1,-1.959123611E-1,-9.856335640E0,9.859904972E0
3.300722470E0,1.812563092E-1,-2.006980032E-1,-9.858728409E0,9.862436787E0
3.303167105E0,2.003988922E-1,-2.030908167E-1,-9.856335640E0,9.860464383E0
3.305612417E0,1.980060786E-1,-1.959123611E-1,-9.882657051E0,9.886581737E0
3.308057001E0,1.956132501E-1,-2.054836452E-1,-9.863513947E0,9.867593194E0
3.310500699E0,1.980060786E-1,-2.222333997E-1,-9.863513947E0,9.868003925E0
3.312945282E0,1.932204217E-1,-2.126621157E-1,-9.858728409E0,9.862914637E0
3.315390647E0,1.836491376E-1,-2.054836452E-1,-9.858728409E0,9.862579600E0
3.317835126E0,1.860419661E-1,-2.006980032E-1,-9.868299484E0,9.872093294E0
3.320278876E0,1.645065546E-1,-2.030908167E-1,-9.851550102E0,9.855016373E0
3.322723511E0,1.884347796E-1,-1.911267042E-1,-9.853942871E0,9.857597435E0
3.325168824E0,2.027917206E-1,-2.150549293E-1,-9.856335640E0,9.860766976E0
3.327613407E0,2.171486616E-1,-2.078764737E-1,-9.865906715E0,9.870485372E0
3.330057105E0,2.051845491E-1,-1.983051747E-1,-9.870692253E0,9.874816008E0
3.332501688E0,2.123630047E-1,-2.102692872E-1,-9.882657051E0,9.887174602E0
3.334947053E0,1.788634956E-1,-2.006980032E-1,-9.889835358E0,9.893488527E0
3.337391532E0,2.003988922E-1,-2.006980032E-1,-9.863513947E0,9.867590728E0
3.339835282E0,2.003988922E-1,-2.030908167E-1,-9.839586258E0,9.843722026E0
3.342279917E0,1.668993831E-1,-2.078764737E-1,-9.870692253E0,9.874291549E0
3.344725230E0,1.980060786E-1,-2.030908167E-1,-9.856335640E0,9.860416043E0
3.347169813E0,2.027917206E-1,-2.102692872E-1,-9.868299484E0,9.872622365E0
3.349613511E0,1.980060786E-1,-2.078764737E-1,-9.858728409E0,9.862907526E0
3.352058095E0,1.908276081E-1,-1.791625917E-1,-9.863513947E0,9.866986459E0
3.354503459E0,1.908276081E-1,-2.150549293E-1,-9.877870560E0,9.882053966E0
3.356947938E0,1.908276081E-1,-1.911267042E-1,-9.858728409E0,9.862427208E0
3.359391688E0,1.788634956E-1,-2.078764737E-1,-9.870692253E0,9.874501017E0
3.361836272E0,1.860419661E-1,-1.935195327E-1,-9.877870560E0,9.881517506E0
3.364281636E0,1.884347796E-1,-2.054836452E-1,-9.846764565E0,9.850710816E0
3.366726115E0,1.764706671E-1,-2.126621157E-1,-9.844371796E0,9.848249749E0
3.369169917E0,1.764706671E-1,-2.126621157E-1,-9.856335640E0,9.860208888E0
3.371614501E0,1.812563092E-1,-1.983051747E-1,-9.865906715E0,9.869564028E0
3.374059813E0,2.027917206E-1,-1.959123611E-1,-9.865906715E0,9.869935230E0
3.376504397E0,1.860419661E-1,-2.054836452E-1,-9.858728409E0,9.862624447E0
3.378948095E0,1.932204217E-1,-2.126621157E-1,-9.858728409E0,9.862914637E0
3.381392678E0,1.980060786E-1,-2.030908167E-1,-9.870692253E0,9.874766723E0
3.383838042E0,1.788634956E-1,-2.006980032E-1,-9.865906715E0,9.869568742E0
3.386282522E0,1.860419661E-1,-2.006980032E-1,-9.844371796E0,9.848174823E0
3.388726272E0,1.980060786E-1,-2.054836452E-1,-9.863513947E0,9.867640919E0
3.391170907E0,2.219343036E-1,-2.102692872E-1,-9.863513947E0,9.868250878E0
3.393616220E0,2.003988922E-1,-2.078764737E-1,-9.875477791E0,9.879698069E0
3.396060803E0,1.860419661E-1,-2.078764737E-1,-9.856335640E0,9.860282779E0
3.398504501E0,1.764706671E-1,-2.126621157E-1,-9.875477791E0,9.879343534E0
3.400949084E0,2.027917206E-1,-2.198405862E-1,-9.858728409E0,9.863264176E0
3.403394449E0,1.645065546E-1,-2.030908167E-1,-9.868299484E0,9.871759873E0
3.405838928E0,1.884347796E-1,-2.054836452E-1,-9.856335640E0,9.860278061E0
3.408282678E0,2.075773627E-1,-2.078764737E-1,-9.849157333E0,9.853537495E0
3.410727313E0,1.812563092E-1,-2.054836452E-1,-9.868299484E0,9.872102719E0
3.413172626E0,1.956132501E-1,-1.983051747E-1,-9.851550102E0,9.855487248E0
3.415618436E0,1.860419661E-1,-1.959123611E-1,-9.873085022E0,9.876780909E0
3.418062134E0,1.884347796E-1,-2.150549293E-1,-9.868299484E0,9.872440985E0
3.420506717E0,1.812563092E-1,-1.911267042E-1,-9.861121178E0,9.864638572E0
3.422952082E0,1.692921966E-1,-2.006980032E-1,-9.858728409E0,9.862224160E0
3.425396561E0,2.075773627E-1,-2.030908167E-1,-9.853942871E0,9.858221155E0
3.427840311E0,2.027917206E-1,-2.030908167E-1,-9.863513947E0,9.867688571E0
3.430284947E0,1.908276081E-1,-1.959123611E-1,-9.853942871E0,9.857737415E0
3.432730259E0,2.075773627E-1,-2.294118702E-1,-9.853942871E0,9.858798521E0
3.435174842E0,1.980060786E-1,-1.983051747E-1,-9.870692253E0,9.874669458E0
3.437618540E0,1.836491376E-1,-1.983051747E-1,-9.865906715E0,9.869608263E0
3.440063124E0,1.836491376E-1,-2.054836452E-1,-9.877870560E0,9.881714291E0
3.442508488E0,2.003988922E-1,-1.983051747E-1,-9.858728409E0,9.862758767E0
3.444952967E0,1.908276081E-1,-2.030908167E-1,-9.873085022E0,9.877017207E0
3.447396717E0,1.860419661E-1,-2.078764737E-1,-9.849157333E0,9.853107348E0
3.449841301E0,1.956132501E-1,-2.078764737E-1,-9.846764565E0,9.850900952E0
3.452286665E0,1.932204217E-1,-2.030908167E-1,-9.863513947E0,9.867496510E0
3.454731144E0,2.003988922E-1,-2.054836452E-1,-9.846764565E0,9.850946941E0
3.457174947E0,1.836491376E-1,-1.983051747E-1,-9.863513947E0,9.867216392E0
3.459619530E0,1.908276081E-1,-2.174477577E-1,-9.858728409E0,9.862972399E0
3.462064842E0,1.980060786E-1,-2.054836452E-1,-9.856335640E0,9.860465617E0
3.464509426E0,1.932204217E-1,-2.054836452E-1,-9.882657051E0,9.886681347E0
3.466953124E0,1.932204217E-1,-2.246262282E-1,-9.856335640E0,9.860788169E0
3.469397707E0,1.860419661E-1,-2.006980032E-1,-9.870692253E0,9.874485144E0
3.471843072E0,1.860419661E-1,-2.150549293E-1,-9.858728409E0,9.862828503E0
3.474287551E0,1.908276081E-1,-2.126621157E-1,-9.858728409E0,9.862868051E0
3.476731301E0,1.956132501E-1,-1.983051747E-1,-9.849157333E0,9.853095436E0
3.479175936E0,1.932204217E-1,-1.911267042E-1,-9.849157333E0,9.852906359E0
3.481621249E0,1.980060786E-1,-1.839482337E-1,-9.849157333E0,9.852864738E0
3.484065832E0,1.980060786E-1,-2.054836452E-1,-9.865906715E0,9.870032688E0
3.486509530E0,2.171486616E-1,-2.126621157E-1,-9.849157333E0,9.853845894E0
3.488954113E0,1.980060786E-1,-2.078764737E-1,-9.868299484E0,9.872474550E0
3.491399478E0,1.908276081E-1,-2.078764737E-1,-9.863513947E0,9.867549604E0
3.493843957E0,1.980060786E-1,-2.126621157E-1,-9.856335640E0,9.860617822E0
3.496287707E0,1.860419661E-1,-2.150549293E-1,-9.870692253E0,9.874787380E0
3.498732342E0,1.764706671E-1,-2.078764737E-1,-9.861121178E0,9.864890542E0
3.501177655E0,2.099701911E-1,-2.030908167E-1,-9.856335640E0,9.860663548E0
3.503622238E0,1.860419661E-1,-2.102692872E-1,-9.863513947E0,9.867508914E0
3.506065936E0,1.956132501E-1,-2.054836452E-1,-9.865906715E0,9.869984974E0
3.508510519E0,2.099701911E-1,-2.006980032E-1,-9.882657051E0,9.886924575E0
3.510955884E0,2.051845491E-1,-2.102692872E-1,-9.863513947E0,9.867888388E0
3.513400363E0,2.027917206E-1,-2.054836452E-1,-9.863513947E0,9.867738109E0
3.515844113E0,1.908276081E-1,-1.887338907E-1,-9.853942871E0,9.857597363E0
3.518288749E0,2.123630047E-1,-2.102692872E-1,-9.863513947E0,9.868040261E0
3.520734061E0,2.075773627E-1,-1.935195327E-1,-9.868299484E0,9.872379292E0
3.523178644E0,1.932204217E-1,-2.054836452E-1,-9.856335640E0,9.860370678E0
3.525622342E0,1.932204217E-1,-2.030908167E-1,-9.868299484E0,9.872280118E0
3.528066926E0,1.908276081E-1,-2.054836452E-1,-9.863513947E0,9.867499485E0
3.530512290E0,2.123630047E-1,-2.222333997E-1,-9.853942871E0,9.858736016E0
3.532956769E0,2.051845491E-1,-2.270190418E-1,-9.887442589E0,9.892176671E0
3.535400519E0,1.884347796E-1,-2.078764737E-1,-9.865906715E0,9.869895420E0
3.537845103E0,1.932204217E-1,-2.126621157E-1,-9.863513947E0,9.867698145E0
3.540290467E0,1.908276081E-1,-2.006980032E-1,-9.849157333E0,9.853050038E0
3.542734947E0,1.980060786E-1,-2.102692872E-1,-9.853942871E0,9.858174764E0
3.545178697E0,1.764706671E-1,-1.863410622E-1,-9.851550102E0,9.854892405E0
3.547623332E0,1.884347796E-1,-2.030908167E-1,-9.861121178E0,9.865012135E0
3.550068697E0,1.884347796E-1,-2.126621157E-1,-9.853942871E0,9.858038494E0
3.552513176E0,2.099701911E-1,-2.102692872E-1,-9.865906715E0,9.870380741E0
3.554956926E0,1.932204217E-1,-2.126621157E-1,-9.863513947E0,9.867698145E0
3.557401509E0,1.860419661E-1,-2.054836452E-1,-9.856335640E0,9.860232623E0
3.559846874E0,1.956132501E-1,-2.126621157E-1,-9.873085022E0,9.877312264E0
3.562291353E0,1.860419661E-1,-2.030908167E-1,-9.875477791E0,9.879317744E0
3.564735103E0,2.051845491E-1,-1.863410622E-1,-9.853942871E0,9.857840220E0
3.567179738E0,2.027917206E-1,-2.294118702E-1,-9.856335640E0,9.861090535E0
3.569625051E0,1.884347796E-1,-2.150549293E-1,-9.863513947E0,9.867657456E0
3.572069634E0,1.812563092E-1,-2.150549293E-1,-9.865906715E0,9.869914781E0
3.574513332E0,1.932204217E-1,-1.935195327E-1,-9.865906715E0,9.869696006E0
3.576957915E0,1.908276081E-1,-1.887338907E-1,-9.865906715E0,9.869556777E0
3.579403280E0,1.668993831E-1,-2.150549293E-1,-9.858728409E0,9.862485988E0
3.581847759E0,1.812563092E-1,-2.078764737E-1,-9.853942871E0,9.857801813E0
3.584291509E0,1.956132501E-1,-2.126621157E-1,-9.861121178E0,9.865353547E0
3.586736144E0,1.908276081E-1,-2.198405862E-1,-9.880263329E0,9.884551001E0
3.589181457E0,2.003988922E-1,-2.030908167E-1,-9.844371796E0,9.848505554E0
3.591626040E0,2.099701911E-1,-2.150549293E-1,-9.851550102E0,9.856133903E0
3.594069738E0,1.740778536E-1,-2.006980032E-1,-9.856335640E0,9.859915569E0
3.596514322E0,2.075773627E-1,-2.078764737E-1,-9.863513947E0,9.867887736E0
3.598959686E0,2.051845491E-1,-2.054836452E-1,-9.863513947E0,9.867787574E0
3.601404165E0,1.980060786E-1,-2.126621157E-1,-9.863513947E0,9.867793013E0
3.603847915E0,1.956132501E-1,-1.887338907E-1,-9.870692253E0,9.874434190E0
3.606292551E0,1.860419661E-1,-2.078764737E-1,-9.882657051E0,9.886593682E0
3.608737863E0,1.932204217E-1,-1.935195327E-1,-9.875477791E0,9.879263411E0
3.611182447E0,2.075773627E-1,-1.983051747E-1,-9.861121178E0,9.865298991E0
3.613626144E0,1.980060786E-1,-1.983051747E-1,-9.858728409E0,9.862710438E0
3.616070728E0,2.027917206E-1,-2.102692872E-1,-9.873085022E0,9.877405809E0
3.618516092E0,2.099701911E-1,-2.006980032E-1,-9.853942871E0,9.858222825E0
3.620960572E0,2.099701911E-1,-2.126621157E-1,-9.844371796E0,9.848906980E0
3.623404322E0,2.003988922E-1,-2.030908167E-1,-9.863513947E0,9.867639686E0
3.625848905E0,1.932204217E-1,-2.198405862E-1,-9.868299484E0,9.872638894E0
3.628294269E0,1.884347796E-1,-2.078764737E-1,-9.853942871E0,9.857936417E0
3.630738749E0,1.980060786E-1,-2.102692872E-1,-9.849157333E0,9.853391282E0
3.633182551E0,1.956132501E-1,-1.935195327E-1,-9.873085022E0,9.876918659E0
3.635627134E0,1.788634956E-1,-2.102692872E-1,-9.851550102E0,9.855417025E0
3.638072447E0,1.884347796E-1,-2.102692872E-1,-9.868299484E0,9.872337897E0
3.640517030E0,1.932204217E-1,-2.054836452E-1,-9.870692253E0,9.874721425E0
3.642960728E0,1.740778536E-1,-2.246262282E-1,-9.858728409E0,9.862823423E0
3.645405311E0,1.932204217E-1,-2.126621157E-1,-9.844371796E0,9.848564127E0
3.647850676E0,1.860419661E-1,-2.126621157E-1,-9.865906715E0,9.869951981E0
3.650295155E0,1.836491376E-1,-2.006980032E-1,-9.853942871E0,9.857697338E0
3.652738905E0,1.932204217E-1,-2.006980032E-1,-9.863513947E0,9.867447552E0
3.655183540E0,1.860419661E-1,-1.839482337E-1,-9.851550102E0,9.855023490E0
3.657628853E0,2.051845491E-1,-1.911267042E-1,-9.861121178E0,9.865107247E0
3.660073436E0,1.932204217E-1,-2.054836452E-1,-9.825228691E0,9.829276499E0
3.662517134E0,2.051845491E-1,-2.006980032E-1,-9.858728409E0,9.862905567E0
3.664961717E0,1.932204217E-1,-2.102692872E-1,-9.863513947E0,9.867646866E0
3.667407082E0,2.051845491E-1,-2.246262282E-1,-9.875477791E0,9.880162916E0
3.669851561E0,1.764706671E-1,-1.983051747E-1,-9.858728409E0,9.862301591E0
3.672295311E0,2.027917206E-1,-2.030908167E-1,-9.870692253E0,9.874863843E0
3.674739947E0,2.075773627E-1,-1.863410622E-1,-9.851550102E0,9.855498504E0
3.677185259E0,2.075773627E-1,-2.030908167E-1,-9.868299484E0,9.872571547E0
3.679629842E0,1.740778536E-1,-2.150549293E-1,-9.851550102E0,9.855434599E0
3.682073540E0,2.075773627E-1,-1.959123611E-1,-9.851550102E0,9.855684118E0
3.684518124E0,2.027917206E-1,-2.006980032E-1,-9.858728409E0,9.862856078E0
3.686963488E0,1.812563092E-1,-1.911267042E-1,-9.858728409E0,9.862246656E0
3.689407967E0,2.051845491E-1,-1.815554202E-1,-9.861121178E0,9.864926454E0
3.691851717E0,1.956132501E-1,-1.983051747E-1,-9.863513947E0,9.867446319E0
3.694296301E0,2.195414752E-1,-1.863410622E-1,-9.858728409E0,9.862932996E0
3.696741665E0,1.908276081E-1,-2.102692872E-1,-9.849157333E0,9.853249643E0
3.699186144E0,1.956132501E-1,-2.198405862E-1,-9.875477791E0,9.879861134E0
3.701629894E0,1.980060786E-1,-2.126621157E-1,-9.865906715E0,9.870184745E0
3.704074530E0,1.836491376E-1,-2.054836452E-1,-9.849157333E0,9.853012266E0
3.706519894E0,1.860419661E-1,-2.006980032E-1,-9.858728409E0,9.862525901E0
3.708964374E0,2.123630047E-1,-2.030908167E-1,-9.868299484E0,9.872673328E0
3.711408124E0,2.003988922E-1,-2.054836452E-1,-9.861121178E0,9.865297468E0
3.713852707E0,1.980060786E-1,-2.126621157E-1,-9.856335640E0,9.860617822E0
3.716298072E0,2.075773627E-1,-1.911267042E-1,-9.870692253E0,9.874724469E0
3.718742551E0,2.027917206E-1,-1.983051747E-1,-9.870692253E0,9.874766579E0
3.721186301E0,1.836491376E-1,-2.006980032E-1,-9.875477791E0,9.879224073E0
3.723630936E0,1.884347796E-1,-2.054836452E-1,-9.851550102E0,9.855494438E0
3.726076249E0,1.980060786E-1,-2.174477577E-1,-9.877870560E0,9.882247555E0
3.728520832E0,1.908276081E-1,-1.911267042E-1,-9.875477791E0,9.879170319E0
3.730964530E0,1.956132501E-1,-1.887338907E-1,-9.858728409E0,9.862474885E0
3.733409113E0,2.027917206E-1,-2.222333997E-1,-9.870692253E0,9.875276083E0
3.735854478E0,2.027917206E-1,-2.030908167E-1,-9.885049820E0,9.889215353E0
3.738298957E0,2.147558331E-1,-2.078764737E-1,-9.841979027E0,9.846516331E0
3.740742707E0,1.884347796E-1,-2.030908167E-1,-9.841979027E0,9.845877549E0
3.743187342E0,1.908276081E-1,-2.078764737E-1,-9.853942871E0,9.857982446E0
3.745632655E0,1.860419661E-1,-1.983051747E-1,-9.851550102E0,9.855301922E0
3.748077238E0,1.884347796E-1,-1.863410622E-1,-9.851550102E0,9.855113905E0
3.750520936E0,1.908276081E-1,-1.983051747E-1,-9.853942871E0,9.857785260E0
3.752965519E0,1.908276081E-1,-2.222333997E-1,-9.858728409E0,9.863079068E0
3.755410884E0,2.003988922E-1,-2.174477577E-1,-9.863513947E0,9.867945613E0
3.757855363E0,2.147558331E-1,-2.006980032E-1,-9.863513947E0,9.867892740E0
3.760299113E0,1.884347796E-1,-2.102692872E-1,-9.861121178E0,9.865162529E0
3.762743697E0,1.788634956E-1,-1.863410622E-1,-9.849157333E0,9.852543596E0
3.765189061E0,2.027917206E-1,-2.054836452E-1,-9.844371796E0,9.848604168E0
3.767633644E0,1.884347796E-1,-2.222333997E-1,-9.851550102E0,9.855857891E0
3.770077342E0,1.908276081E-1,-1.935195327E-1,-9.844371796E0,9.848122716E0
3.772521926E0,1.692921966E-1,-1.839482337E-1,-9.863513947E0,9.866681518E0
3.774967290E0,1.932204217E-1,-1.887338907E-1,-9.873085022E0,9.876778952E0
3.777411769E0,2.027917206E-1,-2.078764737E-1,-9.865906715E0,9.870179959E0
3.779855519E0,2.027917206E-1,-2.030908167E-1,-9.863513947E0,9.867688571E0
3.782300103E0,1.908276081E-1,-2.174477577E-1,-9.861121178E0,9.865364138E0
3.784745467E0,1.884347796E-1,-2.078764737E-1,-9.863513947E0,9.867503619E0
3.787189947E0,1.980060786E-1,-2.030908167E-1,-9.863513947E0,9.867591381E0
3.789633697E0,2.003988922E-1,-2.150549293E-1,-9.863513947E0,9.867893175E0
3.792078332E0,1.812563092E-1,-2.174477577E-1,-9.858728409E0,9.862791857E0
3.794523644E0,1.740778536E-1,-2.078764737E-1,-9.870692253E0,9.874415491E0
3.796968228E0,2.003988922E-1,-1.911267042E-1,-9.858728409E0,9.862617045E0
3.799411926E0,2.219343036E-1,-2.006980032E-1,-9.853942871E0,9.858484905E0
3.801856509E0,2.147558331E-1,-2.078764737E-1,-9.861121178E0,9.865649678E0
3.804301874E0,2.027917206E-1,-2.174477577E-1,-9.851550102E0,9.856036091E0
3.806746353E0,2.099701911E-1,-1.959123611E-1,-9.858728409E0,9.862910066E0
3.809190103E0,1.956132501E-1,-2.174477577E-1,-9.863513947E0,9.867849586E0
3.811634738E0,1.836491376E-1,-2.102692872E-1,-9.868299484E0,9.872247712E0
3.814080051E0,1.812563092E-1,-1.935195327E-1,-9.865906715E0,9.869469032E0
3.816524634E0,1.908276081E-1,-2.102692872E-1,-9.851550102E0,9.855641418E0
3.818968332E0,1.932204217E-1,-1.959123611E-1,-9.861121178E0,9.864959537E0
3.821412915E0,1.980060786E-1,-2.150549293E-1,-9.863513947E0,9.867844871E0
3.823858280E0,1.812563092E-1,-1.887338907E-1,-9.877870560E0,9.881335999E0
3.826302759E0,1.884347796E-1,-1.887338907E-1,-9.846764565E0,9.850375655E0
3.828746509E0,1.764706671E-1,-2.006980032E-1,-9.870692253E0,9.874309451E0
3.831191144E0,1.692921966E-1,-2.102692872E-1,-9.875477791E0,9.879166697E0
3.833636457E0,1.668993831E-1,-2.078764737E-1,-9.863513947E0,9.867115861E0
3.836081040E0,2.003988922E-1,-2.030908167E-1,-9.868299484E0,9.872423224E0
3.838524738E0,2.075773627E-1,-2.126621157E-1,-9.853942871E0,9.858422980E0
3.840969322E0,2.099701911E-1,-1.887338907E-1,-9.858728409E0,9.862770088E0
3.843414686E0,1.908276081E-1,-2.078764737E-1,-9.877870560E0,9.881900354E0
3.845859165E0,2.003988922E-1,-1.983051747E-1,-9.868299484E0,9.872325935E0
3.848302915E0,1.884347796E-1,-1.911267042E-1,-9.851550102E0,9.855205553E0
3.850747499E0,1.764706671E-1,-1.911267042E-1,-9.861121178E0,9.864551799E0
3.853192863E0,1.788634956E-1,-2.150549293E-1,-9.856335640E0,9.860303901E0
3.855637342E0,1.812563092E-1,-2.270190418E-1,-9.861121178E0,9.865399251E0
3.858081092E0,2.003988922E-1,-2.078764737E-1,-9.853942871E0,9.858172369E0
3.860525728E0,1.980060786E-1,-1.935195327E-1,-9.856335640E0,9.860223550E0
3.862971040E0,2.123630047E-1,-2.174477577E-1,-9.863513947E0,9.868195830E0
3.865415624E0,1.884347796E-1,-2.078764737E-1,-9.856335640E0,9.860328217E0
3.867859322E0,1.764706671E-1,-1.983051747E-1,-9.868299484E0,9.871869202E0
3.870303905E0,1.884347796E-1,-1.983051747E-1,-9.887442589E0,9.891226090E0
3.872749269E0,2.003988922E-1,-2.318046987E-1,-9.863513947E0,9.868272418E0
3.875193749E0,1.860419661E-1,-1.983051747E-1,-9.865906715E0,9.869653078E0
3.877637499E0,1.860419661E-1,-2.006980032E-1,-9.851550102E0,9.855350360E0
3.880082134E0,1.932204217E-1,-2.054836452E-1,-9.861121178E0,9.865154258E0
3.882527447E0,1.884347796E-1,-1.887338907E-1,-9.892228127E0,9.895822626E0
3.884972030E0,1.980060786E-1,-1.959123611E-1,-9.870692253E0,9.874621695E0
3.887415728E0,1.621137410E-1,-2.006980032E-1,-9.825228691E0,9.828615334E0
3.889860311E0,1.812563092E-1,-2.102692872E-1,-9.844371796E0,9.848285286E0
3.892305676E0,1.884347796E-1,-2.198405862E-1,-9.861121178E0,9.865371175E0
3.894750155E0,1.884347796E-1,-1.887338907E-1,-9.868299484E0,9.871902697E0
3.897193905E0,1.956132501E-1,-2.030908167E-1,-9.863513947E0,9.867543656E0
3.899638488E0,1.980060786E-1,-2.246262282E-1,-9.858728409E0,9.863274770E0
3.902083853E0,1.788634956E-1,-2.054836452E-1,-9.863513947E0,9.867275361E0
3.904528332E0,1.764706671E-1,-2.222333997E-1,-9.875477791E0,9.879554199E0
3.906972134E0,2.171486616E-1,-2.054836452E-1,-9.858728409E0,9.863260258E0
3.909416717E0,1.908276081E-1,-2.054836452E-1,-9.853942871E0,9.857932279E0
3.911862030E0,1.980060786E-1,-2.054836452E-1,-9.877870560E0,9.881991537E0
3.914306613E0,2.027917206E-1,-2.198405862E-1,-9.875477791E0,9.880005869E0
3.916750311E0,2.147558331E-1,-1.887338907E-1,-9.846764565E0,9.850914320E0
3.919194894E0,1.932204217E-1,-2.150549293E-1,-9.875477791E0,9.879708718E0
3.921640259E0,2.027917206E-1,-2.030908167E-1,-9.873085022E0,9.877255601E0
3.924084738E0,1.908276081E-1,-1.911267042E-1,-9.880263329E0,9.883954069E0
3.926528488E0,2.027917206E-1,-2.126621157E-1,-9.853942871E0,9.858323375E0
3.928973124E0,1.956132501E-1,-2.006980032E-1,-9.853942871E0,9.857927487E0
3.931418436E0,2.003988922E-1,-2.270190418E-1,-9.851550102E0,9.856202959E0
3.933863019E0,1.932204217E-1,-2.078764737E-1,-9.880263329E0,9.884338632E0
3.936306717E0,1.860419661E-1,-2.006980032E-1,-9.846764565E0,9.850566669E0
3.938751301E0,1.884347796E-1,-2.078764737E-1,-9.865906715E0,9.869895420E0
3.941196665E0,2.123630047E-1,-1.983051747E-1,-9.882657051E0,9.886927398E0
3.943641144E0,1.956132501E-1,-1.983051747E-1,-9.863513947E0,9.867446319E0
3.946084894E0,1.980060786E-1,-1.959123611E-1,-9.853942871E0,9.857878989E0
3.948529530E0,1.980060786E-1,-2.054836452E-1,-9.851550102E0,9.855682085E0
3.950974842E0,1.788634956E-1,-2.006980032E-1,-9.856335640E0,9.860001221E0
3.953419426E0,1.884347796E-1,-1.935195327E-1,-9.834799767E0,9.838508216E0
3.955863124E0,1.956132501E-1,-1.983051747E-1,-9.837192535E0,9.841135426E0
3.958307707E0,1.908276081E-1,-2.054836452E-1,-9.877870560E0,9.881850307E0
3.960753072E0,1.884347796E-1,-2.102692872E-1,-9.865906715E0,9.869946107E0
3.963197551E0,1.956132501E-1,-2.030908167E-1,-9.870692253E0,9.874719033E0
3.965641301E0,1.836491376E-1,-2.054836452E-1,-9.877870560E0,9.881714291E0
3.968085884E0,1.788634956E-1,-1.983051747E-1,-9.865906715E0,9.869520374E0
3.970531249E0,1.668993831E-1,-2.126621157E-1,-9.858728409E0,9.862434102E0
