"Time (s)","Acceleration x (m/s^2)","Acceleration y (m/s^2)","Acceleration z (m/s^2)"
2.807569900E-2,-1.611865163E0,3.407379389E0,8.786444664E0
3.052007400E-2,-1.580758452E0,3.381058455E0,8.817551613E0
3.296371900E-2,-1.540080428E0,3.337987661E0,8.865407944E0
3.540809400E-2,-1.463510156E0,3.297309637E0,8.882157326E0
3.785340700E-2,-1.398903966E0,3.259024382E0,8.941978455E0
4.029778200E-2,-1.310369492E0,3.184547901E0,8.975478172E0
4.274137600E-2,-1.190728426E0,3.115155935E0,8.989834785E0
4.518585500E-2,-1.104287624E0,3.050549746E0,9.011369705E0
4.763111500E-2,-9.942178130E-1,2.971586704E0,9.040383339E0
5.007549000E-2,-9.056833982E-1,2.856731176E0,9.097810745E0
5.251908400E-2,-8.458628058E-1,2.806481838E0,9.176774025E0
5.496356300E-2,-7.860422134E-1,2.734697104E0,9.272486687E0
5.740882400E-2,-7.022934556E-1,2.682054996E0,9.327521324E0
5.985314600E-2,-6.592226624E-1,2.638685226E0,9.375378609E0
6.229679200E-2,-6.257231236E-1,2.598007202E0,9.437591553E0
6.474127100E-2,-6.134598851E-1,2.574079037E0,9.480662346E0
6.718653200E-2,-6.086742878E-1,2.566900492E0,9.562018394E0
6.963090700E-2,-6.568298340E-1,2.569293261E0,9.634101868E0
7.207450100E-2,-6.975077987E-1,2.612364054E0,9.696315765E0
7.451898000E-2,-7.549355626E-1,2.655434847E0,9.758528709E0
7.696424000E-2,-8.362914920E-1,2.729911566E0,9.839884758E0
7.940861500E-2,-9.080761671E-1,2.792124987E0,9.949954987E0
8.185220900E-2,-1.008574724E0,2.868695259E0,1.004088211E1
8.429668800E-2,-1.109073281E0,2.899801970E0,1.010309505E1
8.674189600E-2,-1.193121195E0,2.952444077E0,1.019192886E1
8.918627100E-2,-1.255334616E0,2.952444077E0,1.025892830E1
9.162991700E-2,-1.291226864E0,2.957229614E0,1.029003429E1
9.407439600E-2,-1.300798178E0,3.017050266E0,1.032831955E1
9.651960500E-2,-1.291226864E0,3.012264490E0,1.037378311E1
9.896398000E-2,-1.269691467E0,3.036192894E0,1.040249729E1
1.014076260E-1,-1.281655669E0,3.036192894E0,1.038814068E1
1.038521050E-1,-1.307976723E0,3.021835804E0,1.036899757E1
1.062973130E-1,-1.351047516E0,3.017050266E0,1.030199909E1
1.087416880E-1,-1.372582912E0,2.983550787E0,1.024696350E1
1.111853340E-1,-1.355833173E0,2.935694218E0,1.017757225E1
1.136298130E-1,-1.267298698E0,2.847159863E0,1.010070229E1
1.160750210E-1,-1.154536963E0,2.749054193E0,1.003848934E1
1.185193960E-1,-9.798609018E-1,2.586043119E0,9.957133293E0
1.209630420E-1,-7.166503668E-1,2.435295343E0,9.916455269E0
1.234075210E-1,-5.632106066E-1,2.370688915E0,9.868598938E0
1.258527300E-1,-4.196412563E-1,2.231905222E0,9.830313683E0
1.282971050E-1,-3.574278951E-1,2.229512453E0,9.794421196E0
1.307407510E-1,-4.076771438E-1,2.260619164E0,9.772886276E0
1.331852300E-1,-4.938187599E-1,2.279761791E0,9.720243454E0
1.356304380E-1,-5.967101455E-1,2.301297188E0,9.669994354E0
1.380748130E-1,-6.281159520E-1,2.313261271E0,9.595816612E0
1.405184590E-1,-6.062814593E-1,2.315654039E0,9.480662346E0
1.429629380E-1,-1.325025558E-1,1.709970832E0,8.752944946E0
1.454081460E-1,-6.311069429E-2,1.769791484E0,9.045168877E0
1.478525210E-1,-1.085743308E-1,1.930110574E0,9.231808662E0
1.502961670E-1,-2.880360186E-1,2.167299032E0,9.358628273E0
1.527406460E-1,-5.416752100E-1,2.368296146E0,9.377771378E0
1.551858550E-1,-8.482556343E-1,2.600399971E0,9.428020477E0
1.576302300E-1,-1.111466169E0,2.796910524E0,9.394520760E0
1.600738760E-1,-1.324726462E0,3.057728291E0,9.492626190E0
1.625183550E-1,-1.403689623E0,3.223132133E0,9.564411163E0
1.649635630E-1,-1.401296735E0,3.357130051E0,9.588339806E0
1.674079380E-1,-1.303191066E0,3.412165165E0,9.540482521E0
1.698515840E-1,-1.133001566E0,3.407379389E0,9.463912964E0
1.722960630E-1,-9.391828775E-1,3.340380430E0,9.337093353E0
1.747412710E-1,-8.458628058E-1,3.256631613E0,9.186345100E0
1.771856460E-1,-7.573283911E-1,3.103191853E0,9.109774590E0
1.796292920E-1,-7.357929349E-1,2.981158018E0,9.040383339E0
1.820737710E-1,-7.549355626E-1,2.806481838E0,8.975478172E0
1.845189800E-1,-7.692924738E-1,2.684448004E0,8.915657043E0
1.869633550E-1,-7.190431952E-1,2.562114954E0,8.894122124E0
1.894070010E-1,-6.783652306E-1,2.499901533E0,8.882157326E0
1.918514800E-1,-6.376872063E-1,2.435295343E0,8.918049812E0
1.942966880E-1,-5.799604058E-1,2.420938253E0,8.946763992E0
1.967410630E-1,-5.584250093E-1,2.399402857E0,9.020941734E0
1.991847090E-1,-5.392823815E-1,2.423331022E0,9.073882103E0
2.016291880E-1,-5.273182988E-1,2.382653236E0,9.124132156E0
2.040743960E-1,-5.297111273E-1,2.401795626E0,9.176774025E0
2.065187710E-1,-4.986044168E-1,2.404188633E0,9.207880974E0
2.089624170E-1,-4.651049078E-1,2.401795626E0,9.238986969E0
2.114068960E-1,-4.818546474E-1,2.394617319E0,9.234201431E0
2.138521050E-1,-5.033900738E-1,2.389831543E0,9.262915611E0
2.162964800E-1,-5.009972453E-1,2.363510609E0,9.272486687E0
2.187401260E-1,-5.153541565E-1,2.356332064E0,9.277272224E0
2.211846050E-1,-5.344967842E-1,2.318047047E0,9.327521324E0
2.236298130E-1,-5.153541565E-1,2.263011932E0,9.372985840E0
2.260741880E-1,-4.722833633E-1,2.193620205E0,9.413662910E0
2.285178340E-1,-4.459623098E-1,2.145763636E0,9.480662346E0
2.309623130E-1,-3.885345757E-1,2.028216362E0,9.528518677E0
2.334075210E-1,-2.952145040E-1,1.922932148E0,9.588339806E0
2.358518960E-1,-1.085743308E-1,1.736291885E0,9.598209381E0
2.382955420E-1,4.725824669E-2,1.595115423E0,9.648459435E0
2.407400210E-1,2.530409992E-1,1.393819213E0,9.665208817E0
2.431852300E-1,4.540380836E-1,1.140179992E0,9.698708534E0
2.456296050E-1,6.170491576E-1,9.101698995E-1,9.760921478E0
2.480732510E-1,7.845467329E-1,6.517450809E-1,9.818349838E0
2.505177300E-1,7.917252183E-1,4.938187599E-1,9.854242325E0
2.529629380E-1,7.007979155E-1,4.339981973E-1,9.897313118E0
2.554073130E-1,4.875376225E-1,4.746761918E-1,9.916455269E0
2.578509590E-1,1.980060786E-1,5.823532343E-1,9.937990189E0
2.602954380E-1,-9.661021084E-2,7.522436380E-1,9.959526062E0
2.627406460E-1,-4.076771438E-1,1.010967612E0,9.969097137E0
2.651850210E-1,-7.214360237E-1,1.331605792E0,9.976275444E0
2.676286670E-1,-1.025324464E0,1.654935956E0,9.978668213E0
2.700731460E-1,-1.276870012E0,2.040180445E0,1.001695347E1
2.725183550E-1,-1.559223056E0,2.444866419E0,1.004566765E1
2.749627300E-1,-1.820339799E0,2.823231697E0,1.002173901E1
2.774063760E-1,-2.033301115E0,3.237488985E0,1.000977516E1
2.798508550E-1,-2.246262312E0,3.613162279E0,9.966704369E0
2.822960630E-1,-2.457129717E0,3.946063757E0,9.945169449E0
2.847404380E-1,-2.677269459E0,4.245166302E0,9.811170578E0
2.871840320E-1,-2.849552631E0,4.508676052E0,9.677172661E0
2.896285630E-1,-3.038884640E0,4.807778835E0,9.432806015E0
2.920737710E-1,-3.220739365E0,5.047360420E0,9.231808662E0
2.945181460E-1,-3.369094372E0,5.279464245E0,9.102596283E0
2.969617920E-1,-3.529712439E0,5.471189022E0,8.963513374E0
2.994061670E-1,-3.687638760E0,5.657829285E0,8.839086533E0
3.018514800E-1,-3.833600998E0,5.736792088E0,8.762516975E0
3.042958550E-1,-3.912564039E0,5.842076302E0,8.719446182E0
3.067394490E-1,-3.965206146E0,5.925825119E0,8.736195564E0
3.091839280E-1,-3.981956005E0,6.014359951E0,8.757730484E0
3.116291880E-1,-3.974777460E0,6.052944183E0,8.841479301E0
3.140735630E-1,-3.941277981E0,6.016752720E0,8.968298912E0
3.165171570E-1,-3.898207188E0,5.997610092E0,9.145667076E0
3.189616360E-1,-3.847957850E0,5.961717606E0,9.349057198E0
3.214068960E-1,-3.800101519E0,5.911468506E0,9.535696983E0
3.238512710E-1,-3.759423494E0,5.854040623E0,9.705886841E0
3.262948650E-1,-3.728316784E0,5.810969830E0,9.856635094E0
3.287393440E-1,-3.725924015E0,5.760720730E0,9.949954987E0
3.311846050E-1,-3.737888098E0,5.693721294E0,1.003848934E1
3.336289800E-1,-3.752244949E0,5.617151260E0,1.012941647E1
3.360725740E-1,-3.745066643E0,5.516652584E0,1.018953609E1
3.385170530E-1,-3.790530205E0,5.413462162E0,1.024935627E1
3.409623130E-1,-3.852743626E0,5.334498882E0,1.027089214E1
3.434066880E-1,-3.960420609E0,5.272285461E0,1.030439186E1
3.458502820E-1,-4.094717979E0,5.217250824E0,1.034028435E1
3.482947610E-1,-4.312464714E0,5.188536644E0,1.037617588E1
3.507400210E-1,-4.515854359E0,5.169394016E0,1.038335514E1
3.531843440E-1,-4.750650406E0,5.145465851E0,1.039771175E1
3.556279900E-1,-4.968397141E0,5.200500965E0,1.030678463E1
3.580724690E-1,-5.167300701E0,5.210072041E0,1.021585751E1
3.605177300E-1,-5.286941528E0,5.253142834E0,1.010788059E1
3.629621050E-1,-5.346762180E0,5.284249783E0,1.001456070E1
3.654056990E-1,-5.394618511E0,5.310570717E0,9.887741089E0
3.678501780E-1,-5.346762180E0,5.317749023E0,9.815957069E0
3.702954380E-1,-5.263013363E0,5.277071476E0,9.746564865E0
3.727398130E-1,-5.181657314E0,5.267499924E0,9.686744690E0
3.751834070E-1,-5.061717033E0,5.162215710E0,9.634101868E0
3.776278860E-1,-4.966004372E0,4.999503613E0,9.521340370E0
3.800731460E-1,-4.834399223E0,4.836492538E0,9.430413246E0
3.825175210E-1,-4.678865433E0,4.613960266E0,9.382556915E0
3.849611150E-1,-4.405784607E0,4.386641979E0,9.351449966E0
3.874055940E-1,-4.128217220E0,4.151846409E0,9.368199348E0
3.898508550E-1,-3.816851139E0,3.891028643E0,9.370592117E0
3.922952300E-1,-3.477070332E0,3.594019651E0,9.253344536E0
3.947388240E-1,-3.153740168E0,3.318845034E0,9.076275826E0
3.971833030E-1,-2.878565550E0,3.036192894E0,8.860622406E0
3.996285630E-1,-2.638984203E0,2.765803814E0,8.626125336E0
4.020729380E-1,-2.349452734E0,2.478366137E0,8.388936996E0
4.045165320E-1,-2.052443504E0,2.181656122E0,8.197511673E0
4.069610110E-1,-1.743769526E0,1.834397674E0,8.056334496E0
4.094062710E-1,-1.391725421E0,1.475175142E0,7.982157230E0
4.118506460E-1,-9.415757060E-1,1.097109199E0,7.967800140E0
4.142942400E-1,-4.674977362E-1,6.972087026E-1,7.986942768E0
4.167387190E-1,1.142572835E-1,2.566302419E-1,8.020442009E0
4.191839280E-1,7.366902828E-1,-2.389831543E-1,8.137690544E0
4.216284070E-1,1.435693622E0,-7.920243144E-1,8.259724617E0
4.240719490E-1,2.192423820E0,-1.395314693E0,8.403293610E0
4.265164280E-1,2.934497833E0,-2.015354872E0,8.551948547E0
4.289616360E-1,3.700500250E0,-2.668894529E0,8.784051895E0
4.314060110E-1,4.399503708E0,-3.317648649E0,9.011369705E0
4.338496570E-1,5.132305622E0,-3.961616993E0,9.241379738E0
4.362941360E-1,5.840879917E0,-4.607978344E0,9.497411728E0
4.387393960E-1,6.518348217E0,-5.233103275E0,9.818349838E0
4.411837190E-1,7.239185810E0,-5.824429512E0,1.010788059E1
4.436273650E-1,7.962117195E0,-6.420541286E0,1.040010452E1
4.460718440E-1,8.740083694E0,-7.016653538E0,1.074257755E1
4.485170530E-1,9.479764938E0,-7.629515171E0,1.111107159E1
4.509614280E-1,1.027717304E1,-8.283054352E0,1.146550846E1
4.534050740E-1,1.109581757E1,-8.958129883E0,1.176461124E1
4.558495530E-1,1.197697449E1,-9.661918640E0,1.203529930E1
4.582947610E-1,1.280279732E1,-1.038036346E1,1.220279694E1
4.607391360E-1,1.365045452E1,-1.110090256E1,1.227697468E1
4.631827820E-1,1.443320751E1,-1.175922775E1,1.238225937E1
4.656272610E-1,1.518754482E1,-1.245344543E1,1.240170097E1
4.680724690E-1,1.592722607E1,-1.307139206E1,1.241605759E1
4.705168440E-1,1.667408562E1,-1.366511059E1,1.242323589E1
4.729604900E-1,1.735663795E1,-1.428754425E1,1.242562866E1
4.754049690E-1,1.797428513E1,-1.488365555E1,1.243998623E1
4.778501780E-1,1.853929138E1,-1.550848198E1,1.246869946E1
4.802945530E-1,1.900349808E1,-1.610220146E1,1.246391392E1
4.827381990E-1,1.942971992E1,-1.672941971E1,1.249502087E1
4.851826780E-1,1.978894234E1,-1.730160332E1,1.252134132E1
4.876278860E-1,2.012632942E1,-1.786182213E1,1.248544979E1
4.900722610E-1,2.047119522E1,-1.832872200E1,1.238225937E1
4.925159070E-1,2.080648994E1,-1.873101616E1,1.222433281E1
4.949603860E-1,2.105055809E1,-1.904208183E1,1.193719387E1
4.974055940E-1,2.121805573E1,-1.930080605E1,1.159711361E1
4.998499690E-1,2.125634003E1,-1.948266029E1,1.107996559E1
5.022936150E-1,2.113669968E1,-1.956162453E1,1.050299549E1
5.047380940E-1,2.084956169E1,-1.961187363E1,9.811170578E0
5.071833030E-1,2.038026810E1,-1.964776611E1,9.045168877E0
5.096276780E-1,1.978894234E1,-1.962383842E1,8.269295692E0
5.120713240E-1,1.907318878E1,-1.954726791E1,7.467401028E0
5.145158030E-1,1.822074699E1,-1.940369797E1,6.681957245E0
5.169610110E-1,1.732523155E1,-1.921915054E1,5.966204166E0
5.194053860E-1,1.636780357E1,-1.897747612E1,5.307878971E0
5.218490320E-1,1.537179184E1,-1.867598152E1,4.711766720E0
5.242935110E-1,1.433270836E1,-1.835982895E1,4.211368084E0
5.267387190E-1,1.331755352E1,-1.798146439E1,3.809074640E0
5.291830940E-1,1.231944752E1,-1.758425522E1,3.536292791E0
5.316267400E-1,1.126840019E1,-1.718674850E1,3.399602890E0
5.340712190E-1,1.023170948E1,-1.677727509E1,3.419044495E0
5.365164280E-1,9.175876617E0,-1.635584068E1,3.553042412E0
5.389608030E-1,8.103293419E0,-1.590120411E1,3.742075443E0
5.414044490E-1,7.025925636E0,-1.546301842E1,4.022335052E0
5.438489280E-1,5.855237007E0,-1.499851131E1,4.280759811E0
5.462941360E-1,4.643870354E0,-1.451486206E1,4.517649174E0
5.487385110E-1,3.343969584E0,-1.394985676E1,4.711766720E0
5.511821570E-1,1.979163408E0,-1.333938789E1,4.886443138E0
5.536266360E-1,5.069792867E-1,-1.267866993E1,5.037190914E0
5.560718440E-1,-1.020538807E0,-1.194377422E1,5.181059361E0
5.585162190E-1,-2.552842617E0,-1.109133148E1,5.317450047E0
5.609598650E-1,-4.133002758E0,-1.017906761E1,5.520840168E0
5.634043440E-1,-5.725127220E0,-9.161818504E0,5.786742687E0
5.658495530E-1,-7.321738243E0,-8.048558235E0,6.081059456E0
5.682939280E-1,-8.923434258E0,-6.911369324E0,6.390032768E0
5.707375740E-1,-1.054187965E1,-5.659025669E0,6.763313293E0
5.731820530E-1,-1.219382381E1,-4.323232174E0,7.158428192E0
5.756272610E-1,-1.386730480E1,-2.941676378E0,7.493722439E0
5.780716360E-1,-1.550010681E1,-1.512562990E0,7.838288784E0
5.805152820E-1,-1.711376572E1,-9.272187948E-2,8.223832130E0
5.829597610E-1,-1.866282082E1,1.338784218E0,8.616554260E0
5.854049690E-1,-2.011586189E1,2.725125790E0,9.049954414E0
5.878493440E-1,-2.148306084E1,4.084847450E0,9.591031075E0
5.902929900E-1,-2.281885338E1,5.444568634E0,1.018235779E1
5.927374690E-1,-2.410679054E1,6.840481758E0,1.093161011E1
5.951826780E-1,-2.537827682E1,8.216953278E0,1.178136158E1
5.976270530E-1,-2.664467812E1,9.567401886E0,1.270798206E1
6.000706990E-1,-2.780340195E1,1.091994476E1,1.366810226E1
6.025151780E-1,-2.884966469E1,1.223210907E1,1.462313747E1
6.049603860E-1,-2.982414055E1,1.348415375E1,1.554736519E1
6.074047610E-1,-3.066432190E1,1.469791317E1,1.643330765E1
6.098484070E-1,-3.150001526E1,1.586142349E1,1.718973923E1
6.122928860E-1,-3.230430222E1,1.696989822E1,1.789591980E1
6.147380940E-1,-3.309423447E1,1.805444527E1,1.850399590E1
6.171824690E-1,-3.372175217E1,1.905763626E1,1.903550148E1
6.196261150E-1,-3.424817276E1,1.995045853E1,1.948565292E1
6.220705940E-1,-3.462653732E1,2.070479584E1,1.993101692E1
6.245158030E-1,-3.495943832E1,2.129133606E1,2.033330917E1
6.269601780E-1,-3.518675613E1,2.173400879E1,2.063480568E1
6.294038240E-1,-3.534946823E1,2.205015945E1,2.091506386E1
6.318483030E-1,-3.544548035E1,2.222244263E1,2.103231239E1
6.342935110E-1,-3.542394638E1,2.226312065E1,2.100838470E1
6.367378860E-1,-3.521786118E1,2.216501617E1,2.085285187E1
6.391815320E-1,-3.489483261E1,2.198794556E1,2.049123573E1
6.416260110E-1,-3.442793274E1,2.163350868E1,2.000279999E1
6.440712190E-1,-3.391556931E1,2.122673035E1,1.938515282E1
6.465155940E-1,-3.338645554E1,2.075265121E1,1.870289993E1
6.489592400E-1,-3.281427383E1,2.022114563E1,1.802543259E1
6.514037190E-1,-3.224687576E1,1.962742615E1,1.728305817E1
6.538489280E-1,-3.161008453E1,1.895474434E1,1.659123421E1
6.562933030E-1,-3.091317558E1,1.820519257E1,1.601187134E1
6.587369490E-1,-3.017110062E1,1.739612007E1,1.553779411E1
6.611814280E-1,-2.944099045E1,1.653171349E1,1.515225029E1
6.636266360E-1,-2.874677277E1,1.562931919E1,1.486989689E1
6.660710110E-1,-2.807618523E1,1.464527130E1,1.465215015E1
6.685146570E-1,-2.737957382E1,1.370190048E1,1.442692566E1
6.709591360E-1,-2.661596489E1,1.265324593E1,1.421157169E1
6.734043440E-1,-2.583291245E1,1.161655617E1,1.395524120E1
6.758487190E-1,-2.500469780E1,1.054187965E1,1.373988628E1
6.782923650E-1,-2.410439873E1,9.426225662E0,1.352213955E1
6.807368440E-1,-2.319482613E1,8.289036751E0,1.333759308E1
6.831820530E-1,-2.217009926E1,7.096513748E0,1.318923855E1
6.856264280E-1,-2.108794594E1,5.856433392E0,1.311027527E1
6.880700740E-1,-1.996990013E1,4.556532383E0,1.309591866E1
6.905145530E-1,-1.872981834E1,3.242274761E0,1.313659668E1
6.929597610E-1,-1.743201256E1,1.870290041E0,1.316291714E1
6.954041360E-1,-1.607707596E1,4.962115884E-1,1.325862980E1
6.978477820E-1,-1.472931862E1,-8.901300430E-1,1.333998585E1
7.002922610E-1,-1.334537029E1,-2.247458696E0,1.333998585E1
7.027374690E-1,-1.193779182E1,-3.636193037E0,1.327538013E1
7.051818440E-1,-1.059212875E1,-5.048556805E0,1.311027527E1
7.076254900E-1,-9.297013283E0,-6.475576401E0,1.283958721E1
7.100699690E-1,-8.023433685E0,-7.899903774E0,1.245434284E1
7.125151780E-1,-6.680162430E0,-9.300602913E0,1.196830082E1
7.149595530E-1,-5.251049519E0,-1.070578766E1,1.133629608E1
7.174031990E-1,-3.725924015E0,-1.208016491E1,1.057478046E1
7.198476780E-1,-2.138585329E0,-1.344945812E1,9.653244972E0
7.222928860E-1,-5.105685592E-1,-1.475444317E1,8.642875671E0
7.247372610E-1,1.162911773E0,-1.600409508E1,7.558328629E0
7.271809070E-1,2.932105064E0,-1.727289009E1,6.459424496E0
7.296253860E-1,4.746761799E0,-1.850818443E1,5.336592674E0
7.320705940E-1,6.597311020E0,-1.976980019E1,4.197010994E0
7.345149690E-1,8.539086342E0,-2.107957077E1,3.153141975E0
7.369586150E-1,1.054038334E1,-2.238425827E1,2.157129526E0
7.394030940E-1,1.264965725E1,-2.363151550E1,1.237986565E0
7.418483030E-1,1.479242992E1,-2.477827644E1,2.730808854E-1
7.442926780E-1,1.699023628E1,-2.585085869E1,-7.205387354E-1
7.467363240E-1,1.929572105E1,-2.673440933E1,-1.893620014E0
7.491808030E-1,2.155574226E1,-2.757698250E1,-3.114557743E0
7.516260110E-1,2.384687042E1,-2.835046196E1,-4.476971149E0
7.540703860E-1,2.599442863E1,-2.903032303E1,-5.941977024E0
7.565140320E-1,2.807738113E1,-2.959054184E1,-7.392924786E0
7.589585110E-1,3.005714226E1,-3.011726189E1,-8.575576782E0
7.614037190E-1,3.188854980E1,-3.050041199E1,-9.533304214E0
7.638480940E-1,3.358117294E1,-3.083540726E1,-1.011984539E1
7.662917400E-1,3.513022614E1,-3.117548752E1,-1.019162941E1
7.687362190E-1,3.659313583E1,-3.158256721E1,-9.906584740E0
7.711814280E-1,3.795525360E1,-3.201566696E1,-9.339186668E0
7.736258030E-1,3.904219055E1,-3.244428253E1,-8.688039780E0
7.760694490E-1,3.978934860E1,-3.276282501E1,-7.888537884E0
7.785139280E-1,4.020569992E1,-3.299493027E1,-6.966702938E0
7.809591360E-1,4.028466415E1,-3.315525055E1,-6.049654007E0
7.834035110E-1,4.005973816E1,-3.323660660E1,-5.175974369E0
7.858471570E-1,3.963351822E1,-3.327518845E1,-4.380959034E0
7.882916360E-1,3.886272812E1,-3.310021591E1,-3.696312666E0
7.907368440E-1,3.780689621E1,-3.274847031E1,-3.090629578E0
7.931812190E-1,3.652374649E1,-3.227917862E1,-2.678765059E0
7.956248650E-1,3.493640518E1,-3.170460129E1,-2.391626120E0
7.980693440E-1,3.301138306E1,-3.110131073E1,-2.209771633E0
8.005145530E-1,3.069153976E1,-3.047169876E1,-2.058724880E0
8.029589280E-1,2.802713203E1,-2.974607468E1,-2.008475542E0
8.054025740E-1,2.506541634E1,-2.895853806E1,-1.941476464E0
8.078470530E-1,2.189821625E1,-2.811566544E1,-1.903191328E0
8.102922610E-1,1.866371727E1,-2.719173813E1,-1.907976985E0
8.127366360E-1,1.542682648E1,-2.620529556E1,-1.912762642E0
8.151802820E-1,1.220429325E1,-2.512074852E1,-1.919941068E0
8.176247610E-1,9.022735596E0,-2.392374039E1,-1.893620014E0
8.200699690E-1,5.929414749E0,-2.261905289E1,-1.886441588E0
8.225143440E-1,2.944069147E0,-2.121835518E1,-1.872084618E0
8.249579900E-1,1.022931710E-1,-1.976980019E1,-1.860120535E0
8.274024690E-1,-2.581556559E0,-1.821386719E1,-1.783550143E0
8.298476780E-1,-5.104787827E0,-1.659542084E1,-1.695015788E0
8.322920530E-1,-7.453642368E0,-1.496261883E1,-1.517647743E0
8.347356990E-1,-9.639486313E0,-1.326999664E1,-1.230509043E0
8.371801780E-1,-1.166949654E1,-1.163480091E1,-7.803592682E-1
8.396253860E-1,-1.347936821E1,-1.002592659E1,-2.105683982E-1
8.420697610E-1,-1.518874073E1,-8.409873962E0,5.051847100E-1
8.445134070E-1,-1.664208221E1,-6.786643028E0,1.343270779E0
8.469578860E-1,-1.792284012E1,-5.189733028E0,2.288734913E0
8.494030940E-1,-1.906002808E1,-3.624228954E0,3.306282759E0
8.518474690E-1,-2.011825371E1,-2.094317913E0,4.354937077E0
8.542911150E-1,-2.118844414E1,-5.572285652E-1,5.511268616E0
8.567355940E-1,-2.226342010E1,9.125627279E-1,6.720242500E0
8.591808030E-1,-2.339343071E1,2.447259426E0,7.915158272E0
8.616251780E-1,-2.454976273E1,3.974777460E0,9.174381256E0
8.640688240E-1,-2.578266335E1,5.485546112E0,1.043838978E1
8.665133030E-1,-2.705175781E1,7.012764931E0,1.183908844E1
8.689585110E-1,-2.835644341E1,8.578568459E0,1.333041477E1
8.714028860E-1,-2.976162910E1,1.026640511E1,1.494168186E1
8.738465320E-1,-3.119343376E1,1.200449181E1,1.656969833E1
8.762910110E-1,-3.253401184E1,1.374975681E1,1.823121452E1
8.787362190E-1,-3.364966583E1,1.543280888E1,1.978266144E1
8.811805940E-1,-3.456671524E1,1.699861145E1,2.110409737E1
8.836242400E-1,-3.547180176E1,1.862423515E1,2.226760674E1
8.860687190E-1,-3.619473267E1,2.005334854E1,2.311526489E1
8.885139280E-1,-3.679563141E1,2.132722855E1,2.369462776E1
8.909583030E-1,-3.732474136E1,2.250988007E1,2.404637146E1
8.934019490E-1,-3.779403687E1,2.354178619E1,2.421895409E1
8.958464280E-1,-3.817927933E1,2.439153671E1,2.419981194E1
8.982916360E-1,-3.847150421E1,2.506900406E1,2.409901428E1
9.007360110E-1,-3.865814209E1,2.561008072E1,2.401047897E1
9.031796570E-1,-3.874189377E1,2.599083900E1,2.398176575E1
9.056241360E-1,-3.865814209E1,2.622533607E1,2.400569344E1
9.080693440E-1,-3.847628784E1,2.631656265E1,2.397698021E1
9.105137190E-1,-3.821786499E1,2.626391983E1,2.396262360E1
9.129573650E-1,-3.780839157E1,2.606262398E1,2.389562416E1
9.154018440E-1,-3.735106277E1,2.573719978E1,2.370659065E1
9.178470530E-1,-3.680520248E1,2.528465843E1,2.340718842E1
9.202914280E-1,-3.623062515E1,2.472204590E1,2.293071938E1
9.227350740E-1,-3.562494278E1,2.400629234E1,2.233460617E1
9.251795530E-1,-3.501686478E1,2.316102791E1,2.162364006E1
9.276247610E-1,-3.437289810E1,2.218894386E1,2.082174492E1
9.300691360E-1,-3.372653580E1,2.110200310E1,1.996212196E1
9.325127820E-1,-3.299373245E1,1.996242142E1,1.909053802E1
9.349572610E-1,-3.217748260E1,1.872952080E1,1.817139435E1
9.374024690E-1,-3.121257591E1,1.744397545E1,1.730220222E1
9.398468440E-1,-3.012803078E1,1.608156204E1,1.641177177E1
9.422904900E-1,-2.889512825E1,1.463330650E1,1.558804321E1
9.447349690E-1,-2.756651306E1,1.316560936E1,1.478854084E1
9.471801780E-1,-2.613231468E1,1.158066368E1,1.407727432E1
9.496245530E-1,-2.465265274E1,9.976874352E0,1.334237862E1
9.520681990E-1,-2.312064934E1,8.368000031E0,1.269123173E1
9.545126780E-1,-2.158116722E1,6.751947403E0,1.208794212E1
9.569578860E-1,-2.003929138E1,5.167001247E0,1.153011513E1
9.594022610E-1,-1.853809357E1,3.651447296E0,1.099621677E1
9.618459070E-1,-1.704198265E1,2.157727718E0,1.055563831E1
9.642903860E-1,-1.552642822E1,7.546364665E-1,1.012702370E1
9.667355940E-1,-1.408265877E1,-5.572285652E-1,9.780064583E0
9.691799690E-1,-1.268225956E1,-1.857428551E0,9.483055115E0
9.716236150E-1,-1.136082268E1,-3.111865759E0,9.255737305E0
9.740680940E-1,-1.013001442E1,-4.363910198E0,9.093025208E0
9.765133030E-1,-8.966505051E0,-5.623133183E0,8.918049812E0
9.789576780E-1,-7.853243828E0,-6.803392887E0,8.717052460E0
9.814013240E-1,-6.742375851E0,-7.969295979E0,8.412865639E0
9.838458030E-1,-5.624329567E0,-9.142676353E0,8.032406807E0
9.862910110E-1,-4.484747887E0,-1.027029419E1,7.539186001E0
9.887353860E-1,-3.292523861E0,-1.144098282E1,6.955038071E0
9.911790320E-1,-2.107478619E0,-1.258535004E1,6.258427620E0
9.936235110E-1,-9.463613629E-1,-1.372732449E1,5.532804012E0
9.960687190E-1,1.812563092E-1,-1.481665707E1,4.821836948E0
9.985130940E-1,1.371087432E0,-1.584826279E1,4.225724697E0
1.000956740E0,2.575275421E0,-1.682273865E1,3.737289906E0
1.003401219E0,3.836891174E0,-1.773500252E1,3.399602890E0
1.005846428E0,5.196911812E0,-1.855364799E1,3.148356438E0
1.008290803E0,6.669095993E0,-1.931277084E1,3.011965513E0
1.010734449E0,8.287541389E0,-1.993998909E1,2.947359324E0
1.013178928E0,9.977771759E0,-2.055524445E1,2.925823927E0
1.015624136E0,1.169432259E1,-2.111067772E1,2.897109985E0
1.018068511E0,1.341835117E1,-2.168525505E1,2.870789051E0
1.020512157E0,1.508435440E1,-2.230050850E1,2.803490877E0
1.022956636E0,1.665494347E1,-2.293969154E1,2.698206663E0
1.025401844E0,1.819442558E1,-2.364587402E1,2.468495607E0
1.027846219E0,1.967647934E1,-2.439064026E1,2.044667006E0
1.030289865E0,2.115345001E1,-2.519492722E1,1.422233939E0
1.032734344E0,2.254457664E1,-2.593700027E1,6.538388133E-1
1.035179553E0,2.397608376E1,-2.675115967E1,-2.201396823E-1
1.037623928E0,2.550360107E1,-2.753869629E1,-1.165902853E0
1.040067574E0,2.711486816E1,-2.824517822E1,-2.118545294E0
1.042512053E0,2.885056114E1,-2.878864670E1,-3.028416157E0
1.044957261E0,3.064607620E1,-2.931746101E1,-3.765704632E0
1.047401636E0,3.251128006E1,-2.980350304E1,-4.400101662E0
1.049845282E0,3.435465240E1,-3.023211861E1,-4.931607246E0
1.052289761E0,3.612145233E1,-3.059134102E1,-5.298008442E0
1.054734969E0,3.759632874E1,-3.088326454E1,-5.489434242E0
1.057179344E0,3.871198273E1,-3.106063271E1,-5.568696499E0
1.059622990E0,3.942773438E1,-3.121616554E1,-5.556433201E0
1.062067469E0,3.973880386E1,-3.128077316E1,-5.515755177E0
1.064512678E0,3.959762573E1,-3.125205803E1,-5.455934525E0
1.066957053E0,3.898715591E1,-3.109891701E1,-5.420042515E0
1.069400699E0,3.787628937E1,-3.083301544E1,-5.324329376E0
1.071845178E0,3.635355759E1,-3.046212769E1,-5.175974369E0
1.074290386E0,3.439054489E1,-2.996172905E1,-4.957928658E0
1.076734761E0,3.192444229E1,-2.934168816E1,-4.644468784E0
1.079178407E0,2.900370216E1,-2.865674400E1,-4.249353886E0
1.081622886E0,2.576232529E1,-2.785245514E1,-3.780061483E0
1.084068094E0,2.229063797E1,-2.696651268E1,-3.238984585E0
1.086512469E0,1.867328835E1,-2.602344131E1,-2.630908489E0
1.088956115E0,1.494317722E1,-2.497478676E1,-1.955833435E0
1.091400594E0,1.111735344E1,-2.382563400E1,-1.259222865E0
1.093845803E0,7.277471066E0,-2.255175591E1,-6.463612318E-1
1.096290178E0,3.506681681E0,-2.121596146E1,-7.178468257E-2
1.098733824E0,-9.900303930E-2,-1.975544357E1,4.764707983E-1
1.101178303E0,-3.429214001E0,-1.826650810E1,9.984052777E-1
1.103623511E0,-6.440880299E0,-1.667677689E1,1.441376567E0
1.106067886E0,-9.057730675E0,-1.512054539E1,1.846062660E0
1.108511532E0,-1.131535912E1,-1.356909943E1,2.164308071E0
1.110956011E0,-1.308694553E1,-1.205145168E1,2.458924294E0
1.113401219E0,-1.450648689E1,-1.059811020E1,2.609672308E0
1.115845594E0,-1.546182156E1,-9.168996811E0,2.674278498E0
1.118289240E0,-1.605554008E1,-7.813762188E0,2.681456804E0
1.120733719E0,-1.633340645E1,-6.547360897E0,2.669492722E0
1.123178928E0,-1.637887192E1,-5.374279499E0,2.674278498E0
1.125623303E0,-1.646740532E1,-4.318446636E0,2.801098108E0
1.128066949E0,-1.666122437E1,-3.276970625E0,3.138785124E0
1.130511428E0,-1.709462357E1,-2.264208317E0,3.629612923E0
1.132956636E0,-1.771705627E1,-1.194018483E0,4.371686935E0
1.135401011E0,-1.864607048E1,-8.075776696E-2,5.365306377E0
1.137844657E0,-1.971147537E1,1.176072359E0,6.588637352E0
1.140289136E0,-2.093959045E1,2.538186550E0,8.053941727E0
1.142734344E0,-2.221077728E1,4.017848492E0,9.686744690E0
1.145178719E0,-2.350110817E1,5.617151260E0,1.143440247E1
1.147622365E0,-2.483959198E1,7.293024540E0,1.326341629E1
1.150066844E0,-2.627588463E1,9.040681839E0,1.509721565E1
1.152512053E0,-2.778186798E1,1.081226826E1,1.687119484E1
1.154956428E0,-2.935963440E1,1.267478180E1,1.858086586E1
1.157400074E0,-3.098047256E1,1.453759384E1,2.015833473E1
1.159844553E0,-3.260609818E1,1.631157303E1,2.158774757E1
1.162289761E0,-3.419552994E1,1.809272957E1,2.286611176E1
1.164734136E0,-3.567997742E1,1.978774643E1,2.395783806E1
1.167177782E0,-3.691766357E1,2.133919144E1,2.483181572E1
1.169622261E0,-3.786342621E1,2.270609283E1,2.557389069E1
1.172067469E0,-3.858396530E1,2.392224503E1,2.624657249E1
1.174511844E0,-3.909872055E1,2.494218445E1,2.678525734E1
1.176955490E0,-3.941247940E1,2.580180740E1,2.720908546E1
1.179399969E0,-3.953212357E1,2.652952385E1,2.752972412E1
1.181845178E0,-3.948666000E1,2.711845779E1,2.769991302E1
1.184289553E0,-3.925664902E1,2.753510666E1,2.773101997E1
1.186733199E0,-3.888815308E1,2.786053085E1,2.769034195E1
1.189177678E0,-3.834468460E1,2.803072166E1,2.751297379E1
1.191622886E0,-3.765525055E1,2.806182671E1,2.725454903E1
1.194067261E0,-3.687220001E1,2.796132851E1,2.691925430E1
1.196510907E0,-3.602244949E1,2.768107033E1,2.647897530E1
1.198955386E0,-3.517957687E1,2.722852707E1,2.588286400E1
1.201400594E0,-3.436332703E1,2.667070007E1,2.523141670E1
1.203844969E0,-3.357548904E1,2.596930504E1,2.453719902E1
1.206288615E0,-3.279273605E1,2.515305328E1,2.377837563E1
1.208733094E0,-3.200490189E1,2.423361015E1,2.303360939E1
1.211178303E0,-3.122454071E1,2.324477577E1,2.224607277E1
1.213622678E0,-3.045853806E1,2.215065765E1,2.150160599E1
1.216066324E0,-2.973770142E1,2.106132507E1,2.076880264E1
1.218510803E0,-2.901476860E1,1.992174339E1,2.000997925E1
1.220956011E0,-2.832294464E1,1.874387741E1,1.925833321E1
1.223400386E0,-2.758804893E1,1.749183273E1,1.849442482E1
1.225844032E0,-2.680260468E1,1.622064590E1,1.771645927E1
1.228288511E0,-2.591217613E1,1.490608883E1,1.690738487E1
1.230733719E0,-2.494009209E1,1.356550980E1,1.612433434E1
1.233178094E0,-2.392972183E1,1.219352531E1,1.538704586E1
1.235621740E0,-2.290978050E1,1.082183933E1,1.466172123E1
1.238066219E0,-2.184676933E1,9.462118149E0,1.399591827E1
1.240511428E0,-2.080529404E1,8.039883614E0,1.333041477E1
1.242955803E0,-1.977847290E1,6.644270420E0,1.267687511E1
1.245399449E0,-1.871785545E1,5.207679272E0,1.208076286E1
1.247843928E0,-1.763091469E1,3.742374659E0,1.154447174E1
1.250289136E0,-1.655833244E1,2.286940336E0,1.105842972E1
1.252733511E0,-1.549532127E1,8.383852243E-1,1.059631634E1
1.255177157E0,-1.442034531E1,-5.739783049E-1,1.011027431E1
1.257621636E0,-1.330469227E1,-1.981855392E0,9.658030510E0
1.260066844E0,-1.209093285E1,-3.379862070E0,9.119346619E0
1.262511219E0,-1.088913727E1,-4.780560493E0,8.532805443E0
1.264954865E0,-9.661021233E0,-6.161817551E0,7.965407372E0
1.267399344E0,-8.396714211E0,-7.505088329E0,7.486543655E0
1.269844553E0,-7.053741932E0,-8.814560890E0,7.014858723E0
1.272288928E0,-5.686841965E0,-1.014796066E1,6.622136593E0
1.274732574E0,-4.319643021E0,-1.142662525E1,6.200700760E0
1.277177053E0,-3.079562664E0,-1.271456242E1,5.750850201E0
1.279622261E0,-1.853839397E0,-1.394267845E1,5.207380295E0
1.282066636E0,-6.903293133E-1,-1.514208126E1,4.687838554E0
1.284510282E0,4.013960063E-1,-1.621705627E1,4.122833252E0
1.286954657E0,1.543370605E0,-1.724656868E1,3.509971619E0
1.289399969E0,2.711666346E0,-1.818036652E1,2.841775894E0
1.291844344E0,3.846462488E0,-1.906601143E1,2.183450699E0
1.294287990E0,5.015057087E0,-1.989691925E1,1.537089467E0
1.296732469E0,6.152245998E0,-2.071556282E1,9.481559992E-1
1.299177678E0,7.330112934E0,-2.154168510E1,4.238287210E-1
1.301622053E0,8.570193291E0,-2.242493629E1,-1.363908947E-1
1.304065646E0,9.982557297E0,-2.332044983E1,-6.822535396E-1
1.306510178E0,1.145743275E1,-2.429014015E1,-1.254437327E0
1.308955386E0,1.315484142E1,-2.530499649E1,-1.845763564E0
1.311399761E0,1.496471310E1,-2.643261528E1,-2.439482689E0
1.313843407E0,1.694716644E1,-2.765624428E1,-3.040380239E0
1.316287886E0,1.905644035E1,-2.887000275E1,-3.665206194E0
1.318733094E0,2.133799553E1,-3.009333420E1,-4.287639141E0
1.321177469E0,2.389233398E1,-3.129034424E1,-4.874179840E0
1.323621063E0,2.662882614E1,-3.241556931E1,-5.357829094E0
1.326065542E0,2.948495865E1,-3.351208115E1,-5.769693375E0
1.328510803E0,3.240569687E1,-3.448894882E1,-6.090332031E0
1.330955178E0,3.522833252E1,-3.531955719E1,-6.351448536E0
1.333398824E0,3.781646729E1,-3.593959808E1,-6.449554443E0
1.335843303E0,4.010041809E1,-3.640888977E1,-6.399304867E0
1.338288511E0,4.196532440E1,-3.665086365E1,-6.308377743E0
1.340732886E0,4.348805618E1,-3.689732361E1,-5.915655613E0
1.343176532E0,4.460610199E1,-3.703371429E1,-5.558825970E0
1.345621011E0,4.521417999E1,-3.706243134E1,-5.264508724E0
1.348066219E0,4.510889435E1,-3.702175140E1,-5.049154758E0
1.350510594E0,4.428067780E1,-3.697150421E1,-4.816751957E0
1.352954240E0,4.275555420E1,-3.675854111E1,-4.637290478E0
1.355398719E0,4.062235260E1,-3.638974762E1,-4.572684288E0
1.357843928E0,3.809164429E1,-3.576492310E1,-4.618147850E0
1.360288303E0,3.520201111E1,-3.497499084E1,-4.649254322E0
1.362731949E0,3.210898972E1,-3.404358673E1,-4.603790760E0
1.365176428E0,2.884338379E1,-3.300450134E1,-4.500899315E0
1.367621636E0,2.535046005E1,-3.189363480E1,-4.383351803E0
1.370066011E0,2.164188385E1,-3.073969460E1,-4.201497555E0
1.372509657E0,1.778256035E1,-2.963361359E1,-3.916751623E0
1.374954032E0,1.386341572E1,-2.846053123E1,-3.579064369E0
1.377399344E0,9.941879272E0,-2.726352119E1,-3.227020502E0
1.379843719E0,6.176174164E0,-2.600190544E1,-2.844168901E0
1.382287313E0,2.582453728E0,-2.469213486E1,-2.429911375E0
1.384731844E0,-7.310073376E-1,-2.329891396E1,-1.974975944E0
1.387177053E0,-3.728316784E0,-2.189821625E1,-1.508076429E0
1.389621428E0,-6.270989895E0,-2.046192360E1,-1.048355460E0
1.392065021E0,-8.475975990E0,-1.903729630E1,-5.673980713E-1
1.394509553E0,-1.020688438E1,-1.764646912E1,-2.392822644E-3
1.396954761E0,-1.161685467E1,-1.628166199E1,5.267201066E-1
1.399399136E0,-1.265833092E1,-1.495065498E1,1.103689432E0
1.401842782E0,-1.346979713E1,-1.357867050E1,1.714158297E0
1.404287157E0,-1.398455238E1,-1.221894836E1,2.324926376E0
1.406732469E0,-1.435095406E1,-1.095015430E1,3.021536827E0
1.409176844E0,-1.460459328E1,-9.736394882E0,3.732504129E0
1.411620490E0,-1.478435421E1,-8.584849358E0,4.412364960E0
1.414064865E0,-1.496142292E1,-7.533802032E0,5.133202553E0
1.416510178E0,-1.525125313E1,-6.516254425E0,5.906383514E0
1.418954553E0,-1.575135326E1,-5.525027275E0,6.667600155E0
1.421398199E0,-1.652961922E1,-4.562514782E0,7.575078487E0
1.423842678E0,-1.757109451E1,-3.552444220E0,8.542376518E0
1.426287886E0,-1.883271027E1,-2.439183474E0,9.638887405E0
1.428732261E0,-2.031955147E1,-1.172483087E0,1.088375378E1
1.431175907E0,-2.195713806E1,2.614158690E-1,1.227936745E1
1.433620282E0,-2.351785660E1,1.863111496E0,1.376381493E1
1.436065594E0,-2.505733871E1,3.527020693E0,1.526979733E1
1.438509969E0,-2.654417992E1,5.248357296E0,1.690738487E1
1.440953563E0,-2.797568512E1,7.039085865E0,1.847289085E1
1.443398042E0,-2.938834953E1,8.868398666E0,2.001476479E1
1.445843303E0,-3.063560677E1,1.069741249E1,2.141067886E1
1.448287678E0,-3.175365448E1,1.249532032E1,2.262443733E1
1.450731271E0,-3.269462967E1,1.421904945E1,2.369462776E1
1.453175751E0,-3.350131226E1,1.590688705E1,2.464248466E1
1.455621011E0,-3.408546066E1,1.752293968E1,2.549732018E1
1.458065386E0,-3.449732590E1,1.897628021E1,2.631596375E1
1.460508980E0,-3.473421478E1,2.034317970E1,2.711576462E1
1.462953511E0,-3.482274628E1,2.155454636E1,2.781955338E1
1.465398719E0,-3.476292801E1,2.260798645E1,2.835584641E1
1.467843094E0,-3.462892914E1,2.347717857E1,2.872224617E1
1.470286688E0,-3.449253845E1,2.424318123E1,2.894717216E1
1.472731167E0,-3.440639496E1,2.494696999E1,2.896631432E1
1.475176428E0,-3.447339630E1,2.559811783E1,2.884667397E1
1.477620803E0,-3.469832230E1,2.622055054E1,2.859512711E1
1.480064396E0,-3.512932968E1,2.678794861E1,2.834388161E1
1.482508876E0,-3.565126419E1,2.731227493E1,2.802533722E1
1.484954136E0,-3.617559052E1,2.773371124E1,2.764009285E1
1.487398511E0,-3.664966965E1,2.810729027E1,2.718994331E1
1.489842105E0,-3.697748566E1,2.836092949E1,2.666322327E1
1.492286584E0,-3.722663879E1,2.849044228E1,2.606711006E1
1.494731844E0,-3.731756592E1,2.848087120E1,2.533460808E1
1.497176219E0,-3.735824203E1,2.827239609E1,2.450370026E1
1.499619865E0,-3.727688599E1,2.792782974E1,2.356032944E1
1.502064240E0,-3.706602097E1,2.738196754E1,2.256940269E1
1.504509553E0,-3.668795395E1,2.663241577E1,2.153271103E1
1.506953928E0,-3.610141373E1,2.567498779E1,2.055823517E1
1.509397521E0,-3.535186005E1,2.454228401E1,1.963879204E1
1.511842001E0,-3.446860886E1,2.324956131E1,1.878904152E1
1.514287261E0,-3.345584869E1,2.178694916E1,1.802543259E1
1.516731636E0,-3.236412430E1,2.020678902E1,1.729023743E1
1.519175230E0,-3.113121986E1,1.855962944E1,1.658884048E1
1.521619709E0,-2.983131981E1,1.688136292E1,1.583480263E1
1.524064969E0,-2.850479889E1,1.518874073E1,1.501825237E1
1.526509344E0,-2.711875725E1,1.349851036E1,1.422353554E1
1.528952938E0,-2.573480797E1,1.180588818E1,1.337587833E1
1.531397417E0,-2.432244492E1,1.014437199E1,1.258116245E1
1.533842678E0,-2.279971123E1,8.525926590E0,1.180050373E1
1.536287053E0,-2.117408752E1,6.931408882E0,1.111107159E1
1.538730646E0,-1.956521416E1,5.394319534E0,1.055324554E1
1.541175126E0,-1.803799438E1,3.881457329E0,1.010070229E1
1.543620386E0,-1.665643883E1,2.452044964E0,9.818349838E0
1.546064761E0,-1.546421432E1,1.087537885E0,9.626923561E0
1.548508355E0,-1.442991734E1,-2.222333997E-1,9.471091270E0
1.550952834E0,-1.350090313E1,-1.383350611E0,9.341878891E0
1.553398094E0,-1.263200951E1,-2.494218588E0,9.169595718E0
1.555842469E0,-1.182263756E1,-3.562015533E0,8.999405861E0
1.558286063E0,-1.101117134E1,-4.529015064E0,8.683553696E0
1.560730542E0,-1.032173920E1,-5.412564754E0,8.259724617E0
1.563175803E0,-9.704092026E0,-6.245566368E0,7.733004570E0
1.565620178E0,-9.206086159E0,-7.038188934E0,7.132106781E0
1.568063771E0,-8.818149567E0,-7.818548203E0,6.473781586E0
1.570508251E0,-8.557332039E0,-8.623134613E0,5.827420235E0
1.572953511E0,-8.423034668E0,-9.458528519E0,5.142774105E0
1.575397886E0,-8.370392799E0,-1.038275623E1,4.462614059E0
1.577841480E0,-8.265108109E0,-1.143380356E1,3.876073599E0
1.580285959E0,-8.033004761E0,-1.259492111E1,3.275176048E0
1.582731219E0,-7.625925541E0,-1.385892963E1,2.741277456E0
1.585175594E0,-6.922136784E0,-1.519950867E1,2.228914261E0
1.587619188E0,-5.928517342E0,-1.654756546E1,1.814955950E0
1.590063667E0,-4.585545540E0,-1.789292908E1,1.517946839E0
1.592508928E0,-3.043670416E0,-1.921675873E1,1.388734460E0
1.594953303E0,-1.231406331E0,-2.049781609E1,1.455733418E0
1.597396896E0,7.199404836E-1,-2.173550415E1,1.690230131E0
1.599841376E0,2.872284412E0,-2.294687080E1,2.008774519E0
1.602286636E0,5.158626556E0,-2.413191605E1,2.308176517E0
1.604731011E0,7.468896866E0,-2.527149773E1,2.580958366E0
1.607174605E0,9.798309326E0,-2.643740082E1,2.707777977E0
1.609619084E0,1.209661579E1,-2.761048126E1,2.652743101E0
1.612064344E0,1.442124271E1,-2.882693291E1,2.394318104E0
1.614508719E0,1.678923988E1,-3.002154922E1,1.948953986E0
1.616952313E0,1.931247139E1,-3.124727249E1,1.371984720E0
1.619396792E0,2.191735840E1,-3.245624542E1,6.299105883E-1
1.621842053E0,2.460569382E1,-3.360779190E1,-2.057827413E-1
1.624286428E0,2.728475761E1,-3.461337662E1,-1.017248750E0
1.626730021E0,2.996382332E1,-3.553999710E1,-1.802692771E0
1.629174501E0,3.267399216E1,-3.636342621E1,-2.465803623E0
1.631619761E0,3.529772186E1,-3.706960678E1,-2.906382322E0
1.634064136E0,3.775425339E1,-3.766572189E1,-3.181556702E0
1.636507730E0,3.991138458E1,-3.818286896E1,-3.231806040E0
1.638952209E0,4.180739594E1,-3.875265884E1,-2.968595505E0
1.641397469E0,4.333491516E1,-3.927220154E1,-2.513660192E0
1.643841844E0,4.443621063E1,-3.969124603E1,-1.900798440E0
1.646285438E0,4.507539368E1,-3.988745499E1,-1.218544960E0
1.648729917E0,4.525246429E1,-3.995445633E1,-5.985047817E-1
1.651175178E0,4.492225266E1,-3.986592102E1,-8.135596663E-2
1.653619553E0,4.403152466E1,-3.960271072E1,3.281157911E-1
1.656063146E0,4.267658997E1,-3.921477509E1,5.626124144E-1
1.658507626E0,4.085445404E1,-3.865694809E1,5.865406394E-1
1.660952886E0,3.857050705E1,-3.798665619E1,4.980062246E-1
1.663397261E0,3.583640671E1,-3.719672775E1,3.041875660E-1
1.665840855E0,3.272902679E1,-3.633232117E1,1.438684613E-1
1.668285334E0,2.934617424E1,-3.536502075E1,2.632104978E-2
1.670730594E0,2.572374153E1,-3.431875992E1,-1.220339537E-1
1.673174969E0,2.201307106E1,-3.319353485E1,-3.158525825E-1
1.675618563E0,1.828295898E1,-3.196781158E1,-5.410770178E-1
1.678063042E0,1.455793285E1,-3.071098137E1,-8.353942037E-1
1.680508303E0,1.089721298E1,-2.932972527E1,-1.038784146E0
1.682952678E0,7.375576496E0,-2.793620491E1,-1.146760225E0
1.685396271E0,4.071686745E0,-2.653819847E1,-1.156331539E0
1.687840751E0,1.016650558E0,-2.514946365E1,-1.043569803E0
1.690286011E0,-1.721935034E0,-2.374906349E1,-8.377870321E-1
1.692730386E0,-4.085146427E0,-2.233400917E1,-4.881358147E-1
1.695173980E0,-6.088836193E0,-2.093600082E1,-7.657032460E-2
1.697618459E0,-7.802994728E0,-1.955923080E1,4.286143482E-1
1.700063719E0,-9.246764183E0,-1.818515205E1,9.529415965E-1
1.702508042E0,-1.048445129E1,-1.681795311E1,1.601695657E0
1.704951688E0,-1.150917816E1,-1.544148254E1,2.260020971E0
1.707396167E0,-1.229193020E1,-1.414606857E1,2.899502754E0
1.709841428E0,-1.285932827E1,-1.289880943E1,3.435794115E0
1.712285803E0,-1.330469227E1,-1.166590786E1,3.923929930E0
1.714729396E0,-1.369023609E1,-1.048086262E1,4.383651257E0
1.717173876E0,-1.414756393E1,-9.331708908E0,4.833800793E0
1.719619136E0,-1.465274811E1,-8.165806770E0,5.408377171E0
1.722063511E0,-1.527996731E1,-7.011867523E0,6.109773636E0
1.724507105E0,-1.602922058E1,-5.869893074E0,6.967002392E0
1.726951584E0,-1.689362717E1,-4.694418907E0,7.939086437E0
1.729396844E0,-1.785105515E1,-3.509074450E0,8.997013092E0
1.731841167E0,-1.883510399E1,-2.206780672E0,9.961918831E0
1.734284813E0,-1.991247177E1,-8.494520187E-1,1.074497032E1
1.736729292E0,-2.112623024E1,4.938187599E-1,1.136501026E1
1.739174553E0,-2.243809700E1,1.860718727E0,1.177896881E1
1.741618928E0,-2.395125771E1,3.299702406E0,1.216929817E1
1.744062521E0,-2.565584373E1,4.834099770E0,1.252373505E1
1.746507001E0,-2.743939400E1,6.454938412E0,1.295952702E1
1.748952209E0,-2.920858765E1,8.102097511E0,1.347637749E1
1.751396584E0,-3.093022346E1,9.830613136E0,1.405813217E1
1.753840230E0,-3.258426285E1,1.157827091E1,1.469761372E1
1.756284709E0,-3.400170898E1,1.329482174E1,1.533201122E1
1.758729917E0,-3.511497116E1,1.493001652E1,1.592094421E1
1.761174292E0,-3.601766205E1,1.645992851E1,1.632563019E1
1.763617938E0,-3.664488220E1,1.787019730E1,1.658644867E1
1.766062417E0,-3.703969955E1,1.911745644E1,1.669651794E1
1.768507626E0,-3.729124451E1,2.023550224E1,1.673001862E1
1.770952001E0,-3.744916916E1,2.122194481E1,1.669891167E1
1.773395646E0,-3.764538193E1,2.213630104E1,1.670130348E1
1.775840126E0,-3.793042755E1,2.299113655E1,1.680898094E1
1.778285334E0,-3.828964996E1,2.379542542E1,1.700549126E1
1.780729709E0,-3.872275162E1,2.455933380E1,1.732373619E1
1.783173355E0,-3.920879364E1,2.527508736E1,1.778585052E1
1.785617834E0,-3.965894318E1,2.590948296E1,1.831257057E1
1.788063094E0,-4.006841278E1,2.648166656E1,1.877468491E1
1.790507417E0,-4.059752655E1,2.702992249E1,1.919851303E1
1.792951063E0,-4.115774536E1,2.752075005E1,1.953590202E1
1.795395542E0,-4.173471451E1,2.798286438E1,1.962682915E1
1.797840751E0,-4.227818680E1,2.829871750E1,1.953590202E1
1.800285126E0,-4.276901245E1,2.856461906E1,1.927029800E1
1.802728771E0,-4.309204483E1,2.861486816E1,1.887757683E1
1.805173251E0,-4.325714874E1,2.845664406E1,1.834846306E1
1.807618459E0,-4.316143417E1,2.806422043E1,1.772363663E1
1.810062834E0,-4.282883453E1,2.743221664E1,1.697677803E1
1.812506480E0,-4.220400620E1,2.658216667E1,1.616501236E1
1.814950959E0,-4.141138458E1,2.557419014E1,1.525783348E1
1.817396167E0,-4.053770447E1,2.440110779E1,1.432403469E1
1.819840542E0,-3.961826324E1,2.313231468E1,1.338066387E1
1.822284188E0,-3.862703705E1,2.176541328E1,1.248066425E1
1.824728667E0,-3.751856232E1,2.032164383E1,1.165693474E1
1.827173876E0,-3.632155228E1,1.879173279E1,1.096271706E1
1.829618251E0,-3.499054337E1,1.720678711E1,1.046231747E1
1.832061896E0,-3.358745193E1,1.553091431E1,1.016082191E1
1.834506376E0,-3.208655548E1,1.377607822E1,1.003848934E1
1.836951584E0,-3.050639534E1,1.199731350E1,1.009352398E1
1.839395959E0,-2.894777107E1,1.020179939E1,1.027567768E1
1.841839605E0,-2.751596451E1,8.458927155E0,1.047428226E1
1.844284084E0,-2.620649338E1,6.852446079E0,1.069920731E1
1.846729292E0,-2.510041046E1,5.360819817E0,1.095075321E1
1.849173667E0,-2.412593269E1,3.998705626E0,1.115892887E1
1.851617313E0,-2.322832489E1,2.753839731E0,1.131476116E1
1.854061792E0,-2.239981079E1,1.544866085E0,1.140808105E1
1.856507001E0,-2.146631050E1,4.435695112E-1,1.148465157E1
1.858951376E0,-2.051576233E1,-6.840481758E-1,1.142243767E1
1.861395021E0,-1.949103546E1,-1.799701691E0,1.123549843E1
1.863839501E0,-1.846631050E1,-2.910569668E0,1.091964626E1
1.866284709E0,-1.745115471E1,-4.074079514E0,1.051496029E1
1.868729084E0,-1.642912102E1,-5.292923450E0,1.001456070E1
1.871172730E0,-1.546660709E1,-6.492326260E0,9.428020477E0
1.873617209E0,-1.450887966E1,-7.749155998E0,8.815158844E0
1.876062417E0,-1.354666615E1,-9.029914856E0,8.262117386E0
1.878506792E0,-1.253629684E1,-1.034686375E1,7.766504288E0
1.880950438E0,-1.147328568E1,-1.163001537E1,7.445865631E0
1.883394917E0,-1.031934643E1,-1.289880943E1,7.182356358E0
1.885840126E0,-9.074481010E0,-1.416042519E1,6.981359005E0
1.888284501E0,-7.822137356E0,-1.545105362E1,6.837790012E0
1.890728146E0,-6.589235306E0,-1.683709717E1,6.804290295E0
1.893172626E0,-5.279763222E0,-1.824258041E1,6.859325409E0
1.895617834E0,-3.895814419E0,-1.966212273E1,6.938288212E0
1.898062209E0,-2.330310106E0,-2.108914185E1,6.995716095E0
1.900505855E0,-6.520441771E-1,-2.256850433E1,7.050751209E0
1.902950334E0,1.263410330E0,-2.399313164E1,7.093822002E0
1.905395542E0,3.307778120E0,-2.536242485E1,7.074679375E0
1.907839917E0,5.496014595E0,-2.669612312E1,7.031608582E0
1.910283563E0,7.779963493E0,-2.792902565E1,6.959823608E0
1.912728042E0,1.014317513E1,-2.912364197E1,6.883253574E0
1.915173251E0,1.253719425E1,-3.026083183E1,6.883253574E0
1.917617626E0,1.498624802E1,-3.137409210E1,6.962216377E0
1.920061271E0,1.744277954E1,-3.244906616E1,7.127321243E0
1.922505751E0,1.987986946E1,-3.347618866E1,7.342675209E0
1.924950959E0,2.220449638E1,-3.440280914E1,7.594220638E0
1.927395334E0,2.451476669E1,-3.526452255E1,7.895716667E0
1.929838980E0,2.678435898E1,-3.600420380E1,8.142476082E0
1.932283459E0,2.912095070E1,-3.668914795E1,8.384151459E0
1.934728667E0,3.150330544E1,-3.724937057E1,8.535198212E0
1.937173042E0,3.385186005E1,-3.768964767E1,8.671588898E0
1.939616688E0,3.612384415E1,-3.806562042E1,8.827122688E0
1.942061167E0,3.827379608E1,-3.832195282E1,9.028120041E0
1.944506376E0,4.020091629E1,-3.842484283E1,9.195916176E0
1.946950751E0,4.185046768E1,-3.834587860E1,9.322735786E0
1.949394396E0,4.321288300E1,-3.821876144E1,9.475876808E0
1.951838876E0,4.440031815E1,-3.817329788E1,9.564411163E0
1.954284084E0,4.532185364E1,-3.818047714E1,9.413662910E0
1.956728459E0,4.582225418E1,-3.818286896E1,8.992227554E0
1.959172105E0,4.578636169E1,-3.811108398E1,8.365009308E0
1.961616584E0,4.514239502E1,-3.788615799E1,7.488936901E0
1.964061792E0,4.376592255E1,-3.737619019E1,6.354140759E0
1.966506167E0,4.177389908E1,-3.661228180E1,5.058726311E0
1.968949813E0,3.921208191E1,-3.565006638E1,3.703790426E0
1.971394292E0,3.629852295E1,-3.451048279E1,2.296212435E0
1.973839501E0,3.310499954E1,-3.329193878E1,8.691928387E-1
1.976283876E0,2.961417198E1,-3.198695374E1,-5.291129351E-1
1.978727521E0,2.593460846E1,-3.065355301E1,-1.776371717E0
1.981172001E0,2.214946175E1,-2.929353333E1,-2.870489836E0
1.983617209E0,1.837388611E1,-2.795056152E1,-3.698705673E0
1.986061584E0,1.473978710E1,-2.663391113E1,-4.333102703E0
1.988505230E0,1.121815109E1,-2.534806824E1,-4.749752998E0
1.990949709E0,7.840083599E0,-2.413430786E1,-4.869394302E0
1.993394917E0,4.639084816E0,-2.291576385E1,-4.807180882E0
1.995839292E0,1.636989832E0,-2.167807579E1,-4.572684288E0
1.998282938E0,-9.750752449E-1,-2.044756699E1,-4.244568348E0
2.000727417E0,-3.187239647E0,-1.924337959E1,-3.796811342E0
2.003172626E0,-4.968397141E0,-1.803649902E1,-3.241377354E0
2.005617001E0,-6.476772785E0,-1.679402542E1,-2.609373093E0
2.008060646E0,-7.685746193E0,-1.552044582E1,-1.951047778E0
2.010505126E0,-8.624331474E0,-1.432822227E1,-1.216152072E0
2.012950334E0,-9.366405487E0,-1.318146133E1,-3.469592929E-1
2.015394709E0,-9.969695091E0,-1.209452248E1,6.442674994E-1
2.017838355E0,-1.047248745E1,-1.113440228E1,1.726122379E0
2.020282834E0,-1.093220806E1,-1.027507973E1,2.815454960E0
2.022728042E0,-1.143739319E1,-9.460921288E0,3.833002806E0
2.025172417E0,-1.200239849E1,-8.680562019E0,4.735694885E0
2.027616063E0,-1.262483120E1,-7.840083599E0,5.394020557E0
2.030060542E0,-1.331426334E1,-6.889833927E0,5.920740604E0
2.032505751E0,-1.411167145E1,-5.903392792E0,6.260820389E0
2.034950126E0,-1.509302807E1,-4.835595608E0,6.543173313E0
2.037393771E0,-1.636451340E1,-3.691227913E0,6.823432922E0
2.039838251E0,-1.783669853E1,-2.506182671E0,7.146463871E0
2.042283459E0,-1.951017761E1,-1.215553880E0,7.620542049E0
2.044727834E0,-2.132244301E1,1.776670814E-1,8.221439362E0
2.047171480E0,-2.320439720E1,1.666900039E0,8.944371223E0
2.049615959E0,-2.502383995E1,3.282952785E0,9.808777809E0
2.052061167E0,-2.679542542E1,4.982754230E0,1.082154083E1
2.054505542E0,-2.856701279E1,6.785446644E0,1.206879902E1
2.056949188E0,-3.025724220E1,8.669495583E0,1.341416359E1
2.059393667E0,-3.179193878E1,1.055623627E1,1.495125294E1
2.061838876E0,-3.323571014E1,1.245224857E1,1.657687759E1
2.064283251E0,-3.457867813E1,1.428844166E1,1.826950073E1
2.066726896E0,-3.583311844E1,1.610549164E1,1.996212196E1
2.069171376E0,-3.706123352E1,1.785584068E1,2.153031921E1
2.071616584E0,-3.825854111E1,1.953649902E1,2.289721870E1
2.074060959E0,-3.947230148E1,2.117887306E1,2.405115700E1
2.076504605E0,-4.068845367E1,2.272523499E1,2.491556549E1
2.078949084E0,-4.191178513E1,2.414746857E1,2.544228554E1
2.081394292E0,-4.300350952E1,2.543779755E1,2.566481781E1
2.083838667E0,-4.397080612E1,2.655584526E1,2.560260391E1
2.086282313E0,-4.475595474E1,2.755425072E1,2.530350113E1
2.088726792E0,-4.546691895E1,2.838725090E1,2.481985283E1
2.091172001E0,-4.600321198E1,2.915833855E1,2.432663155E1
2.093616376E0,-4.641028976E1,2.979273605E1,2.375923347E1
2.096060021E0,-4.664508820E1,3.025245667E1,2.324447823E1
2.098504501E0,-4.668576431E1,3.053480911E1,2.274168587E1
2.100949709E0,-4.653232574E1,3.061855888E1,2.227717972E1
2.103394084E0,-4.619015121E1,3.044866753E1,2.184617233E1
2.105837730E0,-4.567539597E1,3.006312370E1,2.146571350E1
2.108282209E0,-4.499074936E1,2.940719223E1,2.103470612E1
2.110727417E0,-4.408805466E1,2.846621513E1,2.065155411E1
2.113171792E0,-4.301068878E1,2.730031204E1,2.024686813E1
2.115615438E0,-4.177539444E1,2.591666222E1,1.981616020E1
2.118059917E0,-4.043690872E1,2.431975174E1,1.940908241E1
2.120505126E0,-3.902933121E1,2.259602165E1,1.897328949E1
2.122949501E0,-3.763581085E1,2.080290031E1,1.849681854E1
2.125393146E0,-3.624258804E1,1.900260162E1,1.800359726E1
2.127837626E0,-3.481796265E1,1.717568016E1,1.750349808E1
2.130282834E0,-3.343431091E1,1.538016701E1,1.706531143E1
2.132727209E0,-3.204109192E1,1.359900951E1,1.661277008E1
2.135170855E0,-3.063800049E1,1.185853004E1,1.619851112E1
2.137615334E0,-2.922294426E1,1.012762165E1,1.586590958E1
2.140060542E0,-2.778425980E1,8.475676537E0,1.552343655E1
2.142504917E0,-2.639791870E1,6.852446079E0,1.517378616E1
2.144948563E0,-2.505494690E1,5.312963486E0,1.477418423E1
2.147393042E0,-2.372872543E1,3.814458370E0,1.430249882E1
2.149838251E0,-2.247159576E1,2.349153519E0,1.381884956E1
2.152282626E0,-2.136312103E1,9.436694384E-1,1.326341629E1
2.154726271E0,-2.028605080E1,-4.112663865E-1,1.267687511E1
2.157170751E0,-1.928285980E1,-1.747059584E0,1.205444241E1
2.159615959E0,-1.830120468E1,-3.037688255E0,1.137936687E1
2.162060334E0,-1.735065651E1,-4.332803726E0,1.066092205E1
2.164503980E0,-1.637408447E1,-5.704489231E0,1.007198906E1
2.166948459E0,-1.545464325E1,-7.081259727E0,9.511769295E0
2.169393667E0,-1.455434418E1,-8.507980347E0,9.004191399E0
2.171838042E0,-1.372134209E1,-1.005464077E1,8.542376518E0
2.174281688E0,-1.289043427E1,-1.168744278E1,8.113762856E0
2.176726167E0,-1.197368431E1,-1.337049484E1,7.668398380E0
2.179171376E0,-1.094895840E1,-1.503679657E1,7.187141895E0
2.181615751E0,-9.689735413E0,-1.669113350E1,6.631708145E0
2.184059396E0,-8.262715340E0,-1.822822380E1,5.901597977E0
2.186503876E0,-6.668198586E0,-1.965015793E1,5.128417015E0
2.188949084E0,-4.975575447E0,-2.089981079E1,4.228117466E0
2.191393459E0,-3.280559778E0,-2.199632072E1,3.248854876E0
2.193837105E0,-1.592722535E0,-2.297079849E1,2.308176517E0
2.196281584E0,1.525424421E-1,-2.387588310E1,1.436590910E0
2.198726792E0,1.931306958E0,-2.473281288E1,7.232306600E-1
2.201171167E0,3.803391695E0,-2.557089996E1,2.180459648E-1
2.203614813E0,5.769095421E0,-2.636800766E1,-9.571290575E-3
2.206059292E0,7.832904816E0,-2.717498779E1,1.196411345E-2
2.208504501E0,9.963414192E0,-2.796731186E1,1.989033818E-1
2.210948876E0,1.210379410E1,-2.880539703E1,5.386841893E-1
2.213392521E0,1.427288818E1,-2.965036201E1,9.792626500E-1
2.215837001E0,1.644437408E1,-3.047887802E1,1.467697620E0
2.218282209E0,1.863261032E1,-3.132862854E1,2.006381750E0
2.220726584E0,2.089023972E1,-3.212813187E1,2.533101797E0
2.223170230E0,2.330100822E1,-3.296860886E1,3.098107100E0
2.225614605E0,2.593221474E1,-3.390001678E1,3.699004650E0
2.228059917E0,2.872613525E1,-3.483112335E1,4.297509670E0
2.230504292E0,3.168276596E1,-3.573381424E1,4.955834866E0
2.232947938E0,3.476173019E1,-3.662932968E1,5.573482037E0
2.235392313E0,3.787150192E1,-3.742404556E1,6.124130249E0
2.237837626E0,4.082813644E1,-3.809912109E1,6.646064758E0
2.240282001E0,4.358616257E1,-3.871676636E1,7.069893837E0
2.242725594E0,4.593711090E1,-3.920280838E1,7.244569778E0
2.245170074E0,4.779035187E1,-3.962185287E1,7.175177574E0
2.247615334E0,4.915007401E1,-3.991616821E1,6.866503716E0
2.250059709E0,4.990201569E1,-4.012703705E1,6.270391941E0
2.252503303E0,5.005276489E1,-4.016771698E1,5.427519798E0
2.254947782E0,4.957868576E1,-4.007918167E1,4.316651821E0
2.257393042E0,4.854678345E1,-3.982524109E1,2.983251572E0
2.259837417E0,4.701687241E1,-3.938227081E1,1.501197100E0
2.262281063E0,4.496293259E1,-3.881008911E1,-4.307080805E-2
2.264725438E0,4.240111542E1,-3.803929901E1,-1.555932879E0
2.267170751E0,3.930091476E1,-3.714378738E1,-2.961417198E0
2.269615126E0,3.560190964E1,-3.609064484E1,-4.179962158E0
2.272058719E0,3.152244759E1,-3.489812088E1,-5.053940296E0
2.274503199E0,2.712922478E1,-3.364607620E1,-5.544469357E0
2.276948459E0,2.256371880E1,-3.225764084E1,-5.683551788E0
2.279392834E0,1.791925049E1,-3.081387329E1,-5.518147945E0
2.281836428E0,1.326730442E1,-2.929113960E1,-5.065904617E0
2.284280907E0,8.687441826E0,-2.767778015E1,-4.520041943E0
2.286726167E0,4.299005032E0,-2.595614433E1,-3.909573078E0
2.289170542E0,2.362912297E-1,-2.416780853E1,-3.260519981E0
2.291614136E0,-3.381058455E0,-2.237229347E1,-2.618944407E0
2.294058615E0,-6.419344902E0,-2.054327965E1,-2.037189484E0
2.296503876E0,-8.868398666E0,-1.876451492E1,-1.469791293E0
2.298948251E0,-1.070698357E1,-1.711256981E1,-9.167501926E-1
2.301391844E0,-1.203829098E1,-1.562333679E1,-3.804588020E-1
2.303836324E0,-1.282582855E1,-1.424925900E1,8.165507019E-2
2.306281584E0,-1.328554916E1,-1.299930859E1,5.602195859E-1
2.308725959E0,-1.339083385E1,-1.190758324E1,1.043868899E0
2.311169553E0,-1.329033470E1,-1.089272690E1,1.572981834E0
2.313614032E0,-1.316830158E1,-9.973284721E0,2.116451740E0
2.316059292E0,-1.312523079E1,-9.108877182E0,2.674278498E0
2.318503667E0,-1.324487114E1,-8.280661583E0,3.236890793E0
2.320947261E0,-1.357298756E1,-7.469195843E0,3.885644913E0
2.323391740E0,-1.409252930E1,-6.645466805E0,4.565804482E0
2.325837001E0,-1.473171139E1,-5.769394398E0,5.257629395E0
2.328281376E0,-1.555514145E1,-4.816452980E0,5.990132332E0
2.330724969E0,-1.648654747E1,-3.748655796E0,6.641279221E0
2.333169449E0,-1.763570023E1,-2.577967405E0,7.237390995E0
2.335614709E0,-1.891885185E1,-1.313958764E0,7.828717709E0
2.338059084E0,-2.032672882E1,3.409772366E-2,8.350651741E0
2.340502678E0,-2.187069893E1,1.499103427E0,8.877371788E0
2.342947157E0,-2.350589371E1,3.033800125E0,9.511769295E0
2.345392417E0,-2.515305328E1,4.683351994E0,1.028524876E1
2.347836792E0,-2.682414055E1,6.368796349E0,1.122114182E1
2.350280386E0,-2.840908623E1,8.059026718E0,1.228176022E1
2.352724865E0,-2.986721230E1,9.718150139E0,1.347159195E1
2.355170074E0,-3.116711235E1,1.137488079E1,1.476700592E1
2.357614553E0,-3.236890793E1,1.302682590E1,1.603101349E1
2.360058094E0,-3.354438400E1,1.469312763E1,1.723759460E1
2.362502574E0,-3.469353485E1,1.634267998E1,1.831257057E1
2.364947834E0,-3.584268951E1,1.794437599E1,1.928226280E1
2.367392209E0,-3.698705673E1,1.945005798E1,2.010569191E1
2.369835803E0,-3.809553146E1,2.087707901E1,2.082653046E1
2.372280282E0,-3.910111618E1,2.222483635E1,2.147767639E1
2.374725542E0,-4.005644989E1,2.347717857E1,2.212403870E1
2.377169865E0,-4.087509537E1,2.466222572E1,2.274647141E1
2.379613511E0,-4.167489624E1,2.575634384E1,2.333540535E1
2.382057990E0,-4.236193466E1,2.672812843E1,2.382383919E1
2.384503251E0,-4.293890381E1,2.755425072E1,2.422613335E1
2.386947574E0,-4.331966019E1,2.823410988E1,2.444866562E1
2.389391219E0,-4.355415726E1,2.873690224E1,2.451805687E1
2.391835699E0,-4.360440826E1,2.905305481E1,2.450130653E1
2.394280959E0,-4.350630188E1,2.919183731E1,2.449652100E1
2.396725334E0,-4.328616333E1,2.913680267E1,2.450848579E1
2.399168928E0,-4.294847488E1,2.892354202E1,2.444627190E1
2.401613407E0,-4.255575180E1,2.853590584E1,2.440320206E1
2.404058615E0,-4.209842300E1,2.798525810E1,2.433381081E1
2.406503094E0,-4.157170486E1,2.725006294E1,2.419981194E1
2.408946636E0,-4.095645142E1,2.634766960E1,2.395065880E1
2.411391115E0,-4.029812622E1,2.526551437E1,2.359622192E1
2.413836324E0,-3.957758713E1,2.403500557E1,2.301686096E1
2.416280699E0,-3.874667740E1,2.264627266E1,2.231067848E1
2.418724344E0,-3.779882050E1,2.114986038E1,2.145853424E1
2.421168824E0,-3.676931000E1,1.954846382E1,2.056302071E1
2.423614032E0,-3.565843964E1,1.788216209E1,1.962204361E1
2.426058407E0,-3.446860886E1,1.608156204E1,1.865743637E1
2.428502053E0,-3.321895981E1,1.426451302E1,1.771885109E1
2.430946532E0,-3.185175896E1,1.244985580E1,1.685444450E1
2.433391740E0,-3.040111160E1,1.067109203E1,1.604776382E1
2.435836115E0,-2.883530807E1,8.949754715E0,1.529133320E1
2.438279761E0,-2.717857742E1,7.249953270E0,1.466890049E1
2.440724240E0,-2.554098892E1,5.605186939E0,1.409671593E1
2.443169449E0,-2.391057968E1,4.032205105E0,1.361306667E1
2.445613824E0,-2.232324028E1,2.535793781E0,1.313659668E1
2.448057469E0,-2.085823441E1,1.058824062E0,1.265773296E1
2.450501949E0,-1.947189331E1,-3.993022740E-1,1.226501083E1
2.452947157E0,-1.817677879E1,-1.864607096E0,1.191565895E1
2.455391636E0,-1.697737503E1,-3.322434187E0,1.161864948E1
2.457835178E0,-1.585693645E1,-4.780560493E0,1.135065365E1
2.460279657E0,-1.480349636E1,-6.228816509E0,1.107278633E1
2.462724865E0,-1.375723457E1,-7.658228874E0,1.069681454E1
2.465169240E0,-1.276361465E1,-9.133105278E0,1.021825027E1
2.467612886E0,-1.178195953E1,-1.058853912E1,9.650852203E0
2.470057365E0,-1.074078274E1,-1.207059383E1,9.090632439E0
2.472502574E0,-9.579366684E0,-1.358824158E1,8.410472870E0
2.474946949E0,-8.238787651E0,-1.506072521E1,7.608577728E0
2.477390594E0,-6.644270420E0,-1.648295784E1,6.751348972E0
2.479835074E0,-4.891826630E0,-1.783310890E1,5.810670853E0
2.482280282E0,-3.069991350E0,-1.912822342E1,4.769194603E0
2.484724657E0,-1.185942769E0,-2.031566238E1,3.809074640E0
2.487168303E0,6.481558084E-1,-2.143131638E1,2.796312332E0
2.489612782E0,2.527418852E0,-2.249911308E1,1.889133453E0
2.492057990E0,4.438087940E0,-2.348555374E1,1.082154036E0
2.494502365E0,6.367599964E0,-2.433321190E1,4.070789516E-1
2.496946011E0,8.330612183E0,-2.503221512E1,-8.614161611E-2
2.499390490E0,1.026042366E1,-2.558525658E1,-2.392822653E-1
2.501835751E0,1.216361523E1,-2.602822685E1,-1.124626622E-1
2.504280074E0,1.411974716E1,-2.638475800E1,3.616153300E-1
2.506723719E0,1.606361580E1,-2.675355148E1,1.094118118E0
2.509168199E0,1.798146439E1,-2.713670158E1,2.027917147E0
2.511613407E0,1.978894234E1,-2.754109001E1,3.133999348E0
2.514057782E0,2.155813599E1,-2.797688293E1,4.256831646E0
2.516501428E0,2.337518501E1,-2.846292496E1,5.271986485E0
2.518945907E0,2.515634346E1,-2.898964500E1,6.181558132E0
2.521391115E0,2.696172714E1,-2.948764992E1,6.871289253E0
2.523835490E0,2.876920509E1,-2.994258690E1,7.301997185E0
2.526279136E0,3.051925659E1,-3.037568665E1,7.457829952E0
2.528723615E0,3.219991684E1,-3.076362419E1,7.417151928E0
2.531168824E0,3.374657440E1,-3.112045288E1,7.191927433E0
2.533613199E0,3.518286896E1,-3.142194939E1,6.725028038E0
2.536056844E0,3.644717407E1,-3.161606598E1,6.183950901E0
2.538501324E0,3.751945877E1,-3.176442146E1,5.475376606E0
2.540946532E0,3.833122253E1,-3.180749321E1,4.675874710E0
2.543391011E0,3.879094696E1,-3.179552841E1,3.813860178E0
2.545834553E0,3.890819168E1,-3.169503021E1,2.870789051E0
2.548279032E0,3.873830414E1,-3.156073189E1,1.951346874E0
2.550724240E0,3.825226212E1,-3.137648582E1,9.936196208E-1
2.553168615E0,3.746681595E1,-3.105823898E1,-5.982056633E-2
2.555612261E0,3.632962799E1,-3.063919640E1,-1.053141117E0
2.558056740E0,3.492444229E1,-3.011726189E1,-1.972583175E0
2.560501949E0,3.325096130E1,-2.949961472E1,-2.822633505E0
2.562946428E0,3.125415230E1,-2.887000275E1,-3.406781197E0
2.565389969E0,2.897020340E1,-2.824039268E1,-3.727419376E0
2.567834449E0,2.645654297E1,-2.752673340E1,-3.784847260E0
2.570279657E0,2.380380058E1,-2.676790810E1,-3.619742393E0
2.572724032E0,2.102184486E1,-2.604497719E1,-3.145664454E0
2.575167678E0,1.803649902E1,-2.521885490E1,-2.468196630E0
2.577612157E0,1.505564022E1,-2.432364082E1,-1.630110383E0
2.580057365E0,1.221147156E1,-2.336112785E1,-7.636095285E-1
2.582501844E0,9.515956879E0,-2.231007957E1,6.490531564E-2
2.584945386E0,7.064210415E0,-2.125185394E1,8.452646136E-1
2.587389865E0,4.873581409E0,-2.019362831E1,1.537089467E0
2.589835074E0,2.860320330E0,-1.917129517E1,2.140379906E0
2.592279553E0,1.042971611E0,-1.816122437E1,2.741277456E0
2.594723094E0,-5.871388316E-1,-1.716760445E1,3.239283562E0
2.597167574E0,-2.054836512E0,-1.618116379E1,3.598506212E0
2.599612834E0,-3.349951744E0,-1.526889992E1,3.840181351E0
2.602057209E0,-4.549653053E0,-1.435932827E1,3.919144392E0
2.604500803E0,-5.777769566E0,-1.343031502E1,3.878466368E0
2.606945282E0,-7.041778088E0,-1.245583820E1,3.766003847E0
2.609390542E0,-8.344071388E0,-1.144337559E1,3.655933857E0
2.611834865E0,-9.668199539E0,-1.032772160E1,3.531507015E0
2.614278511E0,-1.098245811E1,-9.209674835E0,3.488436222E0
2.616722990E0,-1.229193020E1,-7.976474285E0,3.483650684E0
2.619168251E0,-1.359930801E1,-6.722036839E0,3.521935940E0
2.621612626E0,-1.492553043E1,-5.426921844E0,3.612863064E0
2.624056219E0,-1.633580017E1,-4.054936886E0,3.854538202E0
2.626500699E0,-1.782234192E1,-2.640180588E0,4.189832687E0
2.628945959E0,-1.928764534E1,-1.160519004E0,4.766801834E0
2.631390334E0,-2.071675873E1,3.020938635E-1,5.618945599E0
2.633833928E0,-2.208395767E1,1.774577141E0,6.744170666E0
2.636278407E0,-2.329053879E1,3.191726208E0,8.049156189E0
2.638723667E0,-2.429612350E1,4.645066738E0,9.504590988E0
2.641168042E0,-2.513630295E1,6.043372631E0,1.102493000E1
2.643611636E0,-2.587628365E1,7.436593533E0,1.253330612E1
2.646056115E0,-2.667578506E1,8.863613129E0,1.398634720E1
2.648501376E0,-2.766222572E1,1.035254669E1,1.538704586E1
2.650945751E0,-2.880898666E1,1.185613728E1,1.660798454E1
2.653389344E0,-3.003710175E1,1.338126278E1,1.771167374E1
2.655833824E0,-3.132982445E1,1.487498188E1,1.860000801E1
2.658279084E0,-3.255076218E1,1.634507179E1,1.933729744E1
2.660723459E0,-3.369034576E1,1.781037712E1,1.993340874E1
2.663167053E0,-3.480599976E1,1.922991943E1,2.051037788E1
2.665611532E0,-3.589772415E1,2.070001030E1,2.106820488E1
2.668056792E0,-3.692484283E1,2.205733871E1,2.149442673E1
2.670501167E0,-3.786821365E1,2.335484695E1,2.185334969E1
2.672944761E0,-3.876342773E1,2.455454826E1,2.206661034E1
2.675389240E0,-3.952255249E1,2.563401031E1,2.216950226E1
2.677834501E0,-4.020719528E1,2.658695221E1,2.217189407E1
2.680278876E0,-4.081288147E1,2.741786003E1,2.204986000E1
2.682722521E0,-4.131567383E1,2.809532738E1,2.188685036E1
2.685166896E0,-4.175385666E1,2.864597511E1,2.163560295E1
2.687612209E0,-4.208167267E1,2.902643394E1,2.137448692E1
2.690056584E0,-4.229014969E1,2.928994370E1,2.108495522E1
2.692500230E0,-4.235236359E1,2.935694313E1,2.080230331E1
2.694944709E0,-4.219922256E1,2.926362228E1,2.054627037E1
2.697389917E0,-4.190460587E1,2.899054146E1,2.019183350E1
2.699834292E0,-4.148077774E1,2.850240517E1,1.976351929E1
2.702277886E0,-4.095645142E1,2.784856796E1,1.927029800E1
2.704722417E0,-4.031487274E1,2.701078033E1,1.867179298E1
2.707167626E0,-3.957279968E1,2.596930504E1,1.797966957E1
2.709612001E0,-3.875624847E1,2.481297302E1,1.716820335E1
2.712055646E0,-3.784189224E1,2.350349998E1,1.632802391E1
2.714500126E0,-3.689373779E1,2.207648087E1,1.550190163E1
2.716945334E0,-3.586422348E1,2.055374908E1,1.465932846E1
2.719389709E0,-3.475096512E1,1.896670914E1,1.390020561E1
2.721833355E0,-3.351566696E1,1.729322815E1,1.320120239E1
2.724277834E0,-3.213680267E1,1.561735535E1,1.260509014E1
2.726723042E0,-3.063321495E1,1.390080452E1,1.207837009E1
2.729167417E0,-2.907219696E1,1.219113255E1,1.172632694E1
2.731611063E0,-2.743700218E1,1.042193890E1,1.151575851E1
2.734055542E0,-2.581377029E1,8.664710045E0,1.144875908E1
2.736500751E0,-2.422673035E1,6.897909641E0,1.140329552E1
2.738945126E0,-2.273031998E1,5.234000206E0,1.151097202E1
2.741388771E0,-2.129133606E1,3.663411379E0,1.161625671E1
2.743833251E0,-1.990290070E1,2.167299032E0,1.161386395E1
2.746278459E0,-1.859821320E1,7.067800164E-1,1.153968620E1
2.748722834E0,-1.742722702E1,-6.601199508E-1,1.143200970E1
2.751166480E0,-1.635733604E1,-1.977069736E0,1.121874905E1
2.753610959E0,-1.537328720E1,-3.341576815E0,1.089571762E1
2.756056167E0,-1.450409412E1,-4.744668007E0,1.053888798E1
2.758500542E0,-1.364955807E1,-6.212066650E0,9.993025780E0
2.760944188E0,-1.276361465E1,-7.770691395E0,9.399306297E0
2.763388667E0,-1.178913784E1,-9.291030884E0,8.709874153E0
2.765833876E0,-1.068305588E1,-1.080628586E1,7.986942768E0
2.768278251E0,-9.438189507E0,-1.230269718E1,7.206284523E0
2.770721896E0,-8.092824936E0,-1.375125217E1,6.401997089E0
2.773166376E0,-6.613163471E0,-1.515404510E1,5.647659779E0
2.775611584E0,-5.028217793E0,-1.653799438E1,5.001298428E0
2.778055959E0,-3.345165968E0,-1.793600082E1,4.426722050E0
2.780499605E0,-1.573580027E0,-1.935344887E1,3.955036640E0
2.782944084E0,2.195414752E-1,-2.074906158E1,3.624827147E0
2.785389292E0,2.005484581E0,-2.212822533E1,3.397209883E0
2.787833667E0,3.865604877E0,-2.343769836E1,3.311068296E0
2.790277313E0,5.802595139E0,-2.460120773E1,3.313461065E0
2.792721792E0,7.880761147E0,-2.566421890E1,3.419044495E0
2.795167001E0,1.006421185E1,-2.659323311E1,3.663112402E0
2.797611376E0,1.241516018E1,-2.738555527E1,4.065405846E0
2.800055021E0,1.481635761E1,-2.807977295E1,4.582554340E0
2.802499501E0,1.731805420E1,-2.862802887E1,5.221737385E0
2.804944709E0,1.980569267E1,-2.915953445E1,5.894419670E0
2.807389188E0,2.219971085E1,-2.960250664E1,6.528816700E0
2.809832730E0,2.451955223E1,-3.005026245E1,6.988537788E0
2.812277209E0,2.668146706E1,-3.045973587E1,7.330711365E0
2.814722417E0,2.866392136E1,-3.084258652E1,7.414759159E0
2.817166896E0,3.044268608E1,-3.121855927E1,7.254140854E0
2.819610438E0,3.202045441E1,-3.155834007E1,6.981359005E0
2.822054917E0,3.347588730E1,-3.187209892E1,6.459424496E0
2.824500178E0,3.480719376E1,-3.215714264E1,5.781956673E0
2.826944553E0,3.602813339E1,-3.240599823E1,4.979763031E0
2.829388146E0,3.711746597E1,-3.257588577E1,4.067798615E0
2.831832626E0,3.804857254E1,-3.265006638E1,3.100499868E0
2.834277886E0,3.883162308E1,-3.268835068E1,2.140379906E0
2.836722261E0,3.937269974E1,-3.263570786E1,1.204487085E0
2.839165907E0,3.966223145E1,-3.251606750E1,2.419741899E-1
2.841610386E0,3.969812393E1,-3.231746292E1,-6.942176819E-1
2.844055594E0,3.947080612E1,-3.203720474E1,-1.601396561E0
2.846499969E0,3.892494202E1,-3.169981575E1,-2.415554523E0
2.848943615E0,3.793132401E1,-3.130709267E1,-3.183949709E0
2.851388094E0,3.653570938E1,-3.082105064E1,-3.837489367E0
2.853833303E0,3.478087234E1,-3.027997398E1,-4.448257446E0
2.856277678E0,3.273859787E1,-2.958097076E1,-4.962714195E0
2.858721324E0,3.035175896E1,-2.883650398E1,-5.290830135E0
2.861165803E0,2.768226624E1,-2.802234650E1,-5.422435284E0
2.863611011E0,2.478545570E1,-2.713909531E1,-5.312365532E0
2.866055386E0,2.170649147E1,-2.614068985E1,-5.018048286E0
2.868499032E0,1.851536179E1,-2.512074852E1,-4.551148891E0
2.870943511E0,1.533111382E1,-2.405773735E1,-3.923929930E0
2.873388719E0,1.227368450E1,-2.298994064E1,-3.195913792E0
2.875833094E0,9.295517921E0,-2.196042824E1,-2.410768747E0
2.878276740E0,6.415456772E0,-2.093360901E1,-1.594218135E0
2.880721219E0,3.655036688E0,-1.982991982E1,-7.253243923E-1
2.883166428E0,1.086341500E0,-1.874537277E1,1.674975827E-2
2.885610803E0,-1.229013562E0,-1.767279053E1,6.921239495E-1
2.888054449E0,-3.311666489E0,-1.658345795E1,1.314556956E0
2.890498928E0,-5.176871777E0,-1.551805305E1,1.872383714E0
2.892944136E0,-6.819245338E0,-1.439761353E1,2.437388897E0
2.895388511E0,-8.234002113E0,-1.323171139E1,3.021536827E0
2.897832157E0,-9.481260300E0,-1.205862999E1,3.691826344E0
2.900276636E0,-1.058973598E1,-1.087119102E1,4.409972191E0
2.902721844E0,-1.167188931E1,-9.551849365E0,5.190630436E0
2.905166219E0,-1.281386471E1,-8.182556152E0,5.949454308E0
2.907609865E0,-1.407069492E1,-6.784250259E0,6.696314335E0
2.910054344E0,-1.543550110E1,-5.280959606E0,7.417151928E0
2.912499605E0,-1.693669701E1,-3.688835144E0,8.092226982E0
2.914943980E0,-1.855962944E1,-2.111067772E0,8.817551613E0
2.917387574E0,-2.012782669E1,-4.591228366E-1,9.667601585E0
2.919832053E0,-2.170798683E1,1.211964726E0,1.071625614E1
2.922277313E0,-2.326421738E1,2.933301449E0,1.213340569E1
2.924721688E0,-2.476541519E1,4.707280159E0,1.384277821E1
2.927165282E0,-2.617538643E1,6.555436611E0,1.576780415E1
2.929609813E0,-2.757608414E1,8.399106979E0,1.791267014E1
2.932055021E0,-2.910569572E1,1.030708313E1,2.000758743E1
2.934499396E0,-3.072174835E1,1.229432297E1,2.215993118E1
2.936943042E0,-3.237608719E1,1.434586906E1,2.401765823E1
2.939387521E0,-3.400888824E1,1.637617874E1,2.551646233E1
2.941832730E0,-3.565843964E1,1.839931107E1,2.656990242E1
2.944277105E0,-3.728167343E1,2.034317970E1,2.722583580E1
2.946720751E0,-3.871078491E1,2.217219353E1,2.746751022E1
2.949165230E0,-3.994159317E1,2.385046005E1,2.739811897E1
2.951610438E0,-4.105485535E1,2.535165596E1,2.706312370E1
2.954054813E0,-4.193810654E1,2.671855736E1,2.658425903E1
2.956498459E0,-4.264667892E1,2.789163780E1,2.600489807E1
2.958942938E0,-4.317818451E1,2.894029236E1,2.546142769E1
2.961388146E0,-4.356851578E1,2.980469894E1,2.495145798E1
2.963832521E0,-4.380061722E1,3.055634499E1,2.444388008E1
2.966276167E0,-4.386552429E1,3.112613678E1,2.397698021E1
2.968720646E0,-4.383202362E1,3.153560829E1,2.351008034E1
2.971165855E0,-4.364030075E1,3.173660469E1,2.303360939E1
2.973610230E0,-4.331487656E1,3.174139023E1,2.256940269E1
2.976053876E0,-4.279772568E1,3.155235672E1,2.205703926E1
2.978498355E0,-4.216333008E1,3.115963554E1,2.151356888E1
2.980943563E0,-4.136831284E1,3.053241730E1,2.102034950E1
2.983387938E0,-4.048506546E1,2.971616554E1,2.061326981E1
2.985831584E0,-3.956322861E1,2.868186760E1,2.023729706E1
2.988276063E0,-3.863182068E1,2.747289467E1,1.985205269E1
2.990721324E0,-3.769832230E1,2.612005234E1,1.940429688E1
2.993165699E0,-3.677409363E1,2.458565521E1,1.891825485E1
2.995609292E0,-3.581158066E1,2.297677994E1,1.831974983E1
2.998053771E0,-3.477010727E1,2.124826431E1,1.763749504E1
3.000499032E0,-3.367120361E1,1.945005798E1,1.685683823E1
3.002943407E0,-3.242633438E1,1.761625862E1,1.596640778E1
3.005387053E0,-3.102115059E1,1.578724575E1,1.501585960E1
3.007831532E0,-2.944338417E1,1.390080452E1,1.402223969E1
3.010276740E0,-2.774597549E1,1.207388401E1,1.312223911E1
3.012721115E0,-2.596960258E1,1.025444126E1,1.224586773E1
3.015164761E0,-2.417618179E1,8.480463028E0,1.146311569E1
3.017609240E0,-2.233520508E1,6.668198586E0,1.078086281E1
3.020054449E0,-2.053011894E1,4.956432819E0,1.021346474E1
3.022498824E0,-1.888774490E1,3.311666489E0,9.796813965E0
3.024942469E0,-1.739612007E1,1.753041744E0,9.454340935E0
3.027386949E0,-1.602922058E1,1.944168359E-1,9.183952332E0
3.029832157E0,-1.483221054E1,-1.313958764E0,8.934800148E0
3.032276532E0,-1.381466198E1,-2.800499916E0,8.669196129E0
3.034720178E0,-1.289761353E1,-4.313661098E0,8.412865639E0
3.037164657E0,-1.201675510E1,-5.812465191E0,8.101798058E0
3.039609865E0,-1.108056355E1,-7.287042141E0,7.728219032E0
3.042054240E0,-1.000798035E1,-8.771489143E0,7.213462830E0
3.044497886E0,-8.775078773E0,-1.020299530E1,6.569494724E0
3.046942365E0,-7.353144169E0,-1.153908825E1,5.834599018E0
3.049387574E0,-5.839982986E0,-1.282463169E1,5.053940296E0
3.051832053E0,-4.262215137E0,-1.405035591E1,4.283152580E0
3.054275594E0,-2.672483683E0,-1.516600895E1,3.548256874E0
3.056720074E0,-1.142572761E0,-1.622423553E1,2.935395241E0
3.059165334E0,2.745763958E-1,-1.722981834E1,2.478066921E0
3.061609709E0,1.644168258E0,-1.819711685E1,2.149951220E0
3.064053355E0,2.963211775E0,-1.916650963E1,1.826920033E0
3.066497834E0,4.260719776E0,-2.012902260E1,1.587338686E0
3.068943042E0,5.659025669E0,-2.110828590E1,1.407876968E0
3.071387417E0,7.171887875E0,-2.206601143E1,1.226022482E0
3.073831063E0,8.842975616E0,-2.302344131E1,1.125224829E0
3.076275542E0,1.066032410E1,-2.390459824E1,1.046261668E0
3.078720751E0,1.267597771E1,-2.475913429E1,1.039083242E0
3.081165126E0,1.488814259E1,-2.557089996E1,1.077368379E0
3.083608771E0,1.725105476E1,-2.627947426E1,1.110867858E0
3.086053251E0,1.970519447E1,-2.693301392E1,1.144367456E0
3.088498459E0,2.217099762E1,-2.761526680E1,1.192523003E0
3.090942834E0,2.467538452E1,-2.822124863E1,1.197308660E0
3.093386480E0,2.706222534E1,-2.878386116E1,1.161117196E0
3.095830959E0,2.931746101E1,-2.930310440E1,1.010369420E0
3.098276167E0,3.136661530E1,-2.976521873E1,8.093722463E-1
3.100720646E0,3.323421097E1,-3.016511917E1,4.956133962E-1
3.103164188E0,3.490290833E1,-3.049323463E1,8.883354068E-2
3.105608667E0,3.636312866E1,-3.078037262E1,-3.493520916E-1
3.108053928E0,3.771357727E1,-3.103670502E1,-7.277171612E-1
3.110498303E0,3.881726456E1,-3.126641464E1,-1.118046403E0
3.112941949E0,3.960958862E1,-3.142194939E1,-1.493719578E0
3.115386428E0,4.004538345E1,-3.152244759E1,-1.857727647E0
3.117831636E0,4.014588165E1,-3.155116081E1,-2.173580170E0
3.120276011E0,3.991138458E1,-3.153441048E1,-2.470589399E0
3.122719657E0,3.938945007E1,-3.140519905E1,-2.767598391E0
3.125164136E0,3.853700638E1,-3.121377373E1,-3.157628536E0
3.127609344E0,3.735913849E1,-3.094547844E1,-3.583850145E0
3.130053719E0,3.573112488E1,-3.070141029E1,-3.916751623E0
3.132497365E0,3.374418259E1,-3.041157913E1,-4.086641788E0
3.134941844E0,3.141716385E1,-2.999762154E1,-4.100998878E0
3.137387053E0,2.886731148E1,-2.943500900E1,-3.988536358E0
3.139831428E0,2.609492683E1,-2.872852707E1,-3.744169235E0
3.142275074E0,2.311436844E1,-2.784288406E1,-3.296412230E0
3.144719553E0,1.989901161E1,-2.682533646E1,-2.633301258E0
3.147164813E0,1.659751511E1,-2.567857552E1,-1.766800404E0
3.149609188E0,1.328166103E1,-2.445524597E1,-7.325028181E-1
3.152052782E0,1.008096218E1,-2.316012955E1,3.783650696E-1
3.154497313E0,7.066603661E0,-2.186232376E1,1.517946839E0
3.156942521E0,4.320540428E0,-2.051935196E1,2.619243383E0
3.159386896E0,1.821237087E0,-1.916172409E1,3.667897940E0
3.161830542E0,-3.526422381E-1,-1.777568054E1,4.630411148E0
3.164275021E0,-2.270190477E0,-1.641087532E1,5.480162144E0
3.166720230E0,-3.914957047E0,-1.505593872E1,6.241677761E0
3.169164605E0,-5.411368370E0,-1.372014618E1,6.914360046E0
3.171608251E0,-6.809674263E0,-1.242473125E1,7.553543091E0
3.174052730E0,-8.076075554E0,-1.114397335E1,8.132905006E0
3.176497938E0,-9.311369896E0,-9.882357597E0,8.688339233E0
3.178942313E0,-1.047009468E1,-8.647063255E0,9.224630356E0
3.181385959E0,-1.156899834E1,-7.406683445E0,9.739386559E0
3.183830438E0,-1.258176041E1,-6.233602047E0,1.027089214E1
3.186275699E0,-1.356102276E1,-5.062913418E0,1.074018478E1
3.188720074E0,-1.449213028E1,-3.868296862E0,1.119721317E1
3.191163667E0,-1.548096466E1,-2.616252422E0,1.164975643E1
3.193608199E0,-1.650090408E1,-1.345065475E0,1.213340569E1
3.196053407E0,-1.753998756E1,-2.333002165E-2,1.259073353E1
3.198497782E0,-1.856441498E1,1.343569875E0,1.315813160E1
3.200941428E0,-1.963460541E1,2.746661186E0,1.383799267E1
3.203385907E0,-2.085105705E1,4.144668102E0,1.487946892E1
3.205831115E0,-2.197628212E1,5.547759533E0,1.624876213E1
3.208275490E0,-2.300070763E1,7.024729252E0,1.796291924E1
3.210719136E0,-2.404936218E1,8.559425354E0,2.000997925E1
3.213163615E0,-2.508366013E1,1.011805058E1,2.211925316E1
3.215608824E0,-2.622802734E1,1.174128151E1,2.413729858E1
3.218053199E0,-2.741307259E1,1.339322662E1,2.583949280E1
3.220496844E0,-2.870370293E1,1.504995728E1,2.716601372E1
3.222941324E0,-3.002992439E1,1.668724632E1,2.794158745E1
3.225386584E0,-3.140639496E1,1.829851341E1,2.821227646E1
3.227830959E0,-3.284537888E1,1.990738678E1,2.808276558E1
3.230274553E0,-3.419792175E1,2.147797585E1,2.758984375E1
3.232719084E0,-3.553162003E1,2.295524406E1,2.685704041E1
3.235164292E0,-3.680998611E1,2.437000084E1,2.608146858E1
3.237608667E0,-3.794239044E1,2.563879585E1,2.525534630E1
3.240052313E0,-3.888815308E1,2.672812843E1,2.451087952E1
3.242496792E0,-3.974987030E1,2.768107033E1,2.377598381E1
3.244942001E0,-4.054488373E1,2.851915550E1,2.311047935E1
3.247386376E0,-4.134199142E1,2.926601601E1,2.244228363E1
3.249830021E0,-4.201228333E1,2.983819962E1,2.171935272E1
3.252274501E0,-4.255575180E1,3.028356361E1,2.098445702E1
3.254719709E0,-4.292933273E1,3.049173927E1,2.018944168E1
3.257164084E0,-4.306811523E1,3.051806068E1,1.935643959E1
3.259607730E0,-4.295565414E1,3.030509949E1,1.855663872E1
3.262052209E0,-4.255814362E1,2.987169838E1,1.774278069E1
3.264497469E0,-4.194049835E1,2.914398193E1,1.697438431E1
3.266941844E0,-4.104049683E1,2.817668343E1,1.625354767E1
3.269385490E0,-3.993680954E1,2.694617462E1,1.562393570E1
3.271829969E0,-3.872753525E1,2.543779755E1,1.501585960E1
3.274275178E0,-3.745874023E1,2.380499649E1,1.437667656E1
3.276719553E0,-3.613012695E1,2.205255318E1,1.367767334E1
3.279163199E0,-3.475096512E1,2.026660919E1,1.293290710E1
3.281607678E0,-3.334577942E1,1.850938034E1,1.220040417E1
3.284052886E0,-3.187568855E1,1.676890182E1,1.145833015E1
3.286497261E0,-3.037239647E1,1.503081417E1,1.068006516E1
3.288940907E0,-2.884727097E1,1.338126278E1,9.961918831E0
3.291385386E0,-2.729582596E1,1.177717400E1,9.272486687E0
3.293830646E0,-2.577309227E1,1.023051357E1,8.652446747E0
3.296275021E0,-2.431765747E1,8.710173607E0,7.984549999E0
3.298718615E0,-2.294567299E1,7.264310360E0,7.340282440E0
3.301163094E0,-2.168405724E1,5.875576019E0,6.739385128E0
3.303608355E0,-2.049183464E1,4.530211449E0,6.157629967E0
3.306052730E0,-1.946232224E1,3.273381472E0,5.571089268E0
3.308496376E0,-1.846391678E1,1.994716763E0,4.965405941E0
3.310940855E0,-1.751366806E1,7.929216027E-1,4.395615101E0
3.313386063E0,-1.661336708E1,-3.658027649E-1,3.787539244E0
3.315830438E0,-1.578036594E1,-1.538884044E0,3.198605776E0
3.318274084E0,-1.492553043E1,-2.700001240E0,2.736491680E0
3.320718563E0,-1.404198074E1,-3.937688828E0,2.260020971E0
3.323163824E0,-1.311805153E1,-5.194519043E0,1.858026743E0
3.325608199E0,-1.212921810E1,-6.434898376E0,1.431805253E0
3.328051792E0,-1.104467106E1,-7.730013371E0,9.505487680E-1
3.330496324E0,-9.840482712E0,-9.063413620E0,4.668995142E-1
3.332941532E0,-8.550153732E0,-1.044736290E1,-3.828516230E-2
3.335385907E0,-7.257132053E0,-1.187886906E1,-4.211367965E-1
3.337829553E0,-5.969195366E0,-1.327478218E1,-7.492526174E-1
3.340274032E0,-4.583152771E0,-1.453879070E1,-1.206580877E0
3.342719240E0,-3.089133978E0,-1.564247990E1,-1.812264085E0
3.345163615E0,-1.511366606E0,-1.668395615E1,-2.480160713E0
3.347607261E0,1.238285750E-1,-1.760818291E1,-3.210270643E0
3.350051740E0,1.826022744E0,-1.849143410E1,-3.854238987E0
3.352497001E0,3.523431301E0,-1.940848351E1,-4.273282051E0
3.354941376E0,5.161019325E0,-2.040688896E1,-4.431208611E0
3.357384969E0,6.927819729E0,-2.148665047E1,-4.294817448E0
3.359829501E0,8.816654205E0,-2.258764839E1,-3.861417532E0
3.362274709E0,1.083978558E1,-2.370569420E1,-3.219841957E0
3.364719084E0,1.303520012E1,-2.479741859E1,-2.492124796E0
3.367162730E0,1.540529156E1,-2.584128761E1,-1.745265007E0
3.369607209E0,1.789741516E1,-2.682055092E1,-9.981061220E-1
3.372052417E0,2.040419769E1,-2.775435066E1,-2.416750938E-1
3.374496792E0,2.284367943E1,-2.865195656E1,5.171487927E-1
3.376940438E0,2.523799706E1,-2.950679398E1,1.355234981E0
3.379384917E0,2.743311310E1,-3.029911613E1,2.164308071E0
3.381830178E0,2.940838814E1,-3.105823898E1,2.952144861E0
3.384274553E0,3.123979568E1,-3.183859825E1,3.756432533E0
3.386718146E0,3.286781311E1,-3.265245819E1,4.558626175E0
3.389162678E0,3.434508133E1,-3.345704269E1,5.324628353E0
3.391607886E0,3.561626816E1,-3.416083527E1,6.064310074E0
3.394052261E0,3.669363785E1,-3.475455093E1,6.739385128E0
3.396495907E0,3.758436584E1,-3.523341751E1,7.246962547E0
3.398940386E0,3.823072433E1,-3.558785248E1,7.632505894E0
3.401385594E0,3.866891098E1,-3.582474136E1,7.871788502E0
3.403829969E0,3.886033630E1,-3.597070312E1,7.936693668E0
3.406273615E0,3.879573059E1,-3.597070312E1,7.874181271E0
3.408718094E0,3.838625717E1,-3.586542130E1,7.725826263E0
3.411163355E0,3.754578018E1,-3.561656570E1,7.524828911E0
3.413607730E0,3.639423370E1,-3.528366470E1,7.246962547E0
3.416051376E0,3.491008759E1,-3.481198120E1,6.993323326E0
3.418495855E0,3.304487991E1,-3.425893784E1,6.784848690E0
3.420941063E0,3.086651421E1,-3.359104156E1,6.622136593E0
3.423385438E0,2.831905556E1,-3.281068420E1,6.557530403E0
3.425829084E0,2.552274323E1,-3.192234802E1,6.624529362E0
3.428273563E0,2.257328987E1,-3.096222687E1,6.710670948E0
3.430718771E0,1.952064705E1,-2.999522781E1,6.852146626E0
3.433163251E0,1.647069550E1,-2.894896698E1,6.990930557E0
3.435606792E0,1.342792225E1,-2.787877655E1,7.156035423E0
3.438051271E0,1.049970531E1,-2.673440933E1,7.321139812E0
3.440496532E0,7.736892700E0,-2.555654144E1,7.517650604E0
3.442940907E0,5.194519043E0,-2.434517670E1,7.725826263E0
3.445384553E0,2.857927561E0,-2.308565331E1,7.888537884E0
3.447829032E0,7.510471940E-1,-2.180250168E1,7.996514320E0
3.450274240E0,-1.075573802E0,-2.046192360E1,8.111370087E0
3.452718615E0,-2.672483683E0,-1.913300896E1,8.254939079E0
3.455162261E0,-4.070789337E0,-1.777568054E1,8.494520187E0
3.457606740E0,-5.272584915E0,-1.638216019E1,8.781659126E0
3.460052001E0,-6.352345943E0,-1.497697639E1,9.152845383E0
3.462496376E0,-7.273881912E0,-1.362203979E1,9.602995872E0
3.464940021E0,-8.123931885E0,-1.227398396E1,1.014138031E1
3.467384501E0,-8.952147484E0,-1.094776154E1,1.073539925E1
3.469829709E0,-9.888339996E0,-9.611669540E0,1.130758286E1
3.472274084E0,-1.090110207E1,-8.237590790E0,1.183161068E1
3.474717730E0,-1.207896900E1,-6.803392887E0,1.227218914E1
3.477162209E0,-1.333340645E1,-5.340780258E0,1.264576817E1
3.479607469E0,-1.472214031E1,-3.786941051E0,1.305763340E1
3.482051844E0,-1.618714523E1,-2.228316069E0,1.351974678E1
3.484495438E0,-1.775055695E1,-5.644070506E-1,1.407248878E1
3.486939917E0,-1.938814545E1,1.133001566E0,1.475982761E1
3.489385178E0,-2.113101768E1,2.875873804E0,1.572682667E1
3.491829553E0,-2.283799744E1,4.625924587E0,1.683769417E1
3.494273199E0,-2.440379906E1,6.490830421E0,1.810200310E1
3.496717678E0,-2.589064026E1,8.425427437E0,1.946411705E1
3.499162886E0,-2.740828705E1,1.040040398E1,2.087917137E1
3.501607261E0,-2.898366165E1,1.242353535E1,2.222692871E1
3.504050907E0,-3.061407280E1,1.450648689E1,2.333061981E1
3.506495386E0,-3.235933685E1,1.665613937E1,2.426441765E1
3.508940646E0,-3.409742355E1,1.879412651E1,2.497299194E1
3.511385021E0,-3.584029388E1,2.088904190E1,2.549492645E1
3.513828667E0,-3.751856232E1,2.288346100E1,2.584667206E1
3.516273146E0,-3.916333008E1,2.473879433E1,2.610539627E1
3.518718355E0,-4.060231018E1,2.648406029E1,2.621307373E1
3.521162730E0,-4.186153412E1,2.804747009E1,2.612214661E1
3.523606376E0,-4.289104843E1,2.943111992E1,2.589961243E1
3.526050855E0,-4.371686935E1,3.060659409E1,2.544946289E1
3.528496115E0,-4.439463806E1,3.163849831E1,2.483899498E1
3.530940490E0,-4.488994980E1,3.253401184E1,2.410379982E1
3.533384136E0,-4.524199677E1,3.325694275E1,2.320140648E1
3.535828615E0,-4.541667175E1,3.378366470E1,2.217667961E1
3.538273824E0,-4.544299316E1,3.409742355E1,2.113041878E1
3.540718199E0,-4.524438858E1,3.415724564E1,2.001715851E1
3.543161844E0,-4.491148758E1,3.392244720E1,1.896371841E1
3.545606324E0,-4.445445633E1,3.344837189E1,1.793420601E1
3.548051532E0,-4.382215500E1,3.267279816E1,1.692892075E1
3.550495907E0,-4.304179382E1,3.162892723E1,1.587069511E1
3.552939553E0,-4.217050934E1,3.036970520E1,1.492493248E1
3.555384084E0,-4.128456497E1,2.899054146E1,1.400070477E1
3.557829292E0,-4.034358978E1,2.744657326E1,1.313898945E1
3.560273667E0,-3.938376617E1,2.576591492E1,1.221476173E1
3.562717313E0,-3.831597137E1,2.401347160E1,1.130519009E1
3.565161792E0,-3.713571167E1,2.218894386E1,1.037617588E1
3.567607001E0,-3.581636810E1,2.034796524E1,9.451948166E0
3.570051376E0,-3.433461380E1,1.846391678E1,8.547162056E0
3.572495021E0,-3.275205994E1,1.653649902E1,7.654041290E0
3.574939501E0,-3.106900787E1,1.457109356E1,6.837790012E0
3.577384761E0,-2.931656456E1,1.259821129E1,6.114559174E0
3.579829136E0,-2.756172752E1,1.065434170E1,5.516054630E0
3.582272782E0,-2.576830673E1,8.729315758E0,5.073082924E0
3.584717261E0,-2.404697037E1,6.859624386E0,4.704588413E0
3.587162469E0,-2.235434723E1,5.035396099E0,4.364508629E0
3.589606844E0,-2.067608070E1,3.326023579E0,4.096512318E0
3.592050490E0,-1.903370857E1,1.652543187E0,3.792324781E0
3.594494969E0,-1.738176346E1,5.982056609E-4,3.500400543E0
3.596940230E0,-1.582582951E1,-1.651346684E0,3.253640652E0
3.599384605E0,-1.437248898E1,-3.341576815E0,3.045464993E0
3.601828251E0,-1.295025539E1,-5.043771267E0,2.851347208E0
3.604272730E0,-1.157139111E1,-6.712465763E0,2.650350094E0
3.606717938E0,-1.019731236E1,-8.369195938E0,2.454138756E0
3.609162313E0,-8.813364029E0,-1.001156998E1,2.255235434E0
3.611605959E0,-7.285845757E0,-1.158455181E1,2.013560295E0
3.614050438E0,-5.667699337E0,-1.313360500E1,1.800599098E0
3.616495699E0,-3.972384691E0,-1.462014675E1,1.608874083E0
3.618940074E0,-2.263011932E0,-1.606152344E1,1.486840129E0
3.621383719E0,-6.257231236E-1,-1.751935005E1,1.479661703E0
3.623828199E0,1.009472013E0,-1.893679810E1,1.623231053E0
3.626273407E0,2.637488842E0,-2.034198380E1,1.793420553E0
3.628717782E0,4.339683056E0,-2.169961166E1,2.011167526E0
3.631161428E0,6.025127411E0,-2.304976082E1,2.286342144E0
3.633605907E0,7.859225750E0,-2.432364082E1,2.633600473E0
3.636051167E0,9.870094299E0,-2.556372070E1,3.031108141E0
3.638495542E0,1.199851036E1,-2.674637413E1,3.581756353E0
3.640939188E0,1.430878067E1,-2.788834763E1,4.280759811E0
3.643383667E0,1.672194099E1,-2.902553749E1,5.114060402E0
3.645828876E0,1.918804550E1,-3.013161850E1,6.112166405E0
3.648273251E0,2.169931221E1,-3.117788124E1,7.218248844E0
3.650716896E0,2.423719978E1,-3.214039230E1,8.343473434E0
3.653161376E0,2.680589485E1,-3.300928879E1,9.406484604E0
3.655606636E0,2.928396225E1,-3.382344437E1,1.031635571E1
3.658051011E0,3.157987595E1,-3.451287842E1,1.105364418E1
3.660494605E0,3.367957687E1,-3.507309723E1,1.154207897E1
3.662939136E0,3.558037567E1,-3.554238892E1,1.179811096E1
3.665384344E0,3.718685532E1,-3.587977600E1,1.184387398E1
3.667828719E0,3.850111389E1,-3.603531265E1,1.160668564E1
3.670272365E0,3.947798538E1,-3.607628632E1,1.112542915E1
3.672716844E0,4.015545273E1,-3.602095413E1,1.045753193E1
3.675162105E0,4.042374802E1,-3.583192062E1,9.576375008E0
3.677606480E0,4.034448624E1,-3.556392288E1,8.451150894E0
3.680050074E0,3.986113358E1,-3.518316650E1,7.199106216E0
3.682494605E0,3.898715591E1,-3.473062515E1,5.834599018E0
3.684939813E0,3.778057480E1,-3.414886856E1,4.417150497E0
3.687384188E0,3.624109268E1,-3.343550873E1,2.935395241E0
3.689827834E0,3.440968704E1,-3.262374496E1,1.494018674E0
3.692272313E0,3.231716537E1,-3.167827988E1,1.342971772E-1
3.694717574E0,2.986571693E1,-3.063680458E1,-1.118046403E0
3.697161949E0,2.717229652E1,-2.950440025E1,-2.108973980E0
3.699605594E0,2.436401939E1,-2.837438965E1,-2.769991398E0
3.702050074E0,2.147438622E1,-2.723480797E1,-3.104986429E0
3.704495282E0,1.850579071E1,-2.605694199E1,-3.150450230E0
3.706939657E0,1.551057529E1,-2.488146782E1,-2.913560629E0
3.709383303E0,1.245583820E1,-2.361715889E1,-2.535195589E0
3.711827782E0,9.415159225E0,-2.230290222E1,-2.077867270E0
3.714273042E0,6.492026806E0,-2.094557381E1,-1.527219057E0
3.716717417E0,3.750749588E0,-1.957119560E1,-8.952147961E-1
3.719161063E0,1.251446247E0,-1.816122437E1,-1.986042857E-1
3.721605542E0,-1.032503009E0,-1.678445435E1,6.104688644E-1
3.724050751E0,-3.077169895E0,-1.537209129E1,1.534696579E0
3.726495126E0,-4.934897423E0,-1.392353630E1,2.492423773E0
3.728938771E0,-6.668198586E0,-1.244626713E1,3.560220957E0
3.731383251E0,-8.236394882E0,-1.093340492E1,4.582554340E0
3.733828511E0,-9.704092026E0,-9.343673706E0,5.633302689E0
3.736272886E0,-1.115234852E1,-7.643871784E0,6.595815659E0
3.738716532E0,-1.253868961E1,-5.879464149E0,7.491329670E0
3.741161011E0,-1.402044487E1,-4.081557274E0,8.393722534E0
3.743606219E0,-1.565085506E1,-2.163709879E0,9.334700584E0
3.746050594E0,-1.731237030E1,-2.940180898E-1,1.026610661E1
3.748494240E0,-1.904567146E1,1.707578063E0,1.129561806E1
3.750938719E0,-2.077418709E1,3.653840065E0,1.236790180E1
3.753383980E0,-2.267528534E1,5.614758492E0,1.362503147E1
3.755828355E0,-2.441337204E1,7.563413143E0,1.503021622E1
3.758272001E0,-2.595763969E1,9.538688660E0,1.649791336E1
3.760716480E0,-2.732693100E1,1.149691486E1,1.790788460E1
3.763161688E0,-2.861247635E1,1.344826126E1,1.928226280E1
3.765606063E0,-2.988156891E1,1.540648746E1,2.049362946E1
3.768049709E0,-3.115275574E1,1.739133453E1,2.154946136E1
3.770494188E0,-3.244787216E1,1.932563210E1,2.225564384E1
3.772939449E0,-3.376242828E1,2.118605232E1,2.277757835E1
3.775383824E0,-3.505275726E1,2.296003151E1,2.301925278E1
3.777827469E0,-3.624258804E1,2.453749847E1,2.301686096E1
3.780271949E0,-3.732713699E1,2.601955414E1,2.281825638E1
3.782717157E0,-3.821068573E1,2.739632416E1,2.241117668E1
3.785161532E0,-3.901018906E1,2.861247635E1,2.187727928E1
3.787605178E0,-3.973790359E1,2.972813034E1,2.127398872E1
3.790049657E0,-4.043690872E1,3.072414207E1,2.063241196E1
3.792494917E0,-4.108117676E1,3.163371277E1,2.002672958E1
3.794939292E0,-4.174907303E1,3.244787216E1,1.954068756E1
3.797382938E0,-4.240739822E1,3.316362381E1,1.917937088E1
3.799827417E0,-4.302265167E1,3.370948792E1,1.900678825E1
3.802272626E0,-4.346562195E1,3.404926682E1,1.894935989E1
3.804717001E0,-4.380779648E1,3.420988464E1,1.901875305E1
3.807160646E0,-4.394927216E1,3.411656570E1,1.912643051E1
3.809605126E0,-4.393013000E1,3.371427155E1,1.919851303E1
3.812050386E0,-4.369533539E1,3.303202057E1,1.916022873E1
3.814494761E0,-4.320450592E1,3.202643585E1,1.897328949E1
3.816938407E0,-4.245525360E1,3.069273567E1,1.858804512E1
3.819382886E0,-4.151906204E1,2.909612465E1,1.807568169E1
3.821828094E0,-4.037947845E1,2.724049187E1,1.747717667E1
3.824272574E0,-3.914179230E1,2.519612312E1,1.676830292E1
3.826716115E0,-3.776531982E1,2.297917366E1,1.595922947E1
3.829160646E0,-3.622105408E1,2.065933228E1,1.515942860E1
3.831605855E0,-3.454278946E1,1.834876251E1,1.430010605E1
3.834050230E0,-3.272573853E1,1.608874130E1,1.346680546E1
3.836493876E0,-3.067628479E1,1.386461258E1,1.273430347E1
3.838938355E0,-2.846651459E1,1.165753269E1,1.212862015E1
3.841383563E0,-2.615624428E1,9.450154305E0,1.153729343E1
3.843828042E0,-2.389861488E1,7.333702087E0,1.102014446E1
3.846271584E0,-2.174627113E1,5.260321617E0,1.067288589E1
3.848716115E0,-1.973061752E1,3.194119215E0,1.039531898E1
3.851161324E0,-1.786780548E1,1.190429211E0,1.010070229E1
3.853605699E0,-1.613689613E1,-7.345965505E-1,9.765707016E0
3.856049344E0,-1.458066463E1,-2.580360174E0,9.358628273E0
3.858493824E0,-1.317787266E1,-4.354339123E0,8.908478737E0
3.860939084E0,-1.184686470E1,-6.078068733E0,8.412865639E0
3.863383459E0,-1.058734322E1,-7.753942013E0,7.890930653E0
3.865827105E0,-9.390333176E0,-9.403493881E0,7.299604416E0
3.868271584E0,-8.140681267E0,-1.104586792E1,6.689135551E0
3.870716792E0,-6.795317173E0,-1.271934795E1,6.021239281E0
3.873161167E0,-5.339583874E0,-1.438086414E1,5.260022163E0
3.875604813E0,-3.656532049E0,-1.598734570E1,4.450650215E0
3.878049292E0,-1.908874273E0,-1.754357719E1,3.643969774E0
3.880494553E0,-1.947159469E-1,-1.904208183E1,2.796312332E0
3.882938928E0,1.457229018E0,-2.045474434E1,2.161915302E0
3.885382574E0,3.051746130E0,-2.184078789E1,1.632802367E0
3.887827053E0,4.698905468E0,-2.321038055E1,1.314556956E0
3.890272261E0,6.544669151E0,-2.448635292E1,1.175773263E0
3.892716636E0,8.570193291E0,-2.564268303E1,1.218844056E0
3.895160282E0,1.070578766E1,-2.672483826E1,1.386341572E0
3.897604813E0,1.294666576E1,-2.773281479E1,1.704586983E0
3.900050021E0,1.524736500E1,-2.864238548E1,2.054238319E0
3.902494396E0,1.762463379E1,-2.957139969E1,2.463710070E0
3.904938042E0,2.013829422E1,-3.045016289E1,2.894717216E0
3.907382521E0,2.265464592E1,-3.129273605E1,3.397209883E0
3.909827782E0,2.521885490E1,-3.212334442E1,3.921537161E0
3.912272157E0,2.768465805E1,-3.292075348E1,4.474578381E0
3.914715803E0,2.998535728E1,-3.362693405E1,4.953442097E0
3.917160282E0,3.215923691E1,-3.429243851E1,5.291129112E0
3.919605490E0,3.419433212E1,-3.485983658E1,5.513661385E0
3.922049865E0,3.600659561E1,-3.529563141E1,5.606981754E0
3.924493511E0,3.745006561E1,-3.560221100E1,5.662016392E0
3.926937990E0,3.857768631E1,-3.580081558E1,5.633302689E0
3.929383251E0,3.938705826E1,-3.590609741E1,5.566303730E0
3.931827626E0,3.987310028E1,-3.589652634E1,5.525625706E0
3.934271271E0,4.016023636E1,-3.581038666E1,5.405984402E0
3.936715751E0,4.020091629E1,-3.567399597E1,5.271986485E0
3.939160959E0,3.991138458E1,-3.543202209E1,5.037190914E0
3.941605334E0,3.929373550E1,-3.511377335E1,4.572983265E0
3.944048980E0,3.827618790E1,-3.466601944E1,3.921537161E0
3.946493459E0,3.690181351E1,-3.412254715E1,3.038286448E0
3.948938719E0,3.519961929E1,-3.347379303E1,2.087737799E0
3.951383094E0,3.313132095E1,-3.274129105E1,1.125224829E0
3.953826740E0,3.071786118E1,-3.198216820E1,1.582254022E-1
3.956271219E0,2.804866791E1,-3.109173965E1,-7.492526174E-1
3.958716480E0,2.517787743E1,-3.015315437E1,-1.610967875E0
3.961160855E0,2.218056870E1,-2.913800049E1,-2.327019930E0
3.963604449E0,1.917608070E1,-2.805584526E1,-2.870489836E0
3.966048980E0,1.621197128E1,-2.693301392E1,-3.243770123E0
3.968494188E0,1.338455296E1,-2.581735992E1,-3.437887907E0
3.970938563E0,1.064836025E1,-2.471127701E1,-3.361317635E0
3.973382209E0,8.093722343E0,-2.363630295E1,-3.069094181E0
3.975826688E0,5.661418438E0,-2.262862396E1,-2.606980324E0
3.978271949E0,3.379862070E0,-2.164936256E1,-2.068295956E0
3.980716324E0,1.299302697E0,-2.062224197E1,-1.453041553E0
3.983159969E0,-5.919244885E-1,-1.960947990E1,-7.827520967E-1
3.985604449E0,-2.243869543E0,-1.855843353E1,-6.221338734E-2
3.988049657E0,-3.773780346E0,-1.748345757E1,7.543373108E-1
3.990494032E0,-5.229514122E0,-1.633430481E1,1.714158297E0
3.992937678E0,-6.656234264E0,-1.515643787E1,2.777169704E0
3.995382209E0,-8.052146912E0,-1.390678596E1,3.895216227E0
3.997827417E0,-9.364012718E0,-1.264277744E1,4.994120121E0
4.000271792E0,-1.066391277E1,-1.134975624E1,6.061916828E0
4.002715438E0,-1.197129154E1,-9.992427826E0,7.089035988E0
4.005159917E0,-1.338604832E1,-8.572885513E0,7.984549999E0
4.007605178E0,-1.482263851E1,-7.059724331E0,8.757730484E0
4.010049553E0,-1.631157303E1,-5.498706341E0,9.514162064E0
4.012493199E0,-1.782712746E1,-3.837190151E0,1.023260689E1
4.014937678E0,-1.947189331E1,-2.130210400E0,1.105603695E1
4.017382886E0,-2.118605232E1,-3.514458239E-1,1.206401348E1
4.019827261E0,-2.303181458E1,1.564008713E0,1.314856052E1
4.022270907E0,-2.471726036E1,3.522234917E0,1.430728436E1
4.024715386E0,-2.633570480E1,5.600401402E0,1.545883083E1
4.027160646E0,-2.792065048E1,7.716853142E0,1.658644867E1
4.029605021E0,-2.963241577E1,9.928718567E0,1.770688820E1
4.032048667E0,-3.148565674E1,1.225603771E1,1.873639870E1
4.034493146E0,-3.343909836E1,1.461894989E1,1.978026772E1
4.036938355E0,-3.537339783E1,1.709193230E1,2.074726868E1
4.039382730E0,-3.728884888E1,1.952932167E1,2.169542313E1
4.041826376E0,-3.908197403E1,2.187787628E1,2.248535347E1
4.044270907E0,-4.073152542E1,2.417378998E1,2.321815681E1
4.046716115E0,-4.224229431E1,2.631895447E1,2.375205421E1
4.049160490E0,-4.365944290E1,2.827000237E1,2.419502640E1
4.051604136E0,-4.490670013E1,2.997459030E1,2.453002167E1
4.054048615E0,-4.597449875E1,3.148775101E1,2.462573433E1
4.056493876E0,-4.685565567E1,3.275893784E1,2.446302223E1
4.058938251E0,-4.760969162E1,3.381955719E1,2.414208412E1
4.061381896E0,-4.823691177E1,3.468875122E1,2.368984222E1
4.063826376E0,-4.873970413E1,3.546192932E1,2.308655167E1
4.066271584E0,-4.913960266E1,3.601736450E1,2.243271255E1
4.068715959E0,-4.930710220E1,3.640530014E1,2.175524521E1
4.071159605E0,-4.927838898E1,3.657519150E1,2.109213257E1
4.073604084E0,-4.895296478E1,3.645315933E1,2.041705894E1
4.076049344E0,-4.838556671E1,3.603172302E1,1.969412613E1
4.078493719E0,-4.750201416E1,3.525375366E1,1.898046684E1
4.080937365E0,-4.636243439E1,3.410699463E1,1.832932091E1
4.083381844E0,-4.513192368E1,3.265126038E1,1.777627945E1
4.085827053E0,-4.386313248E1,3.091078186E1,1.725195122E1
4.088271428E0,-4.257011032E1,2.889243698E1,1.673001862E1
4.090715074E0,-4.127021027E1,2.663480759E1,1.616022682E1
4.093159605E0,-3.994877243E1,2.426232338E1,1.557607937E1
4.095604813E0,-3.849303818E1,2.185634041E1,1.490818214E1
4.098049188E0,-3.691766357E1,1.944766617E1,1.422114277E1
4.100492834E0,-3.515565109E1,1.708236122E1,1.360828114E1
4.102937313E0,-3.324767303E1,1.472662735E1,1.294965744E1
4.105382521E0,-3.127239799E1,1.244746304E1,1.217647648E1
4.107827001E0,-2.922294426E1,1.026640511E1,1.142483044E1
4.110270594E0,-2.712832832E1,8.154739380E0,1.066092205E1
4.112715074E0,-2.500948334E1,6.086443424E0,1.009113121E1
4.115160282E0,-2.296242332E1,4.070490360E0,9.744172096E0
4.117604657E0,-2.094198418E1,2.023430586E0,9.602995872E0
4.120048303E0,-1.899781609E1,-4.247260094E-2,9.691530228E0
4.122492782E0,-1.713290977E1,-2.099103689E0,9.906884193E0
4.124938042E0,-1.539003658E1,-4.172484398E0,1.014377308E1
4.127382417E0,-1.376919842E1,-6.123532295E0,1.033310509E1
4.129826063E0,-1.227996540E1,-8.000402451E0,1.035464096E1
4.132270542E0,-1.090828037E1,-9.810572624E0,1.024696350E1
4.134715751E0,-9.588937759E0,-1.153669548E1,9.952347755E0
4.137160126E0,-8.312965393E0,-1.318385410E1,9.492626190E0
4.139603771E0,-7.032206535E0,-1.482144260E1,8.872586250E0
4.142048303E0,-5.694020748E0,-1.640369606E1,8.135297775E0
4.144493511E0,-4.276572227E0,-1.792403603E1,7.304390430E0
4.146937886E0,-2.866601467E0,-1.939412689E1,6.406782627E0
4.149381532E0,-1.427617788E0,-2.080648994E1,5.508875847E0
4.151826613E0,4.965107143E-2,-2.212104797E1,4.639982224E0
4.154271873E0,1.605584025E0,-2.336830521E1,3.885644913E0
4.156716248E0,3.235993624E0,-2.449831581E1,3.303889751E0
4.159159894E0,5.027021408E0,-2.554457855E1,2.980858803E0
4.161604373E0,6.973283291E0,-2.655255508E1,2.918645382E0
4.164049582E0,8.994022369E0,-2.741666222E1,3.107678413E0
4.166494061E0,1.100010490E1,-2.823081970E1,3.397209883E0
4.168937603E0,1.312852097E1,-2.907100105E1,3.797110319E0
4.171382134E0,1.530718517E1,-2.986571693E1,4.120440483E0
4.173827342E0,1.767249107E1,-3.063201904E1,4.345366001E0
4.176271717E0,2.016491508E1,-3.131666374E1,4.481756687E0
4.178715363E0,2.263311195E1,-3.191995430E1,4.534399033E0
4.181159842E0,2.509173584E1,-3.248495865E1,4.491328239E0
4.183605103E0,2.742832756E1,-3.292553711E1,4.402793884E0
4.186049478E0,2.960460091E1,-3.328475952E1,4.232903481E0
4.188493123E0,3.154398346E1,-3.354557800E1,4.010370731E0
4.190937603E0,3.317917633E1,-3.372982788E1,3.787539244E0
4.193382811E0,3.457239914E1,-3.383062363E1,3.584149122E0
4.195827186E0,3.569283676E1,-3.390480042E1,3.390031576E0
4.198270832E0,3.670081329E1,-3.389044571E1,3.210569859E0
4.200715311E0,3.751945877E1,-3.380160904E1,3.047857761E0
4.203160571E0,3.814697647E1,-3.368436432E1,2.846561670E0
4.205604946E0,3.854179382E1,-3.350729370E1,2.597707987E0
4.208048592E0,3.865904236E1,-3.326322556E1,2.197807550E0
4.210493071E0,3.841018677E1,-3.296621704E1,1.668694735E0
4.212938280E0,3.779971695E1,-3.260460281E1,9.625129104E-1
4.215382759E0,3.673670578E1,-3.213560867E1,1.845464408E-1
4.217826353E0,3.524747467E1,-3.157299614E1,-7.109674215E-1
4.220270832E0,3.348785019E1,-3.089283562E1,-1.591825247E0
4.222716040E0,3.140998459E1,-3.010769081E1,-2.456232548E0
4.225160415E0,2.906591606E1,-2.927439117E1,-3.215056419E0
4.227604061E0,2.657618332E1,-2.841267586E1,-3.873381615E0
4.230048540E0,2.398086929E1,-2.756980324E1,-4.361816406E0
4.232493801E0,2.118455696E1,-2.670330238E1,-4.658825874E0
4.234938176E0,1.823270988E1,-2.580300331E1,-4.776073933E0
4.237381821E0,1.524018669E1,-2.489103889E1,-4.673182487E0
4.239826301E0,1.223779202E1,-2.392134666E1,-4.395316124E0
4.242271509E0,9.321838379E0,-2.282244301E1,-3.938287020E0
4.244715884E0,6.458527565E0,-2.163021851E1,-3.262912750E0
4.247159530E0,3.671786308E0,-2.033959007E1,-2.427518606E0
4.249604061E0,9.879366755E-1,-1.901336861E1,-1.500898004E0
4.252049269E0,-1.465902925E0,-1.762732697E1,-5.219344497E-1
4.254493644E0,-3.733102322E0,-1.623619843E1,4.310071766E-1
4.256937290E0,-5.753840923E0,-1.482862091E1,1.448554993E0
4.259381769E0,-7.563712597E0,-1.346860027E1,2.456531525E0
4.261827030E0,-9.213264465E0,-1.212084293E1,3.457329512E0
4.264271405E0,-1.073599720E1,-1.076800060E1,4.417150497E0
4.266715051E0,-1.219621658E1,-9.403493881E0,5.343770981E0
4.269159530E0,-1.362323666E1,-7.998009682E0,6.325426579E0
4.271604738E0,-1.499970818E1,-6.494719028E0,7.345067978E0
4.274049113E0,-1.629482269E1,-4.952843666E0,8.511270523E0
4.276492759E0,-1.763330841E1,-3.300898790E0,9.837491989E0
4.278937290E0,-1.902652931E1,-1.577169180E0,1.140808105E1
4.281382498E0,-2.047269058E1,2.422732860E-1,1.313181114E1
4.283826873E0,-2.209352875E1,2.112264156E0,1.489143276E1
4.286270519E0,-2.386033058E1,4.058526516E0,1.671087456E1
4.288714998E0,-2.572523689E1,6.146264076E0,1.844417572E1
4.291160259E0,-2.761197662E1,8.377571106E0,1.995973015E1
4.293604634E0,-2.952952576E1,1.067109203E1,2.132902336E1
4.296048280E0,-3.143271637E1,1.302682590E1,2.258375931E1
4.298492759E0,-3.330749130E1,1.541845226E1,2.371616173E1
4.300937967E0,-3.502404404E1,1.776222229E1,2.478396034E1
4.303382342E0,-3.654199219E1,2.000549316E1,2.566960335E1
4.305825988E0,-3.800460434E1,2.217937279E1,2.649572563E1
4.308270467E0,-3.939573288E1,2.427668190E1,2.714208603E1
4.310715728E0,-4.082723618E1,2.623999214E1,2.772862625E1
4.313160103E0,-4.221597290E1,2.811686325E1,2.814288521E1
4.315603748E0,-4.360680008E1,2.981666374E1,2.839652443E1
4.318048228E0,-4.490191650E1,3.131546783E1,2.853052139E1
4.320493436E0,-4.601039124E1,3.256751251E1,2.847788048E1
4.322937915E0,-4.687479782E1,3.354438400E1,2.836780930E1
4.325381509E0,-4.746612549E1,3.430559921E1,2.810429955E1
4.327825988E0,-4.784927368E1,3.477489090E1,2.770709229E1
4.330271196E0,-4.789234543E1,3.501895905E1,2.715644264E1
4.332715571E0,-4.769344330E1,3.503570938E1,2.634228516E1
4.335159217E0,-4.726512527E1,3.481317520E1,2.521227455E1
4.337603696E0,-4.657061005E1,3.426970673E1,2.384058952E1
4.340048957E0,-4.573760986E1,3.341487122E1,2.235614204E1
4.342493332E0,-4.476073837E1,3.227050400E1,2.085285187E1
4.344936978E0,-4.365944290E1,3.087488937E1,1.948565292E1
4.347381457E0,-4.250071716E1,2.922533798E1,1.828624916E1
4.349826665E0,-4.125106430E1,2.735564613E1,1.723759460E1
4.352271040E0,-4.000141525E1,2.531097794E1,1.645723534E1
4.354714738E0,-3.873232269E1,2.311556435E1,1.585394573E1
4.357159217E0,-3.735585022E1,2.086989975E1,1.539661694E1
4.359604426E0,-3.589533234E1,1.864337921E1,1.502543068E1
4.362048801E0,-3.439682388E1,1.640489388E1,1.480768394E1
4.364492446E0,-3.278795242E1,1.419751358E1,1.472632790E1
4.366936926E0,-3.109293556E1,1.204516983E1,1.477896976E1
4.369382186E0,-2.935245705E1,9.911968231E0,1.482921886E1
4.371826561E0,-2.764786911E1,7.862815380E0,1.475264931E1
4.374270207E0,-2.602942467E1,5.813362598E0,1.459442329E1
4.376714686E0,-2.447558403E1,3.847957850E0,1.434556961E1
4.379159894E0,-2.302702904E1,1.879861236E0,1.393131256E1
4.381604373E0,-2.163380814E1,-7.357929647E-2,1.339502144E1
4.384047915E0,-2.030998039E1,-1.996212244E0,1.273190975E1
4.386492446E0,-1.903849411E1,-3.964009762E0,1.202812099E1
4.388937655E0,-1.781277084E1,-6.011069775E0,1.133151054E1
4.391382030E0,-1.657986832E1,-8.132307053E0,1.057717323E1
4.393825676E0,-1.525364590E1,-1.025832939E1,9.835099220E0
4.396270155E0,-1.372852039E1,-1.246780205E1,9.085846901E0
4.398715415E0,-1.198325539E1,-1.465843105E1,8.336295128E0
4.401159790E0,-1.004626560E1,-1.682273865E1,7.596613884E0
4.403603436E0,-7.869993687E0,-1.893201256E1,6.806683064E0
4.406047915E0,-5.566901684E0,-2.088306046E1,6.042774677E0
4.408493123E0,-3.113062143E0,-2.270519447E1,5.286343575E0
4.410937498E0,-6.879364848E-1,-2.433321190E1,4.541876316E0
4.413381144E0,1.732702732E0,-2.578386116E1,3.847359657E0
4.415825676E0,4.121936321E0,-2.711516762E1,3.244069338E0
4.418270884E0,6.535097599E0,-2.830739021E1,2.691028118E0
4.420715259E0,9.125627518E0,-2.929592514E1,2.336890459E0
4.423158905E0,1.194108200E1,-3.019144058E1,2.133201361E0
4.425603384E0,1.493839169E1,-3.090240669E1,1.970489502E0
4.428048644E0,1.812264061E1,-3.139801979E1,1.805384636E0
4.430493019E0,2.135235214E1,-3.173331451E1,1.486840129E0
4.432936665E0,2.444776726E1,-3.203480911E1,9.912267923E-1
4.435381144E0,2.739482880E1,-3.231985474E1,2.922234535E-1
4.437826353E0,3.000210762E1,-3.263331604E1,-5.530411601E-1
4.440270832E0,3.231476974E1,-3.299253845E1,-1.484148264E0
4.442714373E0,3.440250778E1,-3.327997589E1,-2.350948334E0
4.445158905E0,3.615255737E1,-3.347140121E1,-3.243770123E0
4.447604113E0,3.765615082E1,-3.353361511E1,-4.048357010E0
4.450048488E0,3.888187408E1,-3.342354584E1,-4.694717884E0
4.452492134E0,3.968855286E1,-3.316960526E1,-5.211866856E0
4.454936613E0,4.014827347E1,-3.284178925E1,-5.551647663E0
4.457381873E0,4.034687805E1,-3.247778320E1,-5.717051506E0
4.459826248E0,4.030859375E1,-3.209702301E1,-5.697908878E0
4.462269894E0,3.996641922E1,-3.176442146E1,-5.501398563E0
4.464714373E0,3.944927216E1,-3.151526833E1,-5.147260666E0
4.467159582E0,3.870719528E1,-3.127120018E1,-4.821537495E0
4.469603957E0,3.774229050E1,-3.100290489E1,-4.572684288E0
4.472047603E0,3.657878113E1,-3.070858765E1,-4.441078663E0
4.474492134E0,3.524268723E1,-3.033979416E1,-4.570291042E0
4.476937342E0,3.378725433E1,-2.987289429E1,-4.823930264E0
4.479381717E0,3.216402435E1,-2.924567604E1,-5.281258583E0
4.481825363E0,3.032783127E1,-2.849642372E1,-5.781657696E0
4.484269842E0,2.821616554E1,-2.765863609E1,-6.298806667E0
4.486715103E0,2.571656227E1,-2.677747917E1,-6.753741741E0
4.489159478E0,2.287957191E1,-2.588675117E1,-7.004988194E0
4.491603123E0,1.982004929E1,-2.497957230E1,-7.048058987E0
4.494047603E0,1.659033585E1,-2.403141785E1,-6.849454880E0
4.496492811E0,1.333191013E1,-2.308326149E1,-6.396912098E0
4.498937186E0,1.009292603E1,-2.212822533E1,-5.726622581E0
4.501380832E0,7.013961315E0,-2.116092682E1,-4.945964336E0
4.503825311E0,4.160221100E0,-2.019123650E1,-4.129712582E0
4.506270571E0,1.596012712E0,-1.916650963E1,-3.375674486E0
4.508714946E0,-6.520441771E-1,-1.805085564E1,-2.731407166E0
4.511158592E0,-2.550449848E0,-1.696152306E1,-2.281556368E0
4.513603071E0,-4.190430641E0,-1.590359688E1,-1.967797518E0
4.516048332E0,-5.670092583E0,-1.489322758E1,-1.659123421E0
4.518492707E0,-7.039385319E0,-1.393071461E1,-1.285543919E0
4.520936353E0,-8.272287369E0,-1.299930859E1,-7.755736113E-1
4.523380832E0,-9.373583794E0,-1.208016491E1,-1.651047617E-1
4.525826040E0,-1.037916756E1,-1.116550827E1,5.841478109E-1
4.528270519E0,-1.132732296E1,-1.024367332E1,1.467697620E0
4.530714061E0,-1.220578861E1,-9.336494446E0,2.466102839E0
4.533158540E0,-1.307019520E1,-8.397910118E0,3.459722519E0
4.535603801E0,-1.390798283E1,-7.457231998E0,4.503292084E0
4.538048176E0,-1.470778370E1,-6.485147476E0,5.556732178E0
4.540491821E0,-1.546660709E1,-5.467599869E0,6.622136593E0
4.542936301E0,-1.622782326E1,-4.411766529E0,7.682755470E0
4.545381561E0,-1.700848198E1,-3.276970625E0,8.748159409E0
4.547825936E0,-1.783909035E1,-2.077568293E0,9.715457916E0
4.550269582E0,-1.867239189E1,-8.566305041E-1,1.062263680E1
4.552714061E0,-1.955324936E1,4.579264224E-1,1.142722321E1
4.555159269E0,-2.052533340E1,1.824826360E0,1.213101292E1
4.557603644E0,-2.167209435E1,3.297309637E0,1.280369473E1
4.560047290E0,-2.305095863E1,4.898705959E0,1.354846096E1
4.562491769E0,-2.452583313E1,6.644270420E0,1.432642746E1
4.564937030E0,-2.620170784E1,8.528319359E0,1.525783348E1
4.567381405E0,-2.797568512E1,1.052991486E1,1.634955978E1
4.569825051E0,-2.984807014E1,1.267717457E1,1.767817307E1
4.572269530E0,-3.179911804E1,1.487498188E1,1.919133568E1
4.574714790E0,-3.377917862E1,1.722592926E1,2.085763741E1
4.577159165E0,-3.580918884E1,1.970160484E1,2.258615112E1
4.579602811E0,-3.779882050E1,2.218415833E1,2.426202583E1
4.582047290E0,-3.961347961E1,2.460479736E1,2.579881477E1
4.584492498E0,-4.121995926E1,2.682174683E1,2.707508659E1
4.586936873E0,-4.252464676E1,2.881108093E1,2.801098061E1
4.589380519E0,-4.357329941E1,3.051088142E1,2.841566658E1
4.591824998E0,-4.430340958E1,3.183710289E1,2.826731110E1
4.594270259E0,-4.478705978E1,3.279961777E1,2.760180664E1
4.596714634E0,-4.503860474E1,3.346511841E1,2.651725960E1
4.599158280E0,-4.502425003E1,3.379323578E1,2.516681099E1
4.601602759E0,-4.472245407E1,3.378605652E1,2.361566353E1
4.604047967E0,-4.422684097E1,3.357070160E1,2.195414734E1
4.606492446E0,-4.351826477E1,3.313012314E1,2.036920166E1
4.608936040E0,-4.260839462E1,3.250769043E1,1.890868187E1
4.611380519E0,-4.154299164E1,3.173421288E1,1.757049751E1
4.613825728E0,-4.036512375E1,3.075764084E1,1.647398567E1
4.616270103E0,-3.912982941E1,2.961566734E1,1.560000706E1
4.618713748E0,-3.772225189E1,2.832264519E1,1.496082401E1
4.621158228E0,-3.621148300E1,2.688156700E1,1.453938866E1
4.623603488E0,-3.456671524E1,2.532772827E1,1.424985695E1
4.626047863E0,-3.285734177E1,2.364228439E1,1.409671593E1
4.628491509E0,-3.115514946E1,2.185634041E1,1.398395443E1
4.630935988E0,-2.953909683E1,2.005843353E1,1.395524120E1
4.633381196E0,-2.802593613E1,1.829611969E1,1.394566917E1
4.635825676E0,-2.656810760E1,1.652931976E1,1.406531048E1
4.638269217E0,-2.509083939E1,1.477926922E1,1.405095387E1
4.640713748E0,-2.353700066E1,1.302443314E1,1.397199059E1
4.643158957E0,-2.195953178E1,1.124566841E1,1.383559990E1
4.645603332E0,-2.040808487E1,9.555438042E0,1.375424385E1
4.648046978E0,-1.892842293E1,7.905886173E0,1.371117306E1
4.650491457E0,-1.755195236E1,6.253941059E0,1.372074413E1
4.652936717E0,-1.622782326E1,4.642673969E0,1.368724442E1
4.655381092E0,-1.506909943E1,3.081656456E0,1.359392452E1
4.657824738E0,-1.407308769E1,1.597508192E0,1.337109280E1
4.660269217E0,-1.322333622E1,2.566302419E-1,1.293051434E1
4.662714426E0,-1.247886944E1,-9.978070259E-1,1.232961655E1
4.665158905E0,-1.182503033E1,-2.115853310E0,1.158993530E1
4.667602498E0,-1.125045395E1,-3.174079180E0,1.071864891E1
4.670046978E0,-1.066152000E1,-4.129413605E0,9.765707016E0
4.672492186E0,-1.002233791E1,-5.115555763E0,8.738588333E0
4.674936561E0,-9.282656670E0,-6.054140568E0,7.584649563E0
4.677380207E0,-8.456534386E0,-7.007081985E0,6.327819347E0
4.679824686E0,-7.515855789E0,-7.954938889E0,4.910371304E0
4.682269946E0,-6.507879257E0,-8.804988861E0,3.361317635E0
4.684714321E0,-5.516652584E0,-9.544670105E0,1.723729610E0
4.687157967E0,-4.604688168E0,-1.011206818E1,1.079761237E-1
4.689602446E0,-3.807279825E0,-1.054307556E1,-1.292722464E0
4.692047655E0,-3.101098061E0,-1.087358475E1,-2.420340061E0
4.694492134E0,-2.437987089E0,-1.114636612E1,-3.174378395E0
4.696935676E0,-1.746162295E0,-1.139073277E1,-3.564707518E0
4.699380207E0,-1.027717352E0,-1.164437199E1,-3.634099483E0
4.701825415E0,-3.095714152E-1,-1.192433262E1,-3.564707518E0
4.704269790E0,3.607180119E-1,-1.230509090E1,-3.418745279E0
4.706713436E0,1.035793066E0,-1.277198982E1,-3.320639610E0
4.709157915E0,1.732702732E0,-1.336570930E1,-3.320639610E0
4.711603176E0,2.572882652E0,-1.412453270E1,-3.509672642E0
4.714047551E0,3.604787350E0,-1.499372578E1,-3.770490170E0
4.716491196E0,4.854438782E0,-1.598734570E1,-4.077070713E0
4.718935676E0,6.417849541E0,-1.701207161E1,-4.424029827E0
4.721380884E0,8.294719696E0,-1.802453423E1,-4.776073933E0
4.723825363E0,1.039920712E1,-1.905883217E1,-5.037190914E0
4.726268905E0,1.256830120E1,-2.015295029E1,-5.034798145E0
4.728713436E0,1.469671631E1,-2.141935158E1,-4.776073933E0
4.731158644E0,1.673390579E1,-2.276980209E1,-4.242175579E0
4.733603019E0,1.874028778E1,-2.427578354E1,-3.392424345E0
4.736046665E0,2.071317101E1,-2.581496620E1,-2.168794632E0
4.738491144E0,2.276232338E1,-2.738555527E1,-5.673980713E-1
4.740936405E0,2.497688103E1,-2.889153862E1,1.352842093E0
4.743380780E0,2.730629349E1,-3.033500862E1,3.576970816E0
4.745824426E0,2.962852859E1,-3.164478111E1,6.083452702E0
4.748268905E0,3.175933647E1,-3.279393387E1,8.831908226E0
4.750714113E0,3.362215042E1,-3.377050400E1,1.175982571E1
4.753158488E0,3.506322479E1,-3.451287842E1,1.468564987E1
4.755602134E0,3.613341522E1,-3.510420227E1,1.747717667E1
4.758046665E0,3.685874176E1,-3.557110214E1,2.010808563E1
4.760491873E0,3.714139175E1,-3.593002701E1,2.258615112E1
4.762936248E0,3.696163177E1,-3.610260773E1,2.459702110E1
4.765379894E0,3.629612732E1,-3.608107376E1,2.615803719E1
4.767824373E0,3.516372681E1,-3.579841995E1,2.705115891E1
4.770269634E0,3.356920624E1,-3.530759430E1,2.729762077E1
4.772714009E0,3.147698402E1,-3.464448166E1,2.695993233E1
4.775157655E0,2.891516876E1,-3.368675613E1,2.596182632E1
4.777602134E0,2.605424881E1,-3.249692535E1,2.442952347E1
4.780047342E0,2.299233437E1,-3.106781006E1,2.266032982E1
4.782491717E0,1.982722664E1,-2.955943489E1,2.087199402E1
4.784935363E0,1.662144279E1,-2.793620491E1,1.907857323E1
4.787379894E0,1.341835117E1,-2.627229500E1,1.724955940E1
4.789825103E0,1.016471100E1,-2.453420830E1,1.550668716E1
4.792269478E0,6.930212498E0,-2.266451645E1,1.391456318E1
4.794713123E0,3.808177233E0,-2.071556282E1,1.234397411E1
4.797157603E0,8.754739761E-1,-1.863500404E1,1.078086281E1
4.799602863E0,-1.798804402E0,-1.651167297E1,9.389735222E0
4.802047238E0,-4.257429600E0,-1.432582951E1,8.216653824E0
4.804490884E0,-6.450451851E0,-1.212084293E1,7.261319637E0
4.806935363E0,-8.475975990E0,-9.901499748E0,6.607779503E0
4.809380571E0,-1.029302597E1,-7.629515171E0,6.138487339E0
4.811825051E0,-1.190907860E1,-5.446064472E0,5.920740604E0
4.814268592E0,-1.360648727E1,-3.298506021E0,5.982954025E0
4.816713123E0,-1.512413502E1,-1.205982566E0,6.207879066E0
4.819158332E0,-1.661336708E1,8.455637097E-1,6.643671989E0
4.821602707E0,-1.804995918E1,2.871088028E0,7.201498985E0
4.824046353E0,-1.945275116E1,4.913362026E0,7.766504288E0
4.826490832E0,-2.072632980E1,6.940980434E0,8.398508072E0
4.828936092E0,-2.188984108E1,8.949754715E0,8.901300430E0
4.831380467E0,-2.299592209E1,1.095344448E1,9.382556915E0
4.833824113E0,-2.404936218E1,1.286411381E1,9.713065147E0
4.836268592E0,-2.503341103E1,1.474576950E1,9.909276962E0
4.838713801E0,-2.605335236E1,1.656760406E1,1.000738239E1
4.841158176E0,-2.713072014E1,1.829611969E1,1.007198906E1
4.843601821E0,-2.820091057E1,1.985235214E1,1.001934624E1
4.846046353E0,-2.934288406E1,2.137269211E1,9.949954987E0
4.848491561E0,-3.041786003E1,2.271805573E1,9.777671814E0
4.850935936E0,-3.136811066E1,2.392942238E1,9.509376526E0
4.853379582E0,-3.211526871E1,2.499721909E1,9.222237587E0
4.855824061E0,-3.260131073E1,2.594298363E1,8.867800713E0
4.858269321E0,-3.284537888E1,2.673769951E1,8.443971634E0
4.860713696E0,-3.283341599E1,2.738914490E1,7.915158272E0
4.863157342E0,-3.263002396E1,2.787488747E1,7.352545738E0
4.865601821E0,-3.237129974E1,2.819104004E1,6.703492641E0
4.868047030E0,-3.203121948E1,2.841118050E1,6.011667728E0
4.870491405E0,-3.166751289E1,2.844946480E1,5.307878971E0
4.872935051E0,-3.125564766E1,2.832982445E1,4.584947109E0
4.875379530E0,-3.076242638E1,2.813361168E1,3.871287823E0
4.877824790E0,-3.025724220E1,2.780310440E1,3.165106058E0
4.880269165E0,-2.969462967E1,2.737000275E1,2.583351135E0
4.882712811E0,-2.906980324E1,2.688635254E1,2.039881229E0
4.885157290E0,-2.847608566E1,2.634049034E1,1.561017632E0
4.887602498E0,-2.791586494E1,2.572762871E1,1.132403374E0
4.890046978E0,-2.736760902E1,2.503071976E1,7.184450030E-1
4.892490571E0,-2.683849716E1,2.426711082E1,3.257229924E-1
4.894935051E0,-2.635724068E1,2.345803642E1,-9.092725813E-2
4.897380259E0,-2.588824654E1,2.252663040E1,-5.096712112E-1
4.899824634E0,-2.550031090E1,2.154258156E1,-9.382855892E-1
4.902268280E0,-2.507169724E1,2.048914146E1,-1.378864050E0
4.904712759E0,-2.458326149E1,1.936152458E1,-1.910369754E0
4.907158019E0,-2.397518539E1,1.813819313E1,-2.439482689E0
4.909602394E0,-2.328096771E1,1.685743523E1,-3.004487991E0
4.912046040E0,-2.248116684E1,1.550459385E1,-3.540779352E0
4.914490519E0,-2.159073830E1,1.410897923E1,-4.084249020E0
4.916935780E0,-2.063779640E1,1.264606762E1,-4.591826439E0
4.919380155E0,-1.957957077E1,1.114038372E1,-5.018048286E0
4.921823801E0,-1.843998909E1,9.629615784E0,-5.415256977E0
4.924268280E0,-1.718794441E1,8.092526436E0,-5.705087185E0
4.926713488E0,-1.576810265E1,6.598806858E0,-5.879763603E0
4.929157863E0,-1.431984711E1,5.092823982E0,-5.858228207E0
4.931601509E0,-1.278993607E1,3.646661758E0,-5.580660820E0
4.934045988E0,-1.122891808E1,2.148156643E0,-5.077868938E0
4.936491248E0,-9.684949875E0,7.043871880E-1,-4.333102703E0
4.938935623E0,-8.178966522E0,-6.840481758E-1,-3.397209883E0
4.941379269E0,-6.728019238E0,-1.933998942E0,-2.358126640E0
4.943823748E0,-5.420939922E0,-3.083152056E0,-1.280758262E0
4.946269009E0,-4.204787731E0,-4.162913322E0,-2.919243574E-1
4.948713384E0,-3.072384357E0,-5.089234829E0,6.203392744E-1
4.951156978E0,-2.040479422E0,-5.967998981E0,1.403091431E0
4.953601509E0,-1.113858938E0,-6.774679184E0,2.070987940E0
4.956046717E0,-3.215355575E-1,-7.519444942E0,2.621636391E0
4.958491092E0,3.296113312E-1,-8.263912201E0,3.117249727E0
4.960934738E0,8.228318691E-1,-9.022735596E0,3.529114246E0
4.963379217E0,1.256231904E0,-9.824930191E0,3.873680830E0
4.965824478E0,1.665703654E0,-1.075842953E1,4.177868366E0
4.968268853E0,2.161017895E0,-1.174965668E1,4.438685894E0
4.970712498E0,2.783750057E0,-1.274327564E1,4.769194603E0
4.973156978E0,3.504288673E0,-1.378953743E1,5.152345181E0
4.975602186E0,4.375575542E0,-1.478076458E1,5.722136021E0
4.978046665E0,5.338088036E0,-1.577169228E1,6.452246189E0
4.980490207E0,6.403492451E0,-1.670549202E1,7.223034382E0
4.982934738E0,7.555038452E0,-1.763211250E1,8.252546310E0
4.985379946E0,8.811868668E0,-1.858236122E1,9.423234940E0
4.987824321E0,1.016231823E1,-1.949462509E1,1.068724346E1
4.990267967E0,1.163210869E1,-2.039731789E1,1.198983574E1
4.992712446E0,1.321944809E1,-2.124467659E1,1.326820183E1
4.995157707E0,1.480439377E1,-2.203251266E1,1.445803261E1
4.997602082E0,1.644915962E1,-2.279851532E1,1.553300858E1
5.000045728E0,1.803410530E1,-2.351426888E1,1.651226997E1
5.002490207E0,1.951825523E1,-2.418455696E1,1.735245132E1
5.004935415E0,2.087588120E1,-2.480938339E1,1.809243202E1
5.007379894E0,2.205614090E1,-2.542972183E1,1.878186226E1
5.009823436E0,2.306411743E1,-2.598994255E1,1.946172333E1
5.012267967E0,2.391147614E1,-2.648047066E1,2.016072655E1
5.014713176E0,2.460090828E1,-2.686601448E1,2.091506386E1
5.017157551E0,2.504627228E1,-2.715584564E1,2.171217346E1
5.019601196E0,2.524039078E1,-2.731855774E1,2.247578239E1
5.022045676E0,2.523799706E1,-2.737119865E1,2.318944168E1
5.024490936E0,2.494577408E1,-2.728027153E1,2.386451721E1
5.026935311E0,2.447887421E1,-2.709841728E1,2.435295296E1
5.029378957E0,2.382294273E1,-2.675833702E1,2.464009094E1
5.031823436E0,2.301386833E1,-2.629383087E1,2.463291359E1
5.034268644E0,2.210160637E1,-2.567378998E1,2.429313278E1
5.036713123E0,2.108405685E1,-2.491975212E1,2.368026924E1
5.039156665E0,2.003301048E1,-2.406730843E1,2.282782745E1
5.041601196E0,1.893171310E1,-2.321038055E1,2.179831505E1
5.044046405E0,1.778973961E1,-2.237229347E1,2.067308998E1
5.046490780E0,1.657597923E1,-2.153211403E1,1.946890259E1
5.048934426E0,1.531436443E1,-2.067249298E1,1.823600006E1
5.051378905E0,1.404317665E1,-1.979641914E1,1.691456413E1
5.053824165E0,1.276211929E1,-1.890090561E1,1.557129383E1
5.056268540E0,1.153878880E1,-1.791207123E1,1.430489159E1
5.058712186E0,1.028435135E1,-1.688016701E1,1.307438278E1
5.061156665E0,9.039485931E0,-1.582194138E1,1.198265743E1
5.063601873E0,7.804191113E0,-1.476162243E1,1.099143124E1
5.066046353E0,6.537490368E0,-1.364836121E1,1.011745262E1
5.068489894E0,5.228018284E0,-1.253749371E1,9.277272224E0
5.070934426E0,3.932903051E0,-1.141226864E1,8.494520187E0
5.073379634E0,2.565704107E0,-1.027986526E1,7.828717709E0
5.075824009E0,1.158126116E0,-9.161818504E0,7.340282440E0
5.078267655E0,-2.497508675E-1,-8.029415131E0,6.990930557E0
5.080712134E0,-1.750947952E0,-6.897012234E0,6.825825691E0
5.083157394E0,-3.302095175E0,-5.714060307E0,6.844968319E0
5.085601769E0,-4.918148041E0,-4.526622295E0,6.933502674E0
5.088045415E0,-6.598806858E0,-3.327219963E0,7.165606499E0
5.090489894E0,-8.341678619E0,-2.077568293E0,7.393223763E0
5.092935103E0,-1.010369396E1,-8.327022791E-1,7.680362701E0
5.095379478E0,-1.196172047E1,5.273182988E-1,7.998907089E0
5.097823123E0,-1.385534000E1,1.920539260E0,8.302795410E0
5.100267655E0,-1.577318764E1,3.369094372E0,8.697910309E0
5.102712863E0,-1.768355751E1,4.889134884E0,9.150452614E0
