"Time (s)","Gyroscope x (rad/s)","Gyroscope y (rad/s)","Gyroscope z (rad/s)"
5.366356300E-2,-6.019899845E-1,1.359135192E-2,1.685938388E-1
5.610882400E-2,-6.093201637E-1,1.481304597E-2,1.588202864E-1
5.855314600E-2,-6.178719997E-1,1.969982497E-2,1.478250325E-1
6.099679200E-2,-6.239804626E-1,2.458660305E-2,1.356080920E-1
6.344127100E-2,-6.252021790E-1,2.214321308E-2,1.195733473E-1
6.588653200E-2,-6.252021790E-1,2.580829710E-2,1.073564067E-1
6.833090700E-2,-6.227588058E-1,2.458660305E-2,9.025268257E-2
7.077450100E-2,-6.166502833E-1,2.336490713E-2,8.170082420E-2
7.321898000E-2,-6.093201637E-1,2.214321308E-2,7.314895838E-2
7.566424000E-2,-5.995466113E-1,1.481304597E-2,6.826218218E-2
7.810861500E-2,-5.873296261E-1,8.704573847E-3,6.337540597E-2
8.055220900E-2,-5.726693273E-1,-1.068982761E-3,6.704048812E-2
8.299668800E-2,-5.567872524E-1,-1.206423342E-2,7.314895838E-2
8.544189600E-2,-5.421269536E-1,-2.916795574E-2,8.047912270E-2
8.788627100E-2,-5.213581324E-1,-4.749337584E-2,9.147437662E-2
9.032991700E-2,-5.005893111E-1,-6.948387623E-2,1.024696305E-1
9.277439600E-2,-4.822639227E-1,-9.636115283E-2,1.183516532E-1
9.521960500E-2,-4.627167881E-1,-1.269035190E-1,1.305686086E-1
9.766398000E-2,-4.382829070E-1,-1.659977436E-1,1.429382563E-1
1.001076260E-1,-4.175141156E-1,-2.014268786E-1,1.551551968E-1
1.025521050E-1,-3.943018913E-1,-2.368560284E-1,1.637070626E-1
1.049973130E-1,-3.710896969E-1,-2.649549842E-1,1.771457046E-1
1.074416880E-1,-3.490992188E-1,-2.893888950E-1,1.856975704E-1
1.098853340E-1,-3.258870244E-1,-3.052709103E-1,1.954711229E-1
1.123298130E-1,-3.038965166E-1,-3.199312389E-1,2.003578991E-1
1.147750210E-1,-2.819060087E-1,-3.284831047E-1,1.942494214E-1
1.172193960E-1,-2.611372173E-1,-3.272614181E-1,1.820324808E-1
1.196630420E-1,-2.391466945E-1,-3.235963285E-1,1.551551968E-1
1.221075210E-1,-2.208212912E-1,-3.235963285E-1,1.159082651E-1
1.245527300E-1,-2.012741715E-1,-3.211529553E-1,7.070557028E-2
1.269971050E-1,-1.817270666E-1,-3.174878657E-1,2.305948362E-2
1.294407510E-1,-1.670667231E-1,-3.150444627E-1,-2.580829710E-2
1.318852300E-1,-1.548497826E-1,-3.162661791E-1,-7.345438004E-2
1.343304380E-1,-1.450762302E-1,-3.101576865E-1,-1.101052165E-1
1.367748130E-1,-1.377460510E-1,-3.077143133E-1,-1.382041872E-1
1.392184590E-1,-1.304158866E-1,-3.016058207E-1,-1.626380831E-1
1.416629380E-1,-1.157555580E-1,-2.698417902E-1,-1.882936656E-1
1.441081460E-1,-7.666133344E-2,-1.586675793E-1,-2.310529798E-1
1.465525210E-1,-4.123219103E-2,-8.414421231E-2,-2.762556672E-1
1.489961670E-1,-1.313321572E-2,-4.749337584E-2,-3.067980409E-1
1.514406460E-1,6.413896102E-3,-4.382828996E-2,-3.226800561E-1
1.538858550E-1,1.374406368E-2,-6.337540597E-2,-3.214583695E-1
1.563302300E-1,8.857285604E-3,-9.147437662E-2,-3.031329513E-1
1.587738760E-1,-5.803049076E-3,-1.269035190E-1,-2.725905776E-1
1.612183550E-1,-2.535016090E-2,-1.672194302E-1,-2.286095917E-1
1.636635630E-1,-4.978405312E-2,-1.989834905E-1,-1.772984117E-1
1.661079380E-1,-7.421794534E-2,-2.295258641E-1,-1.223221645E-1
1.685515840E-1,-9.987352788E-2,-2.515163720E-1,-6.490252167E-2
1.709960630E-1,-1.243074164E-1,-2.722851634E-1,-1.359135192E-2
1.734412710E-1,-1.511846930E-1,-2.893888950E-1,3.161134571E-2
1.758856460E-1,-1.780619770E-1,-3.016058207E-1,7.559234649E-2
1.783292920E-1,-2.000524700E-1,-3.113794029E-1,1.159082651E-1
1.807737710E-1,-2.232646793E-1,-3.138227761E-1,1.514901221E-1
1.832189800E-1,-2.464768738E-1,-3.101576865E-1,1.808107942E-1
1.856633550E-1,-2.684673667E-1,-3.016058207E-1,2.052446753E-1
1.881070010E-1,-2.867927849E-1,-2.893888950E-1,2.247917950E-1
1.905514800E-1,-3.026748300E-1,-2.747285664E-1,2.394521236E-1
1.929966880E-1,-3.148917556E-1,-2.588465214E-1,2.467822880E-1
1.954410630E-1,-3.222219348E-1,-2.454078794E-1,2.528907657E-1
1.978847090E-1,-3.283303976E-1,-2.295258641E-1,2.553341687E-1
2.003291880E-1,-3.307738006E-1,-2.185306102E-1,2.541124523E-1
2.027743960E-1,-3.307738006E-1,-2.038702667E-1,2.504473627E-1
2.052187710E-1,-3.271087110E-1,-1.928750277E-1,2.492256761E-1
2.076624170E-1,-3.258870244E-1,-1.806580722E-1,2.480039895E-1
2.101068960E-1,-3.210002482E-1,-1.684411317E-1,2.443388999E-1
2.125521050E-1,-3.112266660E-1,-1.574458778E-1,2.406738251E-1
2.149964800E-1,-3.038965166E-1,-1.501157135E-1,2.370087355E-1
2.174401260E-1,-2.941229641E-1,-1.427855492E-1,2.333436459E-1
2.198846050E-1,-2.843494117E-1,-1.342336833E-1,2.284568697E-1
2.223298130E-1,-2.709107697E-1,-1.305686086E-1,2.247917950E-1
2.247741880E-1,-2.586938143E-1,-1.317902952E-1,2.199050188E-1
2.272178340E-1,-2.464768738E-1,-1.366770715E-1,2.113531530E-1
2.296623130E-1,-2.342599183E-1,-1.464506239E-1,1.979145110E-1
2.321075210E-1,-2.208212912E-1,-1.574458778E-1,1.759240031E-1
2.345518960E-1,-2.098260373E-1,-1.684411317E-1,1.453816444E-1
2.369955420E-1,-1.988307834E-1,-1.843231618E-1,1.049130186E-1
2.394400210E-1,-1.878355294E-1,-1.989834905E-1,5.604523420E-2
2.418852300E-1,-1.805053651E-1,-2.197522968E-1,-6.261184346E-3
2.443296050E-1,-1.743968874E-1,-2.429644912E-1,-8.078455180E-2
2.467732510E-1,-1.707318127E-1,-2.735068500E-1,-1.638597846E-1
2.492177300E-1,-1.719534993E-1,-3.101576865E-1,-2.579302490E-1
2.516629380E-1,-1.743968874E-1,-3.431434333E-1,-3.532224298E-1
2.541073130E-1,-1.768402755E-1,-3.810159862E-1,-4.485146105E-1
2.565509590E-1,-1.805053651E-1,-4.201101959E-1,-5.315898061E-1
2.589954380E-1,-1.853921413E-1,-4.604261220E-1,-6.073349118E-1
2.614406460E-1,-1.902789176E-1,-4.970769584E-1,-6.745280623E-1
2.638850210E-1,-1.951656938E-1,-5.288410187E-1,-7.258392572E-1
2.663286670E-1,-2.000524700E-1,-5.569399595E-1,-7.624900937E-1
2.687731460E-1,-2.086043358E-1,-5.789304972E-1,-7.844805717E-1
2.712183550E-1,-2.171562016E-1,-6.082511544E-1,-7.954758406E-1
2.736627300E-1,-2.257080674E-1,-6.363501549E-1,-7.905890942E-1
2.761063760E-1,-2.391466945E-1,-6.607840061E-1,-7.698202729E-1
2.785508550E-1,-2.513636351E-1,-6.864396334E-1,-7.380561829E-1
2.809960630E-1,-2.696890533E-1,-7.145385742E-1,-6.940752268E-1
2.834404380E-1,-2.904578745E-1,-7.438592315E-1,-6.403206587E-1
2.858840320E-1,-3.148917556E-1,-7.658497691E-1,-5.767925382E-1
2.883285630E-1,-3.405473530E-1,-7.792884111E-1,-5.034908652E-1
2.907737710E-1,-3.686463237E-1,-7.805100679E-1,-4.216373265E-1
2.932181460E-1,-4.004103839E-1,-7.695148587E-1,-3.275668323E-1
2.956617920E-1,-4.309527278E-1,-7.511894107E-1,-2.249445021E-1
2.981061670E-1,-4.614951015E-1,-7.304205894E-1,-1.125486046E-1
3.005514800E-1,-4.883723855E-1,-6.949914694E-1,2.290677279E-3
3.029958550E-1,-5.103628635E-1,-6.534538269E-1,1.207950488E-1
3.054394490E-1,-5.299099684E-1,-6.070294380E-1,2.406738251E-1
3.078839280E-1,-5.409052372E-1,-5.483881235E-1,3.616215885E-1
3.103291880E-1,-5.457920432E-1,-4.909684956E-1,4.727957845E-1
3.127735630E-1,-5.445703268E-1,-4.298837483E-1,5.790832043E-1
3.152171570E-1,-5.360184908E-1,-3.675773442E-1,6.817055345E-1
3.176616360E-1,-5.225798488E-1,-3.077143133E-1,7.721109390E-1
3.201068960E-1,-5.042544007E-1,-2.551814318E-1,8.527427912E-1
3.225512710E-1,-4.834856093E-1,-2.099787444E-1,9.223793745E-1
3.249948650E-1,-4.627167881E-1,-1.708845198E-1,9.822424054E-1
3.274393440E-1,-4.419479966E-1,-1.415638477E-1,1.032331824E0
3.298846050E-1,-4.211791754E-1,-1.183516532E-1,1.073869467E0
3.323289800E-1,-4.016320705E-1,-1.000262350E-1,1.111742020E0
3.347725740E-1,-3.808632791E-1,-8.780929446E-2,1.142284393E0
3.372170530E-1,-3.625378609E-1,-7.925742865E-2,1.165496588E0
3.396623130E-1,-3.454341292E-1,-7.681404054E-2,1.187487125E0
3.421066880E-1,-3.319954872E-1,-7.681404054E-2,1.205812454E0
3.445502820E-1,-3.185568452E-1,-8.047912270E-2,1.226581335E0
3.469947610E-1,-3.087832928E-1,-8.903098851E-2,1.248571754E0
3.494400210E-1,-2.990097404E-1,-1.000262350E-1,1.280335903E0
3.518843440E-1,-2.941229641E-1,-1.097997949E-1,1.318208337E0
3.543279900E-1,-2.904578745E-1,-1.183516532E-1,1.360967636E0
3.567724690E-1,-2.892361879E-1,-1.281252056E-1,1.413500547E0
3.592177300E-1,-2.892361879E-1,-1.391204596E-1,1.468476772E0
3.616621050E-1,-2.916795611E-1,-1.440072358E-1,1.530783176E0
3.641056990E-1,-2.929012477E-1,-1.476723254E-1,1.595533013E0
3.665501780E-1,-2.965663373E-1,-1.476723254E-1,1.665169597E0
3.689954380E-1,-3.051182032E-1,-1.488940120E-1,1.737249613E0
3.714398130E-1,-3.210002482E-1,-1.635543555E-1,1.801999450E0
3.738834070E-1,-3.442124426E-1,-1.928750277E-1,1.869192600E0
3.763278860E-1,-3.723114133E-1,-2.234173864E-1,1.938829184E0
3.787731460E-1,-4.028537571E-1,-2.564031482E-1,2.010909081E0
3.812175210E-1,-4.333961308E-1,-2.857238054E-1,2.081767559E0
3.836611150E-1,-4.578300118E-1,-3.040492237E-1,2.145295620E0
3.861055940E-1,-4.785988331E-1,-3.174878657E-1,2.214932203E0
3.885508550E-1,-4.932591617E-1,-3.358132839E-1,2.282125473E0
3.909952300E-1,-5.066977739E-1,-3.541387022E-1,2.339545012E0
3.934388240E-1,-5.213581324E-1,-3.700207174E-1,2.389634371E0
3.958833030E-1,-5.445703268E-1,-3.797942698E-1,2.431172132E0
3.983285630E-1,-5.702258945E-1,-3.846810758E-1,2.467823029E0
4.007729380E-1,-5.971031785E-1,-3.846810758E-1,2.497143507E0
4.032165320E-1,-6.337540150E-1,-3.797942698E-1,2.525242567E0
4.056610110E-1,-6.742226481E-1,-3.761292100E-1,2.548454762E0
4.081062710E-1,-7.169819474E-1,-3.736858070E-1,2.571666956E0
4.105506460E-1,-7.658497691E-1,-3.761292100E-1,2.599766016E0
4.129942400E-1,-8.208259940E-1,-3.810159862E-1,2.613204479E0
4.154387190E-1,-8.770239353E-1,-3.920112252E-1,2.627864838E0
4.178839280E-1,-9.332218766E-1,-4.054498672E-1,2.636416674E0
4.203284070E-1,-9.930849075E-1,-4.225535989E-1,2.632751703E0
4.227719490E-1,-1.050504565E0,-4.445441067E-1,2.618091345E0
4.252164280E-1,-1.105480790E0,-4.604261220E-1,2.589992285E0
4.276616360E-1,-1.155570269E0,-4.738647640E-1,2.547233105E0
4.301060110E-1,-1.200773001E0,-4.873034060E-1,2.495921850E0
4.325496570E-1,-1.236202121E0,-4.970769584E-1,2.429950476E0
4.349941360E-1,-1.263079405E0,-5.031854510E-1,2.355427027E0
4.374393960E-1,-1.283848286E0,-5.044071078E-1,2.274795294E0
4.398837190E-1,-1.296065211E0,-5.031854510E-1,2.186833143E0
4.423273650E-1,-1.298508525E0,-4.970769584E-1,2.093984365E0
4.447718440E-1,-1.294843435E0,-4.897467792E-1,1.995027184E0
4.472170530E-1,-1.286291599E0,-4.836383164E-1,1.891183138E0
4.496614280E-1,-1.269187927E0,-4.885250926E-1,1.775122166E0
4.521050740E-1,-1.247197390E0,-4.970769584E-1,1.651731014E0
4.545495530E-1,-1.217876673E0,-5.117372870E-1,1.512457848E0
4.569947610E-1,-1.181225896E0,-5.239542127E-1,1.365854502E0
4.594391360E-1,-1.138466597E0,-5.300627351E-1,1.202147365E0
4.618827820E-1,-1.090820551E0,-5.288410187E-1,1.023779988E0
4.643272610E-1,-1.037065983E0,-5.239542127E-1,8.356390595E-1
4.667724690E-1,-9.759812355E-1,-5.117372870E-1,6.413896084E-1
4.692168440E-1,-9.124531150E-1,-4.909684956E-1,4.361449480E-1
4.716604900E-1,-8.464815617E-1,-4.616478086E-1,2.211267054E-1
4.741049690E-1,-7.768449783E-1,-4.262186885E-1,-1.527118147E-4
4.765501780E-1,-7.072083950E-1,-3.907895386E-1,-2.310529798E-1
4.789945530E-1,-6.374191046E-1,-3.565820754E-1,-4.729484916E-1
4.814381990E-1,-5.653391480E-1,-3.223746419E-1,-7.172874212E-1
4.838826780E-1,-4.932591617E-1,-2.930539846E-1,-9.775083065E-1
4.863278860E-1,-4.175141156E-1,-2.698417902E-1,-1.245059371E0
4.887722610E-1,-3.393256664E-1,-2.490729690E-1,-1.517497301E0
4.912159070E-1,-2.635805905E-1,-2.331909388E-1,-1.800930381E0
4.936603860E-1,-1.878355294E-1,-2.221956849E-1,-2.094137192E0
4.961055940E-1,-1.157555580E-1,-2.099787444E-1,-2.395895720E0
4.985499690E-1,-4.856235534E-2,-1.977618039E-1,-2.701319218E0
5.009936150E-1,8.857285604E-3,-1.794363856E-1,-3.014073133E0
5.034380940E-1,5.894676223E-2,-1.513374150E-1,-3.325605154E0
5.058833030E-1,9.315420687E-2,-1.122431830E-1,-3.633472204E0
5.083276780E-1,1.139230132E-1,-6.337540597E-2,-3.940117598E0
5.107713240E-1,1.224748790E-1,-7.177455351E-3,-4.235767841E0
5.132158030E-1,1.139230132E-1,5.757235363E-2,-4.521644115E0
5.156610110E-1,9.071081877E-2,1.296523362E-1,-4.794082165E0
5.181053860E-1,5.405998230E-2,2.066190839E-1,-5.049416065E0
5.205490320E-1,-2.137965523E-3,2.872509360E-1,-5.292685986E0
5.229935110E-1,-6.810946763E-2,3.739912212E-1,-5.518699646E0
5.254387190E-1,-1.475196183E-1,4.607315361E-1,-5.733717918E0
5.278830940E-1,-2.330382317E-1,5.596888065E-1,-5.935297489E0
5.303267400E-1,-3.246653080E-1,6.647545099E-1,-6.124660015E0
5.327712190E-1,-4.114056230E-1,7.722636461E-1,-6.303027630E0
5.352164280E-1,-4.981459379E-1,8.797727823E-1,-6.474064827E0
5.376608030E-1,-5.775560737E-1,9.860602021E-1,-6.634106636E0
5.401044490E-1,-6.520794630E-1,1.082574010E0,-6.786818504E0
5.425489280E-1,-7.157602906E-1,1.174201131E0,-6.934643745E0
5.449941360E-1,-7.731798887E-1,1.256054640E0,-7.070251465E0
5.474385110E-1,-8.269344568E-1,1.330578089E0,-7.197308064E0
5.498821570E-1,-8.745805621E-1,1.403879762E0,-7.314590454E0
5.523266360E-1,-9.185615778E-1,1.474738002E0,-7.414769650E0
5.547718440E-1,-9.564340711E-1,1.551704764E0,-7.500288010E0
5.572162190E-1,-9.894198179E-1,1.634779930E0,-7.572368145E0
5.596598650E-1,-1.017518878E0,1.723963618E0,-7.628565788E0
5.621043440E-1,-1.039509296E0,1.820477486E0,-7.657886505E0
5.645495530E-1,-1.055391312E0,1.921878219E0,-7.668881893E0
5.669939280E-1,-1.062721491E0,2.029387236E0,-7.654221535E0
5.694375740E-1,-1.062721491E0,2.143004894E0,-7.615127563E0
5.718820530E-1,-1.054169655E0,2.256622553E0,-7.556486130E0
5.743272610E-1,-1.041952729E0,2.371461868E0,-7.472188950E0
5.767716360E-1,-1.027292371E0,2.481414318E0,-7.362236500E0
5.792152820E-1,-1.013853788E0,2.588923454E0,-7.230293751E0
5.816597610E-1,-9.967499971E-1,2.681772232E0,-7.072694778E0
5.841049690E-1,-9.881981611E-1,2.757517338E0,-6.894327641E0
5.865493440E-1,-9.820896983E-1,2.810050011E0,-6.698856354E0
5.889929900E-1,-9.820896983E-1,2.844257593E0,-6.485059738E0
5.914374690E-1,-9.845330715E-1,2.850366116E0,-6.251716137E0
5.938826780E-1,-9.930849075E-1,2.825932026E0,-6.002490520E0
5.963270530E-1,-1.002858520E0,2.770955801E0,-5.734939575E0
5.987706990E-1,-1.011410356E0,2.684215546E0,-5.451506138E0
6.012151780E-1,-1.015075445E0,2.562046051E0,-5.152038574E0
6.036603860E-1,-1.017518878E0,2.414221048E0,-4.833176136E0
6.061047610E-1,-1.012632012E0,2.244405508E0,-4.506983757E0
6.085484070E-1,-9.991934299E-1,2.056264639E0,-4.168574333E0
6.109928860E-1,-9.747595191E-1,1.857128382E0,-3.814282894E0
6.134380940E-1,-9.442171454E-1,1.651883721E0,-3.448996305E0
6.158824690E-1,-9.051229358E-1,1.441752195E0,-3.071492672E0
6.183261150E-1,-8.611419201E-1,1.237729311E0,-2.682993889E0
6.207705940E-1,-8.049439788E-1,1.033706307E0,-2.287164927E0
6.232158030E-1,-7.438592315E-1,8.296833038E-1,-1.890114188E0
6.256601780E-1,-6.778877378E-1,6.171084642E-1,-1.485733271E0
6.281038240E-1,-6.019899845E-1,3.996468186E-1,-1.081352353E0
6.305483030E-1,-5.238015056E-1,1.797417998E-1,-6.745280623E-1
6.329935110E-1,-4.370612204E-1,-3.771981969E-2,-2.652604282E-1
6.354378860E-1,-3.490992188E-1,-2.502946556E-1,1.417165697E-1
6.378815320E-1,-2.574721277E-1,-4.530959427E-1,5.412106514E-1
6.403260110E-1,-1.658450365E-1,-6.375718117E-1,9.345963001E-1
6.427712190E-1,-7.543963939E-2,-8.012788892E-1,1.324316859E0
6.452155940E-1,1.007897966E-2,-9.491039515E-1,1.699377060E0
6.476592400E-1,8.704573661E-2,-1.073716760E0,2.063441992E0
6.501037190E-1,1.591257155E-1,-1.177560806E0,2.423841953E0
6.525489280E-1,2.238755226E-1,-1.258192658E0,2.775689840E0
6.549933030E-1,2.825168669E-1,-1.327829242E0,3.116542816E0
6.574369490E-1,3.350497186E-1,-1.382805467E0,3.447621822E0
6.598814280E-1,3.826957941E-1,-1.432894945E0,3.766484261E0
6.623266360E-1,4.278984964E-1,-1.479319334E0,4.075572968E0
6.647710110E-1,4.779879749E-1,-1.526965380E0,4.377331257E0
6.672146570E-1,5.280774832E-1,-1.572168112E0,4.670537949E0
6.696591360E-1,5.781669021E-1,-1.624701023E0,4.957636356E0
6.721043440E-1,6.319214702E-1,-1.679677248E0,5.234961033E0
6.745487190E-1,6.820109487E-1,-1.733431816E0,5.502665043E0
6.769923650E-1,7.345438004E-1,-1.785964727E0,5.756777287E0
6.794368440E-1,7.895200849E-1,-1.836054206E0,6.004781246E0
6.818820530E-1,8.432746530E-1,-1.883700252E0,6.238124847E0
6.843264280E-1,9.019159675E-1,-1.924016118E0,6.460473537E0
6.867700740E-1,9.654440880E-1,-1.961888671E0,6.668161392E0
6.892145530E-1,1.037524104E0,-1.999761224E0,6.862411022E0
6.916597610E-1,1.115712523E0,-2.036412001E0,7.040778160E0
6.941041360E-1,1.202452779E0,-2.077949762E0,7.195933342E0
6.965477820E-1,1.295301557E0,-2.125595808E0,7.329098225E0
6.989922610E-1,1.394258857E0,-2.187902212E0,7.447602272E0
7.014374690E-1,1.500546336E0,-2.262425423E0,7.547781467E0
7.038818440E-1,1.608055353E0,-2.350387573E0,7.627191544E0
7.063254900E-1,1.722894669E0,-2.443388939E0,7.689497948E0
7.087699690E-1,1.842620730E0,-2.541124582E0,7.735922337E0
7.112151780E-1,1.964790225E0,-2.636416674E0,7.767686367E0
7.136595530E-1,2.084516287E0,-2.724378824E0,7.781125069E0
7.161031990E-1,2.205464125E0,-2.802567244E0,7.775016785E0
7.185476780E-1,2.322746754E0,-2.862430334E0,7.751804352E0
7.209928860E-1,2.433920860E0,-2.896637678E0,7.706601620E0
7.234372610E-1,2.541429996E0,-2.899080992E0,7.643073559E0
7.258809070E-1,2.636722088E0,-2.874647141E0,7.555111408E0
7.283253860E-1,2.718575716E0,-2.817227602E0,7.448824406E0
7.307705940E-1,2.784547329E0,-2.734152317E0,7.321767807E0
7.332149690E-1,2.828528166E0,-2.637638569E0,7.169055939E0
7.356586150E-1,2.852962017E0,-2.533794403E0,6.988245487E0
7.381030940E-1,2.854183912E0,-2.433615446E0,6.784222603E0
7.405483030E-1,2.829749823E0,-2.349165916E0,6.553322315E0
7.429926780E-1,2.782103777E0,-2.279529333E0,6.300431252E0
7.454363240E-1,2.711245537E0,-2.219666243E0,6.026771545E0
7.478808030E-1,2.613509893E0,-2.158581495E0,5.726234913E0
7.503260110E-1,2.490118742E0,-2.090166569E0,5.398668289E0
7.527703860E-1,2.343515396E0,-1.992431045E0,5.043155193E0
7.552140320E-1,2.171256542E0,-1.862931371E0,4.660764694E0
7.576585110E-1,1.974563718E0,-1.698002696E0,4.252718449E0
7.601037190E-1,1.755880475E0,-1.500088215E0,3.822682142E0
7.625480940E-1,1.522536755E0,-1.276518106E0,3.368211746E0
7.649917400E-1,1.283084631E0,-1.027292371E0,2.894194365E0
7.674362190E-1,1.054627776E0,-7.768449783E-1,2.401851416E0
7.698814280E-1,8.359444737E-1,-5.227325559E-1,1.882631302E0
7.723258030E-1,6.368082762E-1,-2.649549842E-1,1.336533785E0
7.747694490E-1,4.645493329E-1,-2.290677279E-3,7.696675658E-1
7.772139280E-1,3.179459870E-1,2.628170252E-1,1.820324808E-1
7.796591360E-1,2.018850148E-1,5.205945969E-1,-4.167505503E-1
7.821035110E-1,1.102579311E-1,7.771504521E-1,-1.022711039E0
7.845471570E-1,3.939964995E-2,1.023932695E0,-1.639666796E0
7.869916360E-1,-3.359660041E-3,1.262163162E0,-2.257844210E0
7.894368440E-1,-3.145863488E-2,1.494285107E0,-2.871134758E0
7.918812190E-1,-4.245388508E-2,1.714190125E0,-3.475873709E0
7.943248650E-1,-4.245388508E-2,1.925543308E0,-4.069617271E0
7.967693440E-1,-3.878879920E-2,2.134453058E0,-4.642591953E0
7.992145530E-1,-3.023693897E-2,2.339697599E0,-5.191132545E0
8.016589280E-1,-2.046338283E-2,2.540055513E0,-5.706840515E0
8.041025740E-1,-1.191152167E-2,2.734305143E0,-6.183301449E0
8.065470530E-1,-4.581354558E-3,2.917559147E0,-6.609672546E0
8.089922610E-1,-9.162708884E-4,3.081418991E0,-6.988398075E0
8.114366360E-1,-3.359660041E-3,3.229243994E0,-7.317033768E0
8.138802820E-1,-1.557660475E-2,3.364852190E0,-7.594358444E0
8.163247610E-1,-3.756710514E-2,3.484578133E0,-7.821593761E0
8.187699690E-1,-7.177454978E-2,3.585978746E0,-8.001182556E0
8.212143440E-1,-1.181989461E-1,3.675162554E0,-8.134347916E0
8.236579900E-1,-1.768402755E-1,3.746020794E0,-8.222309113E0
8.261024690E-1,-2.501419485E-1,3.799775362E0,-8.271177292E0
8.285476780E-1,-3.344388604E-1,3.844978094E0,-8.280950546E0
8.309920530E-1,-4.358395338E-1,3.881628990E0,-8.256517410E0
8.334356990E-1,-5.494571328E-1,3.910949469E0,-8.197875977E0
8.358801780E-1,-6.681141853E-1,3.932940006E0,-8.108692169E0
8.383253860E-1,-7.939487100E-1,3.948822021E0,-7.999960899E0
8.407697610E-1,-9.234483242E-1,3.959817410E0,-7.869239807E0
8.432134070E-1,-1.052947998E0,3.959817410E0,-7.723858356E0
8.456578860E-1,-1.180004239E0,3.954930544E0,-7.571146488E0
8.481030940E-1,-1.302173615E0,3.939048529E0,-7.411104202E0
8.505474690E-1,-1.414569497E0,3.913393021E0,-7.247397423E0
8.529911150E-1,-1.522078633E0,3.871855259E0,-7.084911823E0
8.554355940E-1,-1.618592501E0,3.815657377E0,-6.915096283E0
8.578808030E-1,-1.706554532E0,3.742355824E0,-6.745280743E0
8.603251780E-1,-1.788408041E0,3.654393673E0,-6.571800232E0
8.627688240E-1,-1.860488057E0,3.551771402E0,-6.387324333E0
8.652133030E-1,-1.922794461E0,3.428380251E0,-6.194296837E0
8.676585110E-1,-1.975327373E0,3.281776905E0,-5.990273476E0
8.701028860E-1,-2.013199806E0,3.108296394E0,-5.769146919E0
8.725465320E-1,-2.032747030E0,2.909007311E0,-5.524807930E0
8.749910110E-1,-2.031525373E0,2.679328680E0,-5.249926567E0
8.774362190E-1,-2.008313179E0,2.434989929E0,-4.950459003E0
8.798805940E-1,-1.955780268E0,2.172325611E0,-4.632818222E0
8.823242400E-1,-1.881256819E0,1.908439517E0,-4.293187141E0
8.847687190E-1,-1.782299638E0,1.642110109E0,-3.932787418E0
8.872139280E-1,-1.666238666E0,1.380667567E0,-3.562613964E0
8.896583030E-1,-1.537960649E0,1.141215444E0,-3.180223465E0
8.921019490E-1,-1.403574347E0,9.164236188E-1,-2.785616159E0
8.945464280E-1,-1.267966151E0,7.099572420E-1,-2.376348495E0
8.969916360E-1,-1.129914761E0,5.254813433E-1,-1.956085682E0
8.994360110E-1,-9.943066239E-1,3.581092060E-1,-1.530935884E0
9.018796570E-1,-8.599202037E-1,2.066190839E-1,-1.100899458E0
9.043241360E-1,-7.218687534E-1,6.612421572E-2,-6.635328531E-1
9.067693440E-1,-5.836645365E-1,-6.948387623E-2,-2.261662036E-1
9.092137190E-1,-4.419479966E-1,-2.038702667E-1,2.064663768E-1
9.116573650E-1,-3.002314270E-1,-3.358132839E-1,6.365028620E-1
9.141018440E-1,-1.511846930E-1,-4.726430774E-1,1.062874198E0
9.165470530E-1,-5.803049076E-3,-6.119162440E-1,1.477028728E0
9.189914280E-1,1.346918195E-1,-7.572978735E-1,1.887518048E0
9.214350740E-1,2.690782249E-1,-9.002361298E-1,2.290677309E0
9.238795530E-1,3.985778391E-1,-1.044396043E0,2.687727928E0
9.263247610E-1,5.158604980E-1,-1.188556075E0,3.079891920E0
9.287691360E-1,6.209262609E-1,-1.325385809E0,3.462282181E0
9.312127820E-1,7.137750387E-1,-1.458550572E0,3.839785814E0
9.336572610E-1,7.944068313E-1,-1.591715217E0,4.212402821E0
9.361024690E-1,8.640434742E-1,-1.718771458E0,4.570359230E0
9.385468440E-1,9.214630723E-1,-1.844606042E0,4.917320251E0
9.409904900E-1,9.691091776E-1,-1.965553761E0,5.247178078E0
9.434349690E-1,1.004538298E0,-2.080393076E0,5.557641029E0
9.458801780E-1,1.031415582E0,-2.190345526E0,5.845961094E0
9.483245530E-1,1.054627776E0,-2.295411348E0,6.112290382E0
9.507681990E-1,1.071731567E0,-2.393146753E0,6.350520611E0
9.532126780E-1,1.091278672E0,-2.484926701E0,6.563095570E0
9.556578860E-1,1.104717255E0,-2.570445299E0,6.747571468E0
9.581022610E-1,1.118155956E0,-2.649855375E0,6.913722038E0
9.605459070E-1,1.127929449E0,-2.724378824E0,7.054216862E0
9.629903860E-1,1.138924718E0,-2.794015408E0,7.172721386E0
9.654355940E-1,1.146254897E0,-2.857543468E0,7.270456791E0
9.678799690E-1,1.157250166E0,-2.916184902E0,7.346201897E0
9.703236150E-1,1.169467092E0,-2.969939470E0,7.402400017E0
9.727680940E-1,1.186570764E0,-3.022472143E0,7.437829018E0
9.752133030E-1,1.209782958E0,-3.072561741E0,7.456154346E0
9.776576780E-1,1.237882018E0,-3.121429443E0,7.456154346E0
9.801013240E-1,1.270867705E0,-3.161745310E0,7.440272331E0
9.825458030E-1,1.306296825E0,-3.192287683E0,7.410951614E0
9.849910110E-1,1.344169378E0,-3.209391594E0,7.366970539E0
9.874353860E-1,1.382041931E0,-3.203283072E0,7.311994553E0
9.898790320E-1,1.413805962E0,-3.172740698E0,7.242357731E0
9.923235110E-1,1.439461589E0,-3.121429443E0,7.160504341E0
9.947687190E-1,1.456565261E0,-3.044462681E0,7.066433907E0
9.972130940E-1,1.462673783E0,-2.941840410E0,6.957703114E0
9.996567400E-1,1.463895440E0,-2.820892572E0,6.840420246E0
1.002101219E0,1.454121947E0,-2.687727928E0,6.708477497E0
1.004546428E0,1.437018156E0,-2.552119732E0,6.566760540E0
1.006990803E0,1.417471051E0,-2.420176744E0,6.417714119E0
1.009434449E0,1.394258857E0,-2.297854662E0,6.250341892E0
1.011878928E0,1.362494826E0,-2.187902212E0,6.068309307E0
1.014324136E0,1.328287363E0,-2.101161957E0,5.870394707E0
1.016768511E0,1.285528064E0,-2.031525373E0,5.654154778E0
1.019212157E0,1.235438585E0,-1.991209388E0,5.420658588E0
1.021656636E0,1.178018928E0,-1.976549029E0,5.175097942E0
1.024101844E0,1.110825777E0,-1.991209388E0,4.909990311E0
1.026546219E0,1.032637239E0,-2.030303478E0,4.635108948E0
1.028989865E0,9.458969831E-1,-2.088944912E0,4.350454330E0
1.031434344E0,8.493831158E-1,-2.148808002E0,4.051138878E0
1.033879553E0,7.443174124E-1,-2.201340914E0,3.737163544E0
1.036323928E0,6.306998134E-1,-2.230661392E0,3.413414478E0
1.038767574E0,5.146388412E-1,-2.229439735E0,3.073783398E0
1.041212053E0,3.961344361E-1,-2.196454048E0,2.713383436E0
1.043657261E0,2.776300907E-1,-2.125595808E0,2.329771519E0
1.046101636E0,1.603474021E-1,-2.016865015E0,1.913173556E0
1.048545282E0,4.917320609E-2,-1.860488057E0,1.467255116E0
1.050989761E0,-5.222744122E-2,-1.663795233E0,9.810206890E-1
1.053434969E0,-1.475196183E-1,-1.432894945E0,4.593571424E-1
1.055879344E0,-2.257080674E-1,-1.165343881E0,-9.666658193E-2
1.058322990E0,-2.916795611E-1,-8.745805621E-1,-6.806365848E-1
1.060767469E0,-3.442124426E-1,-5.593833923E-1,-1.293927193E0
1.063212678E0,-3.857500553E-1,-2.283041626E-1,-1.924321532E0
1.065657053E0,-4.187358022E-1,1.211004704E-1,-2.563267708E0
1.068100699E0,-4.431696832E-1,4.851654470E-1,-3.205879211E0
1.070545178E0,-4.614951015E-1,8.541171551E-1,-3.841160297E0
1.072990386E0,-4.773771465E-1,1.225512266E0,-4.461781025E0
1.075434761E0,-4.883723855E-1,1.589577317E0,-5.055524826E0
1.077878407E0,-4.981459379E-1,1.943868637E0,-5.616435051E0
1.080322886E0,-5.079194903E-1,2.277391195E0,-6.133212090E0
1.082768094E0,-5.152496696E-1,2.585258245E0,-6.601120949E0
1.085212469E0,-5.176930428E-1,2.869913101E0,-7.018940449E0
1.087656115E0,-5.140279531E-1,3.122956514E0,-7.378118515E0
1.090100594E0,-5.079194903E-1,3.339196444E0,-7.681098938E0
1.092545803E0,-5.018110275E-1,3.515120506E0,-7.918107510E0
1.094990178E0,-4.969242513E-1,3.650728703E0,-8.091588020E0
1.097433824E0,-4.981459379E-1,3.746020794E0,-8.203984261E0
1.099878303E0,-5.066977739E-1,3.800997019E0,-8.258960724E0
1.102323511E0,-5.262449384E-1,3.813214064E0,-8.257739067E0
1.104767886E0,-5.592306852E-1,3.794888496E0,-8.208870888E0
1.107211532E0,-6.056550741E-1,3.742355824E0,-8.118465424E0
1.109656011E0,-6.618530154E-1,3.664167166E0,-7.991409302E0
1.112101219E0,-7.353073955E-1,3.572540283E0,-7.846027851E0
1.114545594E0,-8.220477104E-1,3.469917774E0,-7.681098938E0
1.116989240E0,-9.246700406E-1,3.370960712E0,-7.510061741E0
1.119433719E0,-1.043174386E0,3.281776905E0,-7.345132828E0
1.121878928E0,-1.172674060E0,3.208475113E0,-7.193642616E0
1.124323303E0,-1.313168883E0,3.158385754E0,-7.059256554E0
1.126766949E0,-1.456107140E0,3.127843380E0,-6.946860313E0
1.129211428E0,-1.602710485E0,3.111961365E0,-6.855233192E0
1.131656636E0,-1.745648742E0,3.105852842E0,-6.775823116E0
1.134101011E0,-1.881256819E0,3.103409529E0,-6.700078011E0
1.136544657E0,-2.007091284E0,3.098522663E0,-6.623111248E0
1.138989136E0,-2.118265629E0,3.078975677E0,-6.537592888E0
1.141434344E0,-2.211114407E0,3.037437916E0,-6.445965767E0
1.143878719E0,-2.284415960E0,2.970244884E0,-6.334791660E0
1.146322365E0,-2.335727215E0,2.872356415E0,-6.202848434E0
1.148766844E0,-2.363826275E0,2.742856979E0,-6.052579880E0
1.151212053E0,-2.371156454E0,2.577928066E0,-5.875434399E0
1.153656428E0,-2.357717752E0,2.381235361E0,-5.671411514E0
1.156100074E0,-2.323510170E0,2.155221939E0,-5.436846256E0
1.158544553E0,-2.272199154E0,1.903552771E0,-5.165477276E0
1.160989761E0,-2.202562571E0,1.638445020E0,-4.857610226E0
1.163434136E0,-2.110935450E0,1.370893955E0,-4.510648727E0
1.165877782E0,-2.003426313E0,1.110673070E0,-4.128258705E0
1.168322261E0,-1.875148416E0,8.687775135E-1,-3.714103937E0
1.170767469E0,-1.732210159E0,6.415423155E-1,-3.274294138E0
1.173211844E0,-1.572168112E0,4.314108789E-1,-2.817380190E0
1.175655490E0,-1.398687482E0,2.383831441E-1,-2.353136301E0
1.178099969E0,-1.211768270E0,6.734590977E-2,-1.877897143E0
1.180545178E0,-1.010188699E0,-8.780929446E-2,-1.405101418E0
1.182989553E0,-8.000571728E-1,-2.160872221E-1,-9.323056340E-1
1.185433199E0,-5.799994469E-1,-3.187095523E-1,-4.668400288E-1
1.187877678E0,-3.552076817E-1,-4.017847776E-1,-8.704573847E-3
1.190322886E0,-1.267508119E-1,-4.701996744E-1,4.361449480E-1
1.192767261E0,9.681928903E-2,-5.288410187E-1,8.661814332E-1
1.195210907E0,3.155026138E-1,-5.813738704E-1,1.281557560E0
1.197655386E0,5.280774832E-1,-6.314633489E-1,1.674943209E0
1.200100594E0,7.247702479E-1,-6.839962006E-1,2.056111813E0
1.202544969E0,9.080244303E-1,-7.401941419E-1,2.422620296E0
1.204988615E0,1.074174881E0,-8.012788892E-1,2.775689840E0
1.207433094E0,1.220778227E0,-8.721371889E-1,3.121429443E0
1.209878303E0,1.349056125E0,-9.564340711E-1,3.450065374E0
1.212322678E0,1.460230350E0,-1.051726222E0,3.767705917E0
1.214766324E0,1.553079128E0,-1.158013701E0,4.073129654E0
1.217210803E0,1.632489324E0,-1.274074674E0,4.370001316E0
1.219656011E0,1.694795728E0,-1.402352571E0,4.653434277E0
1.222100386E0,1.746106863E0,-1.539182425E0,4.933202267E0
1.224544032E0,1.785201073E0,-1.679677248E0,5.203197002E0
1.226988511E0,1.818186879E0,-1.822615504E0,5.462196350E0
1.229433719E0,1.841399074E0,-1.955780268E0,5.707909584E0
1.231878094E0,1.857281089E0,-2.080393076E0,5.943696499E0
1.234321740E0,1.871941447E0,-2.194010735E0,6.161158085E0
1.236766219E0,1.881714940E0,-2.300297976E0,6.362737656E0
1.239211428E0,1.891488552E0,-2.396811962E0,6.553322315E0
1.241655803E0,1.897596955E0,-2.480039835E0,6.725581169E0
1.244099449E0,1.904927135E0,-2.549676418E0,6.880736351E0
1.246543928E0,1.914700747E0,-2.604652643E0,7.018787861E0
1.248989136E0,1.920809150E0,-2.648633718E0,7.140957355E0
1.251433511E0,1.929361105E0,-2.684062958E0,7.244801044E0
1.253877157E0,1.940356374E0,-2.713383436E0,7.331541538E0
1.256321636E0,1.948908210E0,-2.739039183E0,7.397512913E0
1.258766844E0,1.955016613E0,-2.767138004E0,7.448824406E0
1.261211219E0,1.955016613E0,-2.791571856E0,7.480588436E0
1.263654865E0,1.946464777E0,-2.813562393E0,7.492805004E0
1.266099344E0,1.931804419E0,-2.830666304E0,7.489140034E0
1.268544553E0,1.908592224E0,-2.848991632E0,7.468371391E0
1.270988928E0,1.879271626E0,-2.870982170E0,7.424390316E0
1.273432574E0,1.843842506E0,-2.896637678E0,7.359640598E0
1.275877053E0,1.803526521E0,-2.932066917E0,7.277786732E0
1.278322261E0,1.757102132E0,-2.963830948E0,7.177608013E0
1.280766636E0,1.705790997E0,-2.993151665E0,7.066433907E0
1.283210282E0,1.648371339E0,-3.017585516E0,6.939377785E0
1.285654657E0,1.586064935E0,-3.032245874E0,6.806212902E0
1.288099969E0,1.518871665E0,-3.042019367E0,6.666939735E0
1.290544344E0,1.443126678E0,-3.040797710E0,6.516671181E0
1.292987990E0,1.361273170E0,-3.034689188E0,6.365180969E0
1.295432469E0,1.269646049E0,-3.028580666E0,6.211247444E0
1.297877678E0,1.173132181E0,-3.026137352E0,6.057313919E0
1.300322053E0,1.070509791E0,-3.022472143E0,5.907045841E0
1.302765646E0,9.630007148E-1,-3.020028830E0,5.749447346E0
1.305210178E0,8.530482054E-1,-3.013920307E0,5.590626717E0
1.307655386E0,7.394306064E-1,-3.006590128E0,5.426766872E0
1.310099761E0,6.258130074E-1,-2.984599590E0,5.245956421E0
1.312543407E0,5.109737515E-1,-2.952835560E0,5.051706791E0
1.314987886E0,3.997995257E-1,-2.901524544E0,4.840353489E0
1.317433094E0,2.910687327E-1,-2.825779438E0,4.605788231E0
1.319877469E0,1.860029846E-1,-2.724378824E0,4.345567226E0
1.322321063E0,8.826743066E-2,-2.592435837E0,4.045030594E0
1.324765542E0,-3.359660041E-3,-2.425063610E0,3.704177856E0
1.327210803E0,-8.154810965E-2,-2.224553108E0,3.319344044E0
1.329655178E0,-1.585148573E-1,-1.994874477E0,2.878312349E0
1.332098824E0,-2.244863659E-1,-1.738318563E0,2.385969400E0
1.334543303E0,-2.794626355E-1,-1.460993886E0,1.849645495E0
1.336988511E0,-3.246653080E-1,-1.165343881E0,1.268118858E0
1.339432886E0,-3.600944579E-1,-8.623636365E-1,6.462764144E-1
1.341876532E0,-3.833066523E-1,-5.532749295E-1,-1.481304597E-2
1.344321011E0,-3.930802047E-1,-2.441861928E-1,-7.050704360E-1
1.346766219E0,-3.943018913E-1,6.368082762E-2,-1.417318344E0
1.349210594E0,-3.930802047E-1,3.629959822E-1,-2.144226551E0
1.351654240E0,-3.881934285E-1,6.586460471E-1,-2.869913101E0
1.354098719E0,-3.820849657E-1,9.408574700E-1,-3.580939293E0
1.356543928E0,-3.869717419E-1,1.210852027E0,-4.265088081E0
1.358988303E0,-4.004103839E-1,1.474738002E0,-4.912586212E0
1.361431949E0,-4.236225784E-1,1.726407051E0,-5.517477989E0
1.363876428E0,-4.590517282E-1,1.968302608E0,-6.078235626E0
1.366321636E0,-5.018110275E-1,2.193094254E0,-6.586460590E0
1.368766011E0,-5.494571328E-1,2.408112526E0,-7.039709091E0
1.371209657E0,-5.983248949E-1,2.604805470E0,-7.439203262E0
1.373654032E0,-6.520794630E-1,2.789281368E0,-7.777612686E0
1.376099344E0,-7.096518278E-1,2.947032690E0,-8.050050735E0
1.378543719E0,-7.719582319E-1,3.083862305E0,-8.261404037E0
1.380987313E0,-8.440381885E-1,3.188928127E0,-8.410450935E0
1.383431844E0,-9.258917570E-1,3.262229681E0,-8.503299713E0
1.385877053E0,-1.015075445E0,3.308654070E0,-8.542393684E0
1.388321428E0,-1.110367656E0,3.329422951E0,-8.531397820E0
1.390765021E0,-1.214211583E0,3.330644608E0,-8.486195564E0
1.393209553E0,-1.324164152E0,3.317206144E0,-8.412894249E0
1.395654761E0,-1.437781692E0,3.289107084E0,-8.316379547E0
1.398099136E0,-1.557507753E0,3.253677845E0,-8.207649231E0
1.400542782E0,-1.678455591E0,3.209697008E0,-8.094031334E0
1.402987157E0,-1.800624967E0,3.159607410E0,-7.981635571E0
1.405432469E0,-1.925237894E0,3.104631186E0,-7.872904778E0
1.407876844E0,-2.051072359E0,3.043546438E0,-7.767838955E0
1.410320490E0,-2.176906824E0,2.977575064E0,-7.673768520E0
1.412764865E0,-2.300297976E0,2.911450863E0,-7.596801758E0
1.415210178E0,-2.421245813E0,2.844257593E0,-7.528387070E0
1.417654553E0,-2.540971994E0,2.783172846E0,-7.473410606E0
1.420098199E0,-2.649702787E0,2.728196621E0,-7.425764561E0
1.422542678E0,-2.752325058E0,2.674442053E0,-7.378118515E0
1.424987886E0,-2.843952179E0,2.619465828E0,-7.324364185E0
1.427432261E0,-2.927027464E0,2.559602737E0,-7.257170677E0
1.429875907E0,-2.994220495E0,2.483857632E0,-7.170430660E0
1.432320282E0,-3.045531750E0,2.393452168E0,-7.058034420E0
1.434765594E0,-3.079739094E0,2.285943270E0,-6.916317940E0
1.437209969E0,-3.091956139E0,2.169882059E0,-6.748945713E0
1.439653563E0,-3.082182646E0,2.044047594E0,-6.554696560E0
1.442098042E0,-3.047975063E0,1.905996203E0,-6.333570004E0
1.444543303E0,-2.990555525E0,1.759392858E0,-6.088009357E0
1.446987678E0,-2.908701897E0,1.607902646E0,-5.816792965E0
1.449431271E0,-2.809744596E0,1.458855987E0,-5.526029587E0
1.451875751E0,-2.692461967E0,1.318361044E0,-5.221827984E0
1.454321011E0,-2.556854010E0,1.186418056E0,-4.901591301E0
1.456765386E0,-2.407807112E0,1.072800517E0,-4.570511818E0
1.459208980E0,-2.242878437E0,9.640696645E-1,-4.233324051E0
1.461653511E0,-2.066954374E0,8.590039611E-1,-3.890028000E0
1.464098719E0,-1.875148416E0,7.502731681E-1,-3.550396919E0
1.466543094E0,-1.677233815E0,6.415423155E-1,-3.211987495E0
1.468986688E0,-1.473210931E0,5.315898061E-1,-2.885795116E0
1.471431167E0,-1.265522838E0,4.228590131E-1,-2.564489603E0
1.473876428E0,-1.059056401E0,3.153499067E-1,-2.249292374E0
1.476320803E0,-8.574768305E-1,2.066190839E-1,-1.930430055E0
1.478764396E0,-6.618530154E-1,1.015533581E-1,-1.606680989E0
1.481208876E0,-4.749337435E-1,-9.620844387E-3,-1.271936655E0
1.483654136E0,-2.916795611E-1,-1.207950488E-1,-9.152019024E-1
1.486098511E0,-1.145338640E-1,-2.417428046E-1,-5.450284481E-1
1.488542105E0,5.405998230E-2,-3.663556576E-1,-1.601946950E-1
1.490986584E0,2.165453583E-1,-4.946335554E-1,2.394521236E-1
1.493431844E0,3.680354655E-1,-6.253548861E-1,6.487197876E-1
1.495876219E0,5.109737515E-1,-7.548545003E-1,1.065317631E0
1.498319865E0,6.416950226E-1,-8.806890249E-1,1.488023877E0
1.500764240E0,7.626428008E-1,-1.005301833E0,1.918060422E0
1.503209553E0,8.689302206E-1,-1.120141149E0,2.354205370E0
1.505653928E0,9.617789984E-1,-1.227650285E0,2.785463572E0
1.508097521E0,1.044854283E0,-1.330272675E0,3.210613251E0
1.510542001E0,1.119377613E0,-1.425564766E0,3.627211094E0
1.512987261E0,1.186570764E0,-1.524522066E0,4.031591892E0
1.515431636E0,1.250098944E0,-1.625922680E0,4.422533989E0
1.517875230E0,1.314848781E0,-1.723658204E0,4.790264130E0
1.520319709E0,1.377155185E0,-1.817728758E0,5.137225628E0
1.522764969E0,1.435796499E0,-1.902025700E0,5.460974693E0
1.525209344E0,1.493216157E0,-1.975327373E0,5.759220600E0
1.527652938E0,1.545748949E0,-2.035190344E0,6.031658649E0
1.530097417E0,1.594616771E0,-2.084058046E0,6.278440952E0
1.532542678E0,1.637376070E0,-2.114600420E0,6.505675793E0
1.534987053E0,1.675248623E0,-2.128039122E0,6.703590393E0
1.537430646E0,1.711899400E0,-2.128039122E0,6.875849247E0
1.539875126E0,1.742441773E0,-2.118265629E0,7.020009518E0
1.542320386E0,1.774205923E0,-2.095053434E0,7.136070251E0
1.544764761E0,1.808413267E0,-2.069397688E0,7.232584476E0
1.547208355E0,1.846285820E0,-2.040077209E0,7.307107449E0
1.549652834E0,1.885380030E0,-2.011978149E0,7.366970539E0
1.552098094E0,1.926917672E0,-1.989987612E0,7.415838242E0
1.554542469E0,1.972120404E0,-1.970440507E0,7.457376003E0
1.556986063E0,2.014879704E0,-1.959445238E0,7.483031750E0
1.559430542E0,2.053973913E0,-1.947228312E0,7.500135422E0
1.561875803E0,2.089403152E0,-1.936233044E0,7.513574123E0
1.564320178E0,2.111393452E0,-1.921572804E0,7.516017437E0
1.566763771E0,2.124832153E0,-1.904469013E0,7.517239094E0
1.569208251E0,2.119945526E0,-1.888586998E0,7.516017437E0
1.571653511E0,2.104063272E0,-1.876370072E0,7.517239094E0
1.574097886E0,2.067412615E0,-1.865374804E0,7.518460751E0
1.576541480E0,2.014879704E0,-1.864153147E0,7.523347378E0
1.578985959E0,1.944021344E0,-1.869039893E0,7.534342766E0
1.581431219E0,1.859724522E0,-1.883700252E0,7.549003124E0
1.583875594E0,1.759545565E0,-1.895917177E0,7.562441826E0
1.586319188E0,1.649592996E0,-1.906912446E0,7.568550110E0
1.588763667E0,1.532310367E0,-1.911799192E0,7.570993423E0
1.591208928E0,1.402810693E0,-1.915464282E0,7.555111408E0
1.593653303E0,1.270867705E0,-1.926459551E0,7.517239094E0
1.596096896E0,1.140146375E0,-1.947228312E0,7.457376003E0
1.598541376E0,1.014311910E0,-1.985100865E0,7.373079300E0
1.600986636E0,8.945857882E-1,-2.041298866E0,7.260683060E0
1.603431011E0,7.858549953E-1,-2.104826927E0,7.118966579E0
1.605874605E0,6.905628443E-1,-2.180572033E0,6.947929382E0
1.608319084E0,6.013791561E-1,-2.255095482E0,6.750014782E0
1.610764344E0,5.207473040E-1,-2.321066856E0,6.524001598E0
1.613208719E0,4.474456310E-1,-2.371156454E0,6.268667221E0
1.615652313E0,3.778090179E-1,-2.401698828E0,5.987677574E0
1.618096792E0,3.069507480E-1,-2.399255276E0,5.673702240E0
1.620542053E0,2.360924631E-1,-2.361382723E0,5.320479393E0
1.622986428E0,1.652341783E-1,-2.279529333E0,4.933202267E0
1.625430021E0,9.804098308E-2,-2.139034271E0,4.508052826E0
1.627874501E0,3.206948191E-2,-1.954558492E0,4.047473907E0
1.630319761E0,-3.023693897E-2,-1.724879980E0,3.546579123E0
1.632764136E0,-8.521319181E-2,-1.458550572E0,3.006590128E0
1.635207730E0,-1.365243644E-1,-1.159235358E0,2.429950476E0
1.637652209E0,-1.792836636E-1,-8.379297256E-1,1.817881465E0
1.640097469E0,-2.073826492E-1,-5.105155706E-1,1.169161677E0
1.642541844E0,-2.183778882E-1,-1.769929975E-1,4.923428893E-1
1.644985438E0,-2.147128135E-1,1.443126649E-1,-2.115058601E-1
1.647429917E0,-1.939440072E-1,4.509579837E-1,-9.323056340E-1
1.649875178E0,-1.634016484E-1,7.417212725E-1,-1.665322304E0
1.652319553E0,-1.243074164E-1,1.011715770E0,-2.400782347E0
1.654763146E0,-8.276980370E-2,1.259719729E0,-3.126468897E0
1.657207626E0,-4.245388508E-2,1.484511495E0,-3.837495089E0
1.659652886E0,-1.068982668E-2,1.697086453E0,-4.536304474E0
1.662097261E0,8.857285604E-3,1.899887681E0,-5.199684620E0
1.664540855E0,1.496575773E-2,2.080698490E0,-5.820457935E0
1.666985334E0,3.970507067E-3,2.248070717E0,-6.393432617E0
1.669430594E0,-2.290677279E-2,2.397117376E0,-6.911431313E0
1.671874969E0,-6.077930331E-2,2.524173498E0,-7.375675201E0
1.674318563E0,-1.133121699E-1,2.636569500E0,-7.776391029E0
1.676763042E0,-1.817270666E-1,2.737970114E0,-8.116022110E0
1.679208303E0,-2.611372173E-1,2.834484100E0,-8.398233414E0
1.681652678E0,-3.527642787E-1,2.917559147E0,-8.619359970E0
1.684096271E0,-4.553866386E-1,2.988570213E0,-8.784289360E0
1.686540751E0,-5.702258945E-1,3.042324781E0,-8.895462990E0
1.688986011E0,-6.925480962E-1,3.080197334E0,-8.963877678E0
1.691430386E0,-8.183826208E-1,3.100966215E0,-8.991976738E0
1.693873980E0,-9.466605186E-1,3.105852842E0,-8.983425140E0
1.696318459E0,-1.074938416E0,3.099744320E0,-8.950439453E0
1.698763719E0,-1.200773001E0,3.085084200E0,-8.899127960E0
1.701208042E0,-1.320499063E0,3.066758633E0,-8.833156586E0
1.703651688E0,-1.432894945E0,3.048433304E0,-8.757411957E0
1.706096167E0,-1.536738992E0,3.026442766E0,-8.675558090E0
1.708541428E0,-1.625922680E0,3.013004065E0,-8.599813461E0
1.710985803E0,-1.704111099E0,3.004452229E0,-8.525289536E0
1.713429396E0,-1.771304369E0,3.015447378E0,-8.460539818E0
1.715873876E0,-1.829945683E0,3.042324781E0,-8.406785011E0
1.718319136E0,-1.876370072E0,3.076532125E0,-8.364026070E0
1.720763511E0,-1.917907715E0,3.118069887E0,-8.328597069E0
1.723207105E0,-1.949671745E0,3.155942440E0,-8.299276352E0
1.725651584E0,-1.967997193E0,3.182819605E0,-8.269955635E0
1.728096844E0,-1.972883940E0,3.192593098E0,-8.235748291E0
1.730541167E0,-1.964332104E0,3.179154634E0,-8.197875977E0
1.732984813E0,-1.943563223E0,3.152277231E0,-8.147786140E0
1.735429292E0,-1.910577536E0,3.116848230E0,-8.086701393E0
1.737874553E0,-1.870261550E0,3.085084200E0,-8.012178421E0
1.740318928E0,-1.825058937E0,3.060650110E0,-7.921772480E0
1.742762521E0,-1.779856205E0,3.036216259E0,-7.811820030E0
1.745207001E0,-1.738318563E0,3.005673885E0,-7.670103550E0
1.747652209E0,-1.700446010E0,2.966579676E0,-7.497844696E0
1.750096584E0,-1.663795233E0,2.907785654E0,-7.292600155E0
1.752540230E0,-1.629587770E0,2.823488712E0,-7.053147793E0
1.754984709E0,-1.592936993E0,2.722088099E0,-6.778266430E0
1.757429917E0,-1.547734261E0,2.602361917E0,-6.476508141E0
1.759874292E0,-1.496423125E0,2.466753960E0,-6.156424046E0
1.762317938E0,-1.440225124E0,2.328702450E0,-5.820457935E0
1.764762417E0,-1.381583810E0,2.199202776E0,-5.477161884E0
1.767207626E0,-1.316833973E0,2.079476833E0,-5.128826141E0
1.769652001E0,-1.255749226E0,1.975632787E0,-4.781865120E0
1.772095646E0,-1.192221165E0,1.888892412E0,-4.437347412E0
1.774540126E0,-1.129914761E0,1.819255829E0,-4.094050884E0
1.776985334E0,-1.060278177E0,1.763057947E0,-3.749533176E0
1.779429709E0,-9.894198179E-1,1.710525036E0,-3.395241737E0
1.781873355E0,-9.087880254E-1,1.656770468E0,-3.032398462E0
1.784317834E0,-8.196043372E-1,1.596907496E0,-2.662225008E0
1.786763094E0,-7.182036638E-1,1.519940734E0,-2.278613091E0
1.789207417E0,-6.093201637E-1,1.424648523E0,-1.891335845E0
1.791651063E0,-4.932591617E-1,1.309809208E0,-1.494285107E0
1.794095542E0,-3.796415627E-1,1.180309653E0,-1.085017443E0
1.796540751E0,-2.660239935E-1,1.043479800E0,-6.598677635E-1
1.798985126E0,-1.548497826E-1,8.993198872E-1,-2.176143378E-1
1.801428771E0,-4.734066129E-2,7.539382577E-1,2.455606014E-1
1.803873251E0,5.405998230E-2,6.097782850E-1,7.171346545E-1
1.806318459E0,1.505738497E-1,4.717268050E-1,1.202147365E0
1.808762834E0,2.409792393E-1,3.422271907E-1,1.690825224E0
1.811206480E0,3.191677034E-1,2.200577259E-1,2.181946516E0
1.813650959E0,3.888042867E-1,1.137702987E-1,2.662072420E0
1.816096167E0,4.474456310E-1,2.336490713E-2,3.129981279E0
1.818540542E0,4.950917065E-1,-5.360184610E-2,3.585673332E0
1.820984188E0,5.341859460E-1,-1.134648770E-1,4.027926922E0
1.823428667E0,5.610632300E-1,-1.537808031E-1,4.448189735E0
1.825873876E0,5.830537081E-1,-1.769929975E-1,4.855013847E0
1.828318251E0,5.989357233E-1,-1.818797737E-1,5.241069317E0
1.830761896E0,6.123743653E-1,-1.782146841E-1,5.604065418E0
1.833206376E0,6.258130074E-1,-1.684411317E-1,5.938809872E0
1.835651584E0,6.441384554E-1,-1.586675793E-1,6.247898579E0
1.838095959E0,6.649072170E-1,-1.513374150E-1,6.524001598E0
1.840539605E0,6.942279339E-1,-1.488940120E-1,6.769562244E0
1.842984084E0,7.284353375E-1,-1.537808031E-1,6.987023830E0
1.845429292E0,7.663078904E-1,-1.659977436E-1,7.180051327E0
1.847873667E0,8.115105629E-1,-1.989834905E-1,7.358418941E0
1.850317313E0,8.530482054E-1,-2.441861928E-1,7.522125721E0
1.852761792E0,8.921424150E-1,-3.113794029E-1,7.677280903E0
1.855207001E0,9.300149679E-1,-3.981196880E-1,7.823884487E0
1.857651376E0,9.642223716E-1,-5.044071078E-1,7.961935997E0
1.860095021E0,9.898779988E-1,-6.253548861E-1,8.084105492E0
1.862539501E0,1.008203387E0,-7.585195899E-1,8.194057465E0
1.864984709E0,1.014311910E0,-8.929060102E-1,8.294237137E0
1.867429084E0,1.010646820E0,-1.028514028E0,8.374868393E0
1.869872730E0,9.898779988E-1,-1.162900448E0,8.442061424E0
1.872317209E0,9.556705356E-1,-1.296065211E0,8.498259544E0
1.874762417E0,9.055810571E-1,-1.423121452E0,8.541019440E0
1.877206792E0,8.420529366E-1,-1.547734261E0,8.570340157E0
1.879650438E0,7.675296068E-1,-1.668681979E0,8.588665009E0
1.882094917E0,6.868977547E-1,-1.788408041E0,8.593551636E0
1.884540126E0,6.013791561E-1,-1.906912446E0,8.589886665E0
1.886984501E0,5.170822144E-1,-2.019308329E0,8.569118500E0
1.889428146E0,4.364503622E-1,-2.115822077E0,8.536131859E0
1.891872626E0,3.619270027E-1,-2.211114407E0,8.486042976E0
1.894317834E0,2.947337925E-1,-2.296633005E0,8.420071602E0
1.896762209E0,2.373141646E-1,-2.369934559E0,8.340661049E0
1.899205855E0,1.860029846E-1,-2.432393789E0,8.246590614E0
1.901650334E0,1.432436854E-1,-2.486148357E0,8.134194374E0
1.904095542E0,1.041494608E-1,-2.528907537E0,7.994921684E0
1.906539917E0,6.872031838E-2,-2.560671806E0,7.829992771E0
1.908983563E0,2.962609194E-2,-2.585105658E0,7.639408588E0
1.911428042E0,-1.435491070E-2,-2.599766016E0,7.428055286E0
1.913873251E0,-6.077930331E-2,-2.608317852E0,7.189825058E0
1.916317626E0,-1.108687744E-1,-2.608317852E0,6.923495770E0
1.918761271E0,-1.585148573E-1,-2.597322464E0,6.629066944E0
1.921205751E0,-2.049392611E-1,-2.580218792E0,6.308983326E0
1.923650959E0,-2.415900975E-1,-2.552119732E0,5.958356857E0
1.926095334E0,-2.660239935E-1,-2.513025522E0,5.582075119E0
1.928538980E0,-2.733541429E-1,-2.462936163E0,5.184871674E0
1.930983459E0,-2.672456801E-1,-2.393146753E0,4.763386726E0
1.933428667E0,-2.428117841E-1,-2.303963184E0,4.318690300E0
1.935873042E0,-2.000524700E-1,-2.186680555E0,3.842229366E0
1.938316688E0,-1.450762302E-1,-2.041298866E0,3.332782745E0
1.940761167E0,-6.810946763E-2,-1.875148416E0,2.791571856E0
1.943206376E0,1.985253580E-2,-1.693115830E0,2.216153860E0
1.945650751E0,1.261399537E-1,-1.497644782E0,1.612636805E0
1.948094396E0,2.446443290E-1,-1.300951958E0,9.822424054E-1
1.950538876E0,3.753656447E-1,-1.110367656E0,3.237490356E-1
1.952984084E0,5.146388412E-1,-9.185615778E-1,-3.593308926E-1
1.955428459E0,6.563553810E-1,-7.316423059E-1,-1.069135427E0
1.957872105E0,7.931851745E-1,-5.422796607E-1,-1.796043634E0
1.960316584E0,9.226847887E-1,-3.700207174E-1,-2.531503677E0
1.962761792E0,1.037524104E0,-2.014268786E-1,-3.263298750E0
1.965206167E0,1.119377613E0,-3.894151375E-2,-3.980433464E0
1.967649813E0,1.180462360E0,1.198787764E-1,-4.665803909E0
1.970094292E0,1.206117868E0,2.738122940E-1,-5.306124687E0
1.972539501E0,1.202452779E0,4.240806997E-1,-5.897424698E0
1.974983876E0,1.168245435E0,5.755708218E-1,-6.431305408E0
1.977427521E0,1.103495598E0,7.295043468E-1,-6.911431313E0
1.979872001E0,1.009425044E0,8.797727823E-1,-7.320698738E0
1.982317209E0,8.872556686E-1,1.017824292E0,-7.667660236E0
1.984761584E0,7.418739796E-1,1.142437100E0,-7.949871540E0
1.987205230E0,5.745018721E-1,1.246281147E0,-8.174663544E0
1.989649709E0,3.863608837E-1,1.324469566E0,-8.345700264E0
1.992094917E0,1.823379099E-1,1.372115612E0,-8.460539818E0
1.994539292E0,-3.390202299E-2,1.387997627E0,-8.524067879E0
1.996982938E0,-2.599155009E-1,1.378224134E0,-8.546058655E0
1.999427417E0,-4.932591617E-1,1.344016671E0,-8.527732849E0
2.001872626E0,-7.279772162E-1,1.290262103E0,-8.480087280E0
2.004317001E0,-9.588775039E-1,1.225512266E0,-8.406785011E0
2.006760646E0,-1.184890985E0,1.155875683E0,-8.320045471E0
2.009205126E0,-1.402352571E0,1.087460876E0,-8.227196693E0
2.011650334E0,-1.607597232E0,1.032484531E0,-8.134347916E0
2.014094709E0,-1.795738220E0,9.799517393E-1,-8.041499138E0
2.016538355E0,-1.967997193E0,9.261971712E-1,-7.953536510E0
2.018982834E0,-2.119487286E0,8.675557971E-1,-7.872904778E0
2.021428042E0,-2.251430273E0,8.040276766E-1,-7.802046776E0
2.023872417E0,-2.365047932E0,7.380561829E-1,-7.740962029E0
2.026316063E0,-2.460340023E0,6.757497787E-1,-7.687207222E0
2.028760542E0,-2.538528442E0,6.317687631E-1,-7.637117863E0
2.031205751E0,-2.603278399E0,6.122216582E-1,-7.590693474E0
2.033650126E0,-2.660697937E0,6.195518374E-1,-7.544269085E0
2.036093771E0,-2.709565639E0,6.525375843E-1,-7.494179726E0
2.038538251E0,-2.751103401E0,7.099572420E-1,-7.437981606E0
2.040983459E0,-2.785310745E0,7.857022882E-1,-7.364679813E0
2.043427834E0,-2.815853119E0,8.834378719E-1,-7.275496483E0
2.045871480E0,-2.830513477E0,9.897252917E-1,-7.166765690E0
2.048315959E0,-2.832956791E0,1.102121115E0,-7.034822464E0
2.050761167E0,-2.825626612E0,1.219403863E0,-6.884553909E0
2.053205542E0,-2.799971104E0,1.326912999E0,-6.709851742E0
2.055649188E0,-2.758433580E0,1.424648523E0,-6.510715485E0
2.058093667E0,-2.699792147E0,1.506502032E0,-6.289588928E0
2.060538876E0,-2.622825384E0,1.556591511E0,-6.047693253E0
2.062983251E0,-2.526311636E0,1.570030212E0,-5.787472248E0
2.065426896E0,-2.412693977E0,1.544374585E0,-5.510147572E0
2.067871376E0,-2.283194304E0,1.473516345E0,-5.210832596E0
2.070316584E0,-2.140256166E0,1.362342119E0,-4.896704197E0
2.072760959E0,-1.980214119E0,1.209630251E0,-4.563181877E0
2.075204605E0,-1.814063668E0,1.017824292E0,-4.207668781E0
2.077649084E0,-1.643026471E0,8.028060198E-1,-3.826499939E0
2.080094292E0,-1.473210931E0,5.694623590E-1,-3.422119141E0
2.082538667E0,-1.307060480E0,3.275668323E-1,-2.993304253E0
2.084982313E0,-1.148240089E0,8.811471611E-2,-2.544942379E0
2.087426792E0,-1.000415087E0,-1.403421611E-1,-2.080698490E0
2.089872001E0,-8.672503829E-1,-3.480302393E-1,-1.606680989E0
2.092316376E0,-7.414158583E-1,-5.361711979E-1,-1.119224906E0
2.094760021E0,-6.252021790E-1,-7.145385742E-1,-6.171084642E-1
2.097204501E0,-5.164713860E-1,-8.696937561E-1,-1.101052165E-1
2.099649709E0,-4.114056230E-1,-1.007745266E0,4.019374847E-1
2.102094084E0,-3.063398898E-1,-1.129914761E0,9.150491953E-1
2.104537730E0,-2.000524700E-1,-1.242310643E0,1.424495816E0
2.106982209E0,-9.498675168E-2,-1.343711257E0,1.930277348E0
2.109427417E0,2.107422985E-2,-1.418234587E0,2.426285267E0
2.111871792E0,1.359135211E-1,-1.491536260E0,2.907633066E0
2.114315438E0,2.544178963E-1,-1.557507753E0,3.376763582E0
2.116759917E0,3.753656447E-1,-1.617370844E0,3.830012321E0
2.119205126E0,4.987567961E-1,-1.673568726E0,4.266157150E0
2.121649501E0,6.294780970E-1,-1.724879980E0,4.680311680E0
2.124093146E0,7.650861740E-1,-1.757865667E0,5.071253777E0
2.126537626E0,9.031376839E-1,-1.776191115E0,5.441427231E0
2.128982834E0,1.041189194E0,-1.782299638E0,5.786098003E0
2.131427209E0,1.187792540E0,-1.767639279E0,6.106182098E0
2.133870855E0,1.334395885E0,-1.743205309E0,6.404275417E0
2.136315334E0,1.480999231E0,-1.710219622E0,6.685265064E0
2.138760542E0,1.625159144E0,-1.677233815E0,6.941821098E0
2.141204917E0,1.768097401E0,-1.647913218E0,7.176386356E0
2.143648563E0,1.903705478E0,-1.625922680E0,7.391404629E0
2.146093042E0,2.028318405E0,-1.612484097E0,7.586875439E0
2.148538251E0,2.139492512E0,-1.608819008E0,7.761578083E0
2.150982626E0,2.238449812E0,-1.617370844E0,7.914289951E0
2.153426271E0,2.321525097E0,-1.635696292E0,8.052341461E0
2.155870751E0,2.389939785E0,-1.667460322E0,8.179397583E0
2.158315959E0,2.433920860E0,-1.706554532E0,8.290572166E0
2.160760334E0,2.463241577E0,-1.749313831E0,8.388307571E0
2.163203980E0,2.471793413E0,-1.795738220E0,8.470160484E0
2.165648459E0,2.466906548E0,-1.847049356E0,8.537354469E0
2.168093667E0,2.447359562E0,-1.905690789E0,8.594773293E0
2.170538042E0,2.421704054E0,-1.961888671E0,8.637533188E0
2.172981688E0,2.392383337E0,-2.022973299E0,8.660745621E0
2.175426167E0,2.355732441E0,-2.082836390E0,8.670518875E0
2.177871376E0,2.315416574E0,-2.147586346E0,8.664410591E0
2.180315751E0,2.267770529E0,-2.219666243E0,8.638754845E0
2.182759396E0,2.211572409E0,-2.291746140E0,8.595994949E0
2.185203876E0,2.139492512E0,-2.363826275E0,8.533688545E0
2.187649084E0,2.049087048E0,-2.433615446E0,8.448170662E0
2.190093459E0,1.939134598E0,-2.495921850E0,8.341882706E0
2.192537105E0,1.803526521E0,-2.550898075E0,8.218491554E0
2.194981584E0,1.647149682E0,-2.594879150E0,8.076775551E0
2.197426792E0,1.473669052E0,-2.619313002E0,7.922841549E0
2.199871167E0,1.290414810E0,-2.626643181E0,7.755469322E0
2.202314813E0,1.103495598E0,-2.616869688E0,7.569771767E0
2.204759292E0,9.177979827E-1,-2.589992285E0,7.371857643E0
2.207204501E0,7.406523228E-1,-2.555784941E0,7.156839371E0
2.209648876E0,5.757235289E-1,-2.510582209E0,6.921051979E0
2.212092521E0,4.327852726E-1,-2.455605984E0,6.666939735E0
2.214537001E0,3.081724346E-1,-2.385816574E0,6.393280029E0
2.216982209E0,2.067717910E-1,-2.307628155E0,6.101294994E0
2.219426584E0,1.322484314E-1,-2.207449198E0,5.788541317E0
2.221870230E0,8.093725890E-2,-2.090166569E0,5.462196350E0
2.224314605E0,5.528167635E-2,-1.948450089E0,5.109126568E0
2.226759917E0,6.016845629E-2,-1.789629698E0,4.724292755E0
2.229204292E0,9.071081877E-2,-1.603932142E0,4.302808285E0
2.231647938E0,1.517955512E-1,-1.396244168E0,3.837342501E0
2.234092313E0,2.385358512E-1,-1.173895717E0,3.321787357E0
2.236537626E0,3.472666740E-1,-9.393303990E-1,2.753699541E0
2.238982001E0,4.731011987E-1,-7.072083950E-1,2.131856918E0
2.241425594E0,6.111527085E-1,-4.811949134E-1,1.455038190E0
2.243870074E0,7.553126216E-1,-2.710634768E-1,7.342383862E-1
2.246315334E0,8.958075047E-1,-6.948387623E-2,-2.336490713E-2
2.248759709E0,1.027750492E0,1.162136942E-1,-8.076927662E-1
2.251203303E0,1.143811464E0,2.884726226E-1,-1.614011168E0
2.253647782E0,1.239103675E0,4.534013867E-1,-2.427659750E0
2.256093042E0,1.305075169E0,6.183301210E-1,-3.238864899E0
2.258537417E0,1.340504289E0,7.869240046E-1,-4.039074898E0
2.260981063E0,1.344169378E0,9.689564705E-1,-4.814850807E0
2.263425438E0,1.311183691E0,1.163205862E0,-5.557793617E0
2.265870751E0,1.245212078E0,1.369672298E0,-6.263933182E0
2.268315126E0,1.153585076E0,1.592020631E0,-6.912652969E0
2.270758719E0,1.033859015E0,1.826586008E0,-7.502731323E0
2.273203199E0,9.006943107E-1,2.058707952E0,-8.024394989E0
2.275648459E0,7.528692484E-1,2.277391195E0,-8.473978996E0
2.278092834E0,5.964923501E-1,2.472862482E0,-8.845374107E0
2.280536428E0,4.376720488E-1,2.629239321E0,-9.137358665E0
2.282980907E0,2.751866877E-1,2.737970114E0,-9.352376938E0
2.285426167E0,1.090362370E-1,2.803941727E0,-9.481876373E0
2.287870542E0,-5.711421743E-2,2.828375578E0,-9.535631180E0
2.290314136E0,-2.281514555E-1,2.812493563E0,-9.516083717E0
2.292758615E0,-3.991886973E-1,2.762403965E0,-9.436674118E0
2.295203876E0,-5.726693273E-1,2.679328680E0,-9.304730415E0
2.297648251E0,-7.511894107E-1,2.575484753E0,-9.137358665E0
2.300091844E0,-9.271134138E-1,2.454536915E0,-8.950439453E0
2.302536324E0,-1.103037477E0,2.331145763E0,-8.751303673E0
2.304981584E0,-1.276518106E0,2.208976507E0,-8.554610252E0
2.307425959E0,-1.447555304E0,2.090471983E0,-8.368912697E0
2.309869553E0,-1.616149187E0,1.978076100E0,-8.195432663E0
2.312314032E0,-1.777412772E0,1.871788740E0,-8.041499138E0
2.314759292E0,-1.928902984E0,1.767944694E0,-7.909555912E0
2.317203667E0,-2.077949762E0,1.676317573E0,-7.797159672E0
2.319647261E0,-2.213557720E0,1.593242407E0,-7.699424267E0
2.322091740E0,-2.335727215E0,1.517497301E0,-7.612683773E0
2.324537001E0,-2.449344873E0,1.446639061E0,-7.535717010E0
2.326981376E0,-2.549523830E0,1.381889224E0,-7.464859009E0
2.329424969E0,-2.641150951E0,1.315917730E0,-7.390335560E0
2.331869449E0,-2.719339371E0,1.252389550E0,-7.306038857E0
2.334314709E0,-2.790197611E0,1.204743505E0,-7.211967945E0
2.336759084E0,-2.847617149E0,1.169314384E0,-7.105680943E0
2.339202678E0,-2.895263195E0,1.155875683E0,-6.984733105E0
2.341647157E0,-2.930692434E0,1.160762548E0,-6.846681595E0
2.344092417E0,-2.955126286E0,1.183974743E0,-6.687861443E0
2.346536792E0,-2.967343330E0,1.216960430E0,-6.502163410E0
2.348980386E0,-2.966121674E0,1.252389550E0,-6.296918869E0
2.351424865E0,-2.944131136E0,1.285375357E0,-6.073348999E0
2.353870074E0,-2.901371717E0,1.309809208E0,-5.827788353E0
2.356314553E0,-2.840286970E0,1.320804477E0,-5.566345692E0
2.358758094E0,-2.759655237E0,1.314695954E0,-5.287799358E0
2.361202574E0,-2.659476280E0,1.286597013E0,-4.996883392E0
2.363647834E0,-2.545858622E0,1.241394401E0,-4.690237999E0
2.366092209E0,-2.426132679E0,1.179087877E0,-4.362823963E0
2.368535803E0,-2.300297976E0,1.099677801E0,-4.021971226E0
2.370980282E0,-2.174463511E0,1.006829023E0,-3.664014578E0
2.373425542E0,-2.048629045E0,8.993198872E-1,-3.292619467E0
2.375869865E0,-1.921572804E0,7.795938253E-1,-2.904120684E0
2.378313511E0,-1.792073131E0,6.403206587E-1,-2.500961304E0
2.380757990E0,-1.665016890E0,4.815003574E-1,-2.088028669E0
2.383203251E0,-1.531852245E0,3.092414141E-1,-1.657992125E0
2.385647574E0,-1.396244168E0,1.284306347E-1,-1.218182087E0
2.388091219E0,-1.256971002E0,-5.238015205E-2,-7.710419297E-1
2.390535699E0,-1.109145880E0,-2.124221325E-1,-3.214583695E-1
2.392980959E0,-9.588775039E-1,-3.565820754E-1,1.293469071E-1
2.395425334E0,-8.012788892E-1,-4.836383164E-1,5.778614879E-1
2.397868928E0,-6.361974478E-1,-5.935907960E-1,1.022558331E0
2.400313407E0,-4.590517282E-1,-6.925480962E-1,1.464811683E0
2.402758615E0,-2.733541429E-1,-7.805100679E-1,1.902178407E0
2.405203094E0,-8.032641560E-2,-8.660287261E-1,2.335879803E0
2.407646636E0,1.188097894E-1,-9.442171454E-1,2.764694691E0
2.410091115E0,3.203893900E-1,-1.017518878E0,3.192287683E0
2.412536324E0,5.268557668E-1,-1.088377118E0,3.613772392E0
2.414980699E0,7.308787704E-1,-1.148240089E0,4.025483608E0
2.417424344E0,9.300149679E-1,-1.204438090E0,4.428642750E0
2.419868824E0,1.121821046E0,-1.252084136E0,4.819584846E0
2.422314032E0,1.298966646E0,-1.286291599E0,5.195866585E0
2.424758407E0,1.466338873E0,-1.311947227E0,5.557641029E0
2.427202053E0,1.620272398E0,-1.324164152E0,5.900937080E0
2.429646532E0,1.764432311E0,-1.321720719E0,6.224686146E0
2.432091740E0,1.897596955E0,-1.307060480E0,6.521558285E0
2.434536115E0,2.024653196E0,-1.278961420E0,6.801326275E0
2.436979761E0,2.140714169E0,-1.242310643E0,7.057881832E0
2.439424240E0,2.248223305E0,-1.204438090E0,7.285117149E0
2.441869449E0,2.343515396E0,-1.171452284E0,7.485475063E0
2.444313824E0,2.421704054E0,-1.151905179E0,7.660177231E0
2.446757469E0,2.491340637E0,-1.143353343E0,7.809224129E0
2.449201949E0,2.543873310E0,-1.142131686E0,7.937501907E0
2.451647157E0,2.585411072E0,-1.158013701E0,8.047454834E0
2.454091636E0,2.613509893E0,-1.192221165E0,8.134194374E0
2.456535178E0,2.630613804E0,-1.247197390E0,8.206274986E0
2.458979657E0,2.636722088E0,-1.325385809E0,8.263694763E0
2.461424865E0,2.631835461E0,-1.426786542E0,8.305232048E0
2.463869240E0,2.618396759E0,-1.542847514E0,8.332109451E0
2.466312886E0,2.596406221E0,-1.671125412E0,8.345547676E0
2.468757365E0,2.563420534E0,-1.800624967E0,8.340661049E0
2.471202574E0,2.518217802E0,-1.933789730E0,8.322336197E0
2.473646949E0,2.459576607E0,-2.062067747E0,8.285684586E0
2.476090594E0,2.389939785E0,-2.187902212E0,8.236817360E0
2.478535074E0,2.300756216E0,-2.305184841E0,8.162293434E0
2.480980282E0,2.192025423E0,-2.407959938E0,8.063336372E0
2.483424657E0,2.060082436E0,-2.492256880E0,7.937501907E0
2.485868303E0,1.914700747E0,-2.555784941E0,7.790898800E0
2.488312782E0,1.752215385E0,-2.602209330E0,7.622304916E0
2.490757990E0,1.581178188E0,-2.620534658E0,7.431720257E0
2.493202365E0,1.404032469E0,-2.609539509E0,7.226475716E0
2.495646011E0,1.225664973E0,-2.566780090E0,7.002905846E0
2.498090490E0,1.049741030E0,-2.484926701E0,6.770783901E0
2.500535751E0,8.811471462E-1,-2.369934559E0,6.528888226E0
2.502980074E0,7.272136807E-1,-2.226996422E0,6.280884266E0
2.505423719E0,5.928272605E-1,-2.069397688E0,6.025549889E0
2.507868199E0,4.853181541E-1,-1.903247356E0,5.757998943E0
2.510313407E0,4.059080184E-1,-1.734653473E0,5.471969604E0
2.512757782E0,3.545968235E-1,-1.578276634E0,5.173876286E0
2.515201428E0,3.374931216E-1,-1.434116602E0,4.863565922E0
2.517645907E0,3.472666740E-1,-1.297286868E0,4.534930229E0
2.520091115E0,3.814741075E-1,-1.167787194E0,4.184303761E0
2.522535490E0,4.340069890E-1,-1.046839476E0,3.810465097E0
2.524979136E0,5.024218559E-1,-9.271134138E-1,3.413414478E0
2.527423615E0,5.732801557E-1,-8.098307252E-1,2.987043142E0
2.529868824E0,6.429167390E-1,-6.986565590E-1,2.541124582E0
2.532313199E0,7.052231431E-1,-5.948125124E-1,2.071993828E0
2.534756844E0,7.553126216E-1,-4.958552718E-1,1.580872655E0
2.537201324E0,7.919634581E-1,-4.005630910E-1,1.066539288E0
2.539646532E0,8.139539957E-1,-3.113794029E-1,5.326588154E-1
2.542091011E0,8.200624585E-1,-2.124221325E-1,-1.847812906E-2
2.544534553E0,8.115105629E-1,-1.110214889E-1,-5.829010010E-1
2.546979032E0,7.846332788E-1,-5.955760833E-3,-1.153432369E0
2.549424240E0,7.345438004E-1,1.015533581E-1,-1.726407051E0
2.551868615E0,6.685723066E-1,2.151709497E-1,-2.296938419E0
2.554312261E0,5.769452453E-1,3.397837877E-1,-2.857696295E0
2.556756740E0,4.645493329E-1,4.827220440E-1,-3.397685051E0
2.559201949E0,3.387148082E-1,6.390989423E-1,-3.924235582E0
2.561646428E0,1.969982386E-1,8.162446618E-1,-4.425130367E0
2.564089969E0,5.039490014E-2,1.005607247E0,-4.897925854E0
2.566534449E0,-9.498675168E-2,1.205965161E0,-5.340332031E0
2.568979657E0,-2.354816198E-1,1.414874911E0,-5.743491173E0
2.571424032E0,-3.674246371E-1,1.622563004E0,-6.105113029E0
2.573867678E0,-4.908157587E-1,1.819255829E0,-6.421531677E0
2.576312157E0,-6.007682681E-1,1.991514802E0,-6.693969727E0
2.578757365E0,-6.998782754E-1,2.132009745E0,-6.922426701E0
2.581201844E0,-7.878402472E-1,2.240740538E0,-7.103237152E0
2.583645386E0,-8.611419201E-1,2.321372271E0,-7.248619080E0
2.586089865E0,-9.258917570E-1,2.377570152E0,-7.356128216E0
2.588535074E0,-9.808679819E-1,2.415442705E0,-7.436759949E0
2.590979553E0,-1.030957460E0,2.437433243E0,-7.492958069E0
2.593423094E0,-1.073716760E0,2.441098452E0,-7.524722099E0
2.595867574E0,-1.112810969E0,2.427659750E0,-7.539382458E0
2.598312834E0,-1.153126955E0,2.398339033E0,-7.544269085E0
2.600757209E0,-1.194664478E0,2.364131689E0,-7.539382458E0
2.603200803E0,-1.238645554E0,2.329924107E0,-7.524722099E0
2.605645282E0,-1.286291599E0,2.303046942E0,-7.505174637E0
2.608090542E0,-1.342489600E0,2.283499718E0,-7.477076054E0
2.610534865E0,-1.403574347E0,2.278613091E0,-7.440424919E0
2.612978511E0,-1.469545841E0,2.283499718E0,-7.395222187E0
2.615422990E0,-1.536738992E0,2.295716763E0,-7.337802887E0
2.617868251E0,-1.611262321E0,2.317707300E0,-7.273052692E0
2.620312626E0,-1.685785770E0,2.347027779E0,-7.197308064E0
2.622756219E0,-1.761530757E0,2.388565540E0,-7.110567570E0
2.625200699E0,-1.838497519E0,2.441098452E0,-7.015275478E0
2.627645959E0,-1.914242625E0,2.497296333E0,-6.904101372E0
2.630090334E0,-1.983879209E0,2.555937529E0,-6.780710220E0
2.632533928E0,-2.042520523E0,2.609692097E0,-6.643880367E0
2.634978407E0,-2.086501598E0,2.645121336E0,-6.494833469E0
2.637423667E0,-2.113378763E0,2.659781694E0,-6.336013317E0
2.639868042E0,-2.118265629E0,2.652451515E0,-6.173527718E0
2.642311636E0,-2.104826927E0,2.615800619E0,-6.011042595E0
2.644756115E0,-2.071841240E0,2.557159424E0,-5.846113682E0
2.647201376E0,-2.022973299E0,2.470418930E0,-5.679963112E0
2.649645751E0,-1.960667014E0,2.359244823E0,-5.505260944E0
2.652089344E0,-1.884921908E0,2.221193314E0,-5.314676762E0
2.654533824E0,-1.796959877E0,2.062373161E0,-5.104392529E0
2.656979084E0,-1.698002696E0,1.893779159E0,-4.879600525E0
2.659423459E0,-1.589271903E0,1.721520305E0,-4.634039879E0
2.661867053E0,-1.473210931E0,1.554148197E0,-4.370153904E0
2.664311532E0,-1.348598003E0,1.387997627E0,-4.081834316E0
2.666756792E0,-1.216655016E0,1.229177356E0,-3.772745371E0
2.669201167E0,-1.076160192E0,1.072800517E0,-3.441666126E0
2.671644761E0,-9.246700406E-1,9.225320816E-1,-3.089818239E0
2.674089240E0,-7.634063363E-1,7.881456614E-1,-2.720866442E0
2.676534501E0,-5.958815217E-1,6.769714952E-1,-2.338475943E0
2.678978876E0,-4.224008918E-1,5.816792846E-1,-1.937760234E0
2.681422521E0,-2.452551723E-1,5.083776116E-1,-1.526049137E0
2.683866896E0,-6.566607952E-2,4.472928941E-1,-1.098456025E0
2.686312209E0,1.127013192E-1,4.020902216E-1,-6.574243903E-1
2.688756584E0,2.910687327E-1,3.629959822E-1,-2.078407854E-1
2.691200230E0,4.645493329E-1,3.324536085E-1,2.492256761E-1
2.693644709E0,6.355865598E-1,3.031329513E-1,7.134696245E-1
2.696089917E0,7.992936373E-1,2.664821148E-1,1.178935170E0
2.698534292E0,9.556705356E-1,2.273878902E-1,1.643179178E0
2.700977886E0,1.101052165E0,1.760767251E-1,2.102536201E0
2.703422417E0,1.232995152E0,1.149920002E-1,2.554563284E0
2.705867626E0,1.349056125E0,4.535540938E-2,3.004146814E0
2.708312001E0,1.450456858E0,-3.405473381E-2,3.442735195E0
2.710755646E0,1.537197113E0,-1.146865711E-1,3.869106531E0
2.713200126E0,1.609277129E0,-1.916533262E-1,4.282039165E0
2.715645334E0,1.666696787E0,-2.637332976E-1,4.680311680E0
2.718089709E0,1.711899400E0,-3.272614181E-1,5.060258865E0
2.720533355E0,1.741220117E0,-3.871244490E-1,5.419436932E0
2.722977834E0,1.763210654E0,-4.396573007E-1,5.757998943E0
2.725423042E0,1.779092669E0,-4.885250926E-1,6.073195934E0
2.727867417E0,1.781535983E0,-5.300627351E-1,6.360294342E0
2.730311063E0,1.781535983E0,-5.740436912E-1,6.625401974E0
2.732755542E0,1.779092669E0,-6.216897964E-1,6.858745575E0
2.735200751E0,1.777870893E0,-6.754443645E-1,7.066433907E0
2.737645126E0,1.777870893E0,-7.316423059E-1,7.246022701E0
2.740088771E0,1.780314326E0,-8.025006056E-1,7.399956226E0
2.742533251E0,1.780314326E0,-8.794673681E-1,7.531899452E0
2.744978459E0,1.777870893E0,-9.698727131E-1,7.641851902E0
2.747422834E0,1.777870893E0,-1.066386580E0,7.735922337E0
2.749866480E0,1.777870893E0,-1.169008970E0,7.816554070E0
2.752310959E0,1.775427580E0,-1.276518106E0,7.886190891E0
2.754756167E0,1.770540833E0,-1.377918720E0,7.939945221E0
2.757200542E0,1.761988878E0,-1.476875901E0,7.985147953E0
2.759644188E0,1.752215385E0,-1.563616276E0,8.018134117E0
2.762088667E0,1.731446505E0,-1.639361382E0,8.040123940E0
2.764533876E0,1.704569221E0,-1.701667786E0,8.051119804E0
2.766978251E0,1.663031697E0,-1.754200578E0,8.045011520E0
2.769421896E0,1.609277129E0,-1.792073131E0,8.026685715E0
2.771866376E0,1.538418770E0,-1.817728758E0,7.990035057E0
2.774311584E0,1.448013425E0,-1.834832430E0,7.931393623E0
2.776755959E0,1.338060975E0,-1.853157878E0,7.855648518E0
2.779199605E0,1.211004734E0,-1.875148416E0,7.756690979E0
2.781644084E0,1.072953224E0,-1.898360610E0,7.641851902E0
2.784089292E0,9.251281619E-1,-1.922794461E0,7.503800392E0
2.786533667E0,7.748597264E-1,-1.947228312E0,7.346201897E0
2.788977313E0,6.282563806E-1,-1.969218850E0,7.175164700E0
2.791421792E0,4.853181541E-1,-1.983879209E0,6.985802174E0
2.793867001E0,3.533751369E-1,-1.986322522E0,6.778113842E0
2.796311376E0,2.373141646E-1,-1.974105597E0,6.548435211E0
2.798755021E0,1.408002973E-1,-1.949671745E0,6.296766281E0
2.801199501E0,6.627693027E-2,-1.917907715E0,6.020663261E0
2.803644709E0,1.496575773E-2,-1.887365341E0,5.717682838E0
2.806089188E0,-1.068982668E-2,-1.855601311E0,5.382786274E0
2.808532730E0,-1.313321572E-2,-1.823837161E0,5.029716492E0
2.810977209E0,2.748812549E-3,-1.784742951E0,4.647325993E0
2.813422417E0,3.817795217E-2,-1.746870399E0,4.244166851E0
2.815866896E0,8.948912472E-2,-1.698002696E0,3.823903799E0
2.818310438E0,1.456870735E-1,-1.640583038E0,3.388980627E0
2.820754917E0,2.018850148E-1,-1.577054858E0,2.943062067E0
2.823200178E0,2.617480457E-1,-1.504974961E0,2.480039835E0
2.825644553E0,3.130592108E-1,-1.412126184E0,2.003578901E0
2.828088146E0,3.594835997E-1,-1.299730301E0,1.511236072E0
2.830532626E0,3.949127495E-1,-1.167787194E0,1.000567794E0
2.832977886E0,4.156815708E-1,-1.021183848E0,4.813476503E-1
2.835422261E0,4.242334068E-1,-8.623636365E-1,-5.390727147E-2
2.837865907E0,4.205683470E-1,-6.901046634E-1,-6.024481058E-1
2.840310386E0,3.973561525E-1,-5.105155706E-1,-1.159540772E0
2.842755594E0,3.558185399E-1,-3.272614181E-1,-1.726407051E0
2.845199969E0,2.935121059E-1,-1.415638477E-1,-2.292051554E0
2.847643615E0,2.128802687E-1,3.802524135E-2,-2.858917952E0
2.850088094E0,1.114796251E-1,2.151709497E-1,-3.419675589E0
2.852533303E0,-1.068982668E-2,3.898732662E-1,-3.965773106E0
2.854977678E0,-1.475196183E-1,5.633538961E-1,-4.488658428E0
2.857421324E0,-2.965663373E-1,7.368345261E-1,-4.979779720E0
2.859865803E0,-4.541649222E-1,9.066500664E-1,-5.440511227E0
2.862311011E0,-6.154286265E-1,1.074022174E0,-5.860774040E0
2.864755386E0,-7.780666947E-1,1.241394401E0,-6.238277435E0
2.867199032E0,-9.344435930E-1,1.400214672E0,-6.568135262E0
2.869643511E0,-1.084712029E0,1.543152928E0,-6.850346565E0
2.872088719E0,-1.230093718E0,1.665322304E0,-7.082468510E0
2.874533094E0,-1.368145108E0,1.760614514E0,-7.268166065E0
2.876976740E0,-1.502531528E0,1.825364351E0,-7.414769650E0
2.879421219E0,-1.627144337E0,1.864458561E0,-7.517391682E0
2.881866428E0,-1.745648742E0,1.882784009E0,-7.580919743E0
2.884310803E0,-1.851936221E0,1.882784009E0,-7.610240459E0
2.886754449E0,-1.955780268E0,1.874232054E0,-7.611462116E0
2.889198928E0,-2.055959225E0,1.868123651E0,-7.589471817E0
2.891644136E0,-2.150029659E0,1.865680218E0,-7.554042816E0
2.894088511E0,-2.237991571E0,1.873010397E0,-7.506396770E0
2.896532157E0,-2.317401886E0,1.886449099E0,-7.448976994E0
2.898976636E0,-2.387038469E0,1.907217860E0,-7.387892246E0
2.901421844E0,-2.448123217E0,1.930430055E0,-7.326807499E0
2.903866219E0,-2.500655890E0,1.958528996E0,-7.264501095E0
2.906309865E0,-2.539750099E0,1.985406280E0,-7.198529720E0
2.908754344E0,-2.571514130E0,2.019613743E0,-7.127671242E0
2.911199605E0,-2.598391533E0,2.059929609E0,-7.051926136E0
2.913643980E0,-2.613051891E0,2.108797550E0,-6.966407776E0
2.916087574E0,-2.624047041E0,2.169882059E0,-6.871115208E0
2.918532053E0,-2.627712250E0,2.234632015E0,-6.763606071E0
2.920977313E0,-2.619160414E0,2.288386583E0,-6.646323681E0
2.923421688E0,-2.598391533E0,2.326259136E0,-6.518045902E0
2.925865282E0,-2.560518980E0,2.336032629E0,-6.378772736E0
2.928309813E0,-2.501877546E0,2.314042091E0,-6.229725838E0
2.930755021E0,-2.418802500E0,2.245627165E0,-6.068461895E0
2.933199396E0,-2.312515020E0,2.133231401E0,-5.888873100E0
2.935643042E0,-2.179350376E0,1.970745921E0,-5.687293530E0
2.938087521E0,-2.027860165E0,1.766723037E0,-5.458836555E0
2.940532730E0,-1.860488057E0,1.523605824E0,-5.203349590E0
2.942977105E0,-1.680898905E0,1.256054640E0,-4.908921242E0
2.945420751E0,-1.500088215E0,9.836167693E-1,-4.585172176E0
2.947865230E0,-1.320499063E0,7.160657048E-1,-4.230880737E0
2.950310438E0,-1.145796776E0,4.705050886E-1,-3.850933790E0
2.952754813E0,-9.796462655E-1,2.493783981E-1,-3.447774649E0
2.955198459E0,-8.159392476E-1,6.123743951E-2,-3.025068283E0
2.957642938E0,-6.594096422E-1,-9.758284688E-2,-2.586479902E0
2.960088146E0,-5.066977739E-1,-2.356343269E-1,-2.134453058E0
2.962532521E0,-3.552076817E-1,-3.529170156E-1,-1.667765737E0
2.964976167E0,-2.061609477E-1,-4.592044353E-1,-1.193748236E0
2.967420646E0,-5.955760926E-2,-5.483881235E-1,-7.160657048E-1
2.969865855E0,8.582404256E-2,-6.216897964E-1,-2.310529798E-1
2.972310230E0,2.287622988E-1,-6.839962006E-1,2.528907657E-1
2.974753876E0,3.680354655E-1,-7.401941419E-1,7.317950130E-1
2.977198355E0,4.999784827E-1,-7.902836204E-1,1.209477544E0
2.979643563E0,6.270347238E-1,-8.428165317E-1,1.678608298E0
2.982087938E0,7.467607856E-1,-9.002361298E-1,2.139187098E0
2.984531584E0,8.579349518E-1,-9.674293399E-1,2.587548971E0
2.986976063E0,9.630007148E-1,-1.048061132E0,3.021250486E0
2.989421324E0,1.063179612E0,-1.138466597E0,3.442735195E0
2.991865699E0,1.162136912E0,-1.241088867E0,3.853224516E0
2.994309292E0,1.257429123E0,-1.341267824E0,4.249053478E0
2.996753771E0,1.351499557E0,-1.446333647E0,4.629000664E0
2.999199032E0,1.439461589E0,-1.547734261E0,4.995508671E0
3.001643407E0,1.523758531E0,-1.641804695E0,5.338805199E0
3.004087053E0,1.600725293E0,-1.726101637E0,5.667593479E0
3.006531532E0,1.666696787E0,-1.794516563E0,5.971795559E0
3.008976740E0,1.727781415E0,-1.851936221E0,6.249120235E0
3.011421115E0,1.774205923E0,-1.897138834E0,6.498345852E0
3.013864761E0,1.815743446E0,-1.932568073E0,6.718250751E0
3.016309240E0,1.846285820E0,-1.950893402E0,6.906391621E0
3.018754449E0,1.869498014E0,-1.960667014E0,7.063990593E0
3.021198824E0,1.884158373E0,-1.964332104E0,7.193490028E0
3.023642469E0,1.891488552E0,-1.975327373E0,7.293668747E0
3.026086949E0,1.893931985E0,-1.992431045E0,7.373079300E0
3.028532157E0,1.890266895E0,-2.020529985E0,7.432942390E0
3.030976532E0,1.882936716E0,-2.057180882E0,7.470814705E0
3.033420178E0,1.873163104E0,-2.101161957E0,7.492805004E0
3.035864657E0,1.862167835E0,-2.151251316E0,7.506243706E0
3.038309865E0,1.847507477E0,-2.207449198E0,7.513574123E0
3.040754240E0,1.827960372E0,-2.261203766E0,7.508687019E0
3.043197886E0,1.802304864E0,-2.314958334E0,7.489140034E0
3.045642365E0,1.763210654E0,-2.362604380E0,7.454932690E0
3.048087574E0,1.715564489E0,-2.398033619E0,7.398734570E0
3.050532053E0,1.648371339E0,-2.428728819E0,7.325433254E0
3.052975594E0,1.566517830E0,-2.443388939E0,7.226475716E0
3.055420074E0,1.462673783E0,-2.450719118E0,7.107971191E0
3.057865334E0,1.346612811E0,-2.455605984E0,6.976028442E0
3.060309709E0,1.217113137E0,-2.461714506E0,6.826981544E0
3.062753355E0,1.082726717E0,-2.472709656E0,6.674269676E0
3.065197834E0,9.458969831E-1,-2.484926701E0,6.514227867E0
3.067643042E0,8.102889061E-1,-2.500808716E0,6.346855640E0
3.070087417E0,6.783458591E-1,-2.509360552E0,6.174596786E0
3.072531063E0,5.500679612E-1,-2.510582209E0,5.996229172E0
3.074975542E0,4.327852726E-1,-2.502030373E0,5.809309959E0
3.077420751E0,3.277195692E-1,-2.478818178E0,5.611395836E0
3.079865126E0,2.324273884E-1,-2.440945625E0,5.392559528E0
3.082308771E0,1.566823274E-1,-2.390703440E0,5.153107643E0
3.084753251E0,9.193251282E-2,-2.323510170E0,4.889221668E0
3.087198459E0,4.306473210E-2,-2.240435123E0,4.596014977E0
3.089642834E0,6.413896102E-3,-2.142699480E0,4.271044254E0
3.092086480E0,-1.435491070E-2,-2.031525373E0,3.917974234E0
3.094530959E0,-2.535016090E-2,-1.898360610E0,3.531918764E0
3.096976167E0,-2.657185495E-2,-1.744427085E0,3.118986130E0
3.099420646E0,-2.168507688E-2,-1.568503022E0,2.684062958E0
3.101864188E0,-1.191152167E-2,-1.370588541E0,2.222262383E0
3.104308667E0,3.054236295E-4,-1.148240089E0,1.742136359E0
3.106753928E0,1.252236869E-2,-9.075663090E-1,1.241241574E0
3.109198303E0,2.351761982E-2,-6.546755433E-1,7.232431769E-1
3.111641949E0,2.962609194E-2,-3.944546282E-1,1.869192570E-1
3.114086428E0,2.840439789E-2,-1.269035190E-1,-3.678827584E-1
3.116531636E0,1.985253580E-2,1.308740228E-1,-9.274188280E-1
3.118976011E0,-2.137965523E-3,3.776563108E-1,-1.495506763E0
3.121419657E0,-4.001049697E-2,6.073349118E-1,-2.066038132E0
3.123864136E0,-9.620844573E-2,8.150229454E-1,-2.634126186E0
3.126309344E0,-1.707318127E-1,1.011715770E0,-3.193662167E0
3.128753719E0,-2.696890533E-1,1.193748236E0,-3.740981340E0
3.131197365E0,-3.906368315E-1,1.366007209E0,-4.271196842E0
3.133641844E0,-5.274665952E-1,1.524827480E0,-4.773313046E0
3.136087053E0,-6.778877378E-1,1.670209169E0,-5.242596626E0
3.138531428E0,-8.403730989E-1,1.803373814E0,-5.673854828E0
3.140975074E0,-1.008966923E0,1.924321532E0,-6.061131954E0
3.143419553E0,-1.178782463E0,2.033052444E0,-6.405649662E0
3.145864813E0,-1.344932914E0,2.121014357E0,-6.697634697E0
3.148309188E0,-1.504974961E0,2.191872597E0,-6.937087059E0
3.150752782E0,-1.652799964E0,2.241962194E0,-7.124006271E0
3.153197313E0,-1.782299638E0,2.266396046E0,-7.263279438E0
3.155642521E0,-1.898360610E0,2.273726225E0,-7.354906559E0
3.158086896E0,-1.998539567E0,2.260287523E0,-7.404995918E0
3.160530542E0,-2.091388226E0,2.229745150E0,-7.424542904E0
3.162975021E0,-2.167133331E0,2.189429283E0,-7.411104202E0
3.165420230E0,-2.235548258E0,2.145448208E0,-7.378118515E0
3.167864605E0,-2.291746140E0,2.102689028E0,-7.325585842E0
3.170308251E0,-2.340614080E0,2.064816475E0,-7.259614468E0
3.172752730E0,-2.379708290E0,2.037939072E0,-7.176538944E0
3.175197938E0,-2.409028769E0,2.020835400E0,-7.088576794E0
3.177642313E0,-2.429797649E0,2.012283564E0,-6.992063046E0
3.180085959E0,-2.437127829E0,2.012283564E0,-6.886997223E0
3.182530438E0,-2.438349485E0,2.023278952E0,-6.777044773E0
3.184975699E0,-2.423689127E0,2.046491146E0,-6.663427353E0
3.187420074E0,-2.402920485E0,2.080698490E0,-6.549809933E0
3.189863667E0,-2.377264738E0,2.124679565E0,-6.441079140E0
3.192308199E0,-2.346722364E0,2.173547268E0,-6.329904556E0
3.194753407E0,-2.313736677E0,2.224858522E0,-6.212622166E0
3.197197782E0,-2.278307676E0,2.281056404E0,-6.099004269E0
3.199641428E0,-2.244100094E0,2.340919495E0,-5.982943535E0
3.202085907E0,-2.203784227E0,2.406890869E0,-5.861995697E0
3.204531115E0,-2.152472973E0,2.461867094E0,-5.732496262E0
3.206975490E0,-2.085279942E0,2.496074677E0,-5.600553036E0
3.209419136E0,-1.997317791E0,2.496074677E0,-5.466166496E0
3.211863615E0,-1.884921908E0,2.449650288E0,-5.323228359E0
3.214308824E0,-1.741983652E0,2.350692987E0,-5.175250530E0
3.216753199E0,-1.577054858E0,2.199202776E0,-5.016430378E0
3.219196844E0,-1.385248899E0,1.998844981E0,-4.849058151E0
3.221641324E0,-1.182447553E0,1.769166350E0,-4.665803909E0
3.224086584E0,-9.723161459E-1,1.513832211E0,-4.464224339E0
3.226530959E0,-7.634063363E-1,1.257276416E0,-4.240654469E0
3.228974553E0,-5.616740584E-1,1.012937427E0,-3.987763643E0
3.231419084E0,-3.747547865E-1,7.954758406E-1,-3.706773996E0
3.233864292E0,-1.976090819E-1,5.975613594E-1,-3.395241737E0
3.236308667E0,-3.390202299E-2,4.240806997E-1,-3.058054209E0
3.238752313E0,1.163664013E-1,2.738122940E-1,-2.692767382E0
3.241196792E0,2.605263591E-1,1.430909634E-1,-2.307933569E0
3.243642001E0,3.985778391E-1,2.825168520E-2,-1.905996203E0
3.246086376E0,5.317425132E-1,-7.803573459E-2,-1.484511495E0
3.248530021E0,6.587987542E-1,-1.757712960E-1,-1.039814711E0
3.250974501E0,7.809682488E-1,-2.759502530E-1,-5.755708218E-1
3.253419709E0,8.945857882E-1,-3.626905680E-1,-9.177979827E-2
3.255864084E0,1.003316641E0,-4.482091665E-1,4.031592011E-1
3.258307730E0,1.103495598E0,-5.227325559E-1,9.052756429E-1
3.260752209E0,1.195122719E0,-5.838172436E-1,1.412278891E0
3.263197469E0,1.281862974E0,-6.436802745E-1,1.918060422E0
3.265641844E0,1.362494826E0,-6.998782754E-1,2.414068460E0
3.268085490E0,1.437018156E0,-7.536327839E-1,2.895416021E0
3.270529969E0,1.510319829E0,-8.110524416E-1,3.355994940E0
3.272975178E0,1.581178188E0,-8.684720993E-1,3.794583082E0
3.275419553E0,1.652036428E0,-9.234483242E-1,4.203850746E0
3.277863199E0,1.722894669E0,-9.674293399E-1,4.588684559E0
3.280307678E0,1.791309595E0,-1.002858520E0,4.944197655E0
3.282752886E0,1.856059432E0,-1.030957460E0,5.274055004E0
3.285197261E0,1.912257314E0,-1.052947998E0,5.573523045E0
3.287640907E0,1.964790225E0,-1.072495103E0,5.844739437E0
3.290085386E0,2.008771181E0,-1.087155461E0,6.091521740E0
3.292530646E0,2.047865391E0,-1.104259133E0,6.310204983E0
3.294975021E0,2.075964451E0,-1.121362805E0,6.503232479E0
3.297418615E0,2.095511436E0,-1.136023164E0,6.674269676E0
3.299863094E0,2.108950138E0,-1.150683522E0,6.825759888E0
3.302308355E0,2.116280317E0,-1.165343881E0,6.960146427E0
3.304752730E0,2.115058661E0,-1.173895717E0,7.077428818E0
3.307196376E0,2.107728481E0,-1.184890985E0,7.180051327E0
3.309640855E0,2.093068123E0,-1.194664478E0,7.276565075E0
3.312086063E0,2.067412615E0,-1.204438090E0,7.358418941E0
3.314530438E0,2.035648584E0,-1.212989926E0,7.430498600E0
3.316974084E0,1.994110823E0,-1.223985195E0,7.500135422E0
3.319418563E0,1.946464777E0,-1.236202121E0,7.564885139E0
3.321863824E0,1.892710209E0,-1.249640822E0,7.613752842E0
3.324308199E0,1.834068894E0,-1.261857748E0,7.649182320E0
3.326751792E0,1.774205923E0,-1.269187927E0,7.671172619E0
3.329196324E0,1.710677743E0,-1.265522838E0,7.679724216E0
3.331641532E0,1.639819503E0,-1.245975733E0,7.666285992E0
3.334085907E0,1.561630964E0,-1.211768270E0,7.630856514E0
3.336529553E0,1.479777455E0,-1.181225896E0,7.580767155E0
3.338974032E0,1.389372110E0,-1.158013701E0,7.516017437E0
3.341419240E0,1.285528064E0,-1.140909910E0,7.435385704E0
3.343863615E0,1.162136912E0,-1.126249671E0,7.343758583E0
3.346307261E0,1.019198656E0,-1.107924223E0,7.239914417E0
3.348751740E0,8.530482054E-1,-1.083490372E0,7.120188236E0
3.351197001E0,6.697940230E-1,-1.052947998E0,6.990688801E0
3.353641376E0,4.694361091E-1,-1.013853788E0,6.847750664E0
3.356084969E0,2.654131353E-1,-9.674293399E-1,6.693817139E0
3.358529501E0,6.749862432E-2,-9.185615778E-1,6.524001598E0
3.360974709E0,-1.181989461E-1,-8.672503829E-1,6.335860252E0
3.363419084E0,-2.892361879E-1,-8.134958148E-1,6.125729084E0
3.365862730E0,-4.395045936E-1,-7.536327839E-1,5.892385483E0
3.368307209E0,-5.690042377E-1,-6.827745438E-1,5.628499508E0
3.370752417E0,-6.754443645E-1,-5.948125124E-1,5.332696438E0
3.373196792E0,-7.621846795E-1,-4.897467792E-1,5.004060745E0
3.375640438E0,-8.305995464E-1,-3.663556576E-1,4.643661022E0
3.378084917E0,-8.855758309E-1,-2.331909388E-1,4.252718449E0
3.380530178E0,-9.197832346E-1,-9.269607067E-2,3.834899187E0
3.382974553E0,-9.417737722E-1,5.268557742E-2,3.388980627E0
3.385418146E0,-9.466605186E-1,2.005106062E-1,2.922293186E0
3.387862678E0,-9.393303990E-1,3.483356535E-1,2.433615446E0
3.390307886E0,-9.185615778E-1,4.961606860E-1,1.921725512E0
3.392752261E0,-8.843541145E-1,6.390989423E-1,1.392731786E0
3.395195907E0,-8.403730989E-1,7.820371985E-1,8.466343284E-1
3.397640386E0,-7.890619636E-1,9.176452756E-1,2.870981991E-1
3.400085594E0,-7.316423059E-1,1.052031636E0,-2.860292196E-1
3.402529969E0,-6.730009913E-1,1.176644564E0,-8.663341403E-1
3.404973615E0,-6.166502833E-1,1.303700805E0,-1.453969240E0
3.407418094E0,-5.714476109E-1,1.428313613E0,-2.046491146E0
3.409863355E0,-5.360184908E-1,1.546818018E0,-2.637791157E0
3.412307730E0,-5.164713860E-1,1.659213901E0,-3.216874361E0
3.414751376E0,-5.140279531E-1,1.759392858E0,-3.782518864E0
3.417195855E0,-5.299099684E-1,1.849798203E0,-4.327394485E0
3.419641063E0,-5.641174316E-1,1.921878219E0,-4.845393181E0
3.422085438E0,-6.142069101E-1,1.982962966E0,-5.326893330E0
3.424529084E0,-6.754443645E-1,2.023278952E0,-5.774033546E0
3.426973563E0,-7.475243211E-1,2.037939072E0,-6.173527718E0
3.429418771E0,-8.293778896E-1,2.028165579E0,-6.522932529E0
3.431863251E0,-9.161182046E-1,2.007396698E0,-6.817360878E0
3.434306792E0,-1.007745266E0,1.970745921E0,-7.067808151E0
3.436751271E0,-1.103037477E0,1.921878219E0,-7.263279438E0
3.439196532E0,-1.198329568E0,1.864458561E0,-7.411104202E0
3.441640907E0,-1.294843435E0,1.800930381E0,-7.516170025E0
3.444084553E0,-1.391357303E0,1.734958887E0,-7.582141399E0
3.446529032E0,-1.484206080E0,1.666544080E0,-7.616349220E0
3.448974240E0,-1.574611545E0,1.599350810E0,-7.623679161E0
3.451418615E0,-1.667460322E0,1.544374585E0,-7.611462116E0
3.453862261E0,-1.754200578E0,1.496728539E0,-7.580919743E0
3.456306740E0,-1.836054206E0,1.458855987E0,-7.541825771E0
3.458752001E0,-1.909355879E0,1.436865449E0,-7.494179726E0
3.461196376E0,-1.971662283E0,1.427091956E0,-7.444089890E0
3.463640021E0,-2.020529985E0,1.430757046E0,-7.394000530E0
3.466084501E0,-2.051072359E0,1.440530539E0,-7.345132828E0
3.468529709E0,-2.070619583E0,1.455190897E0,-7.302373409E0
3.470974084E0,-2.070619583E0,1.469851255E0,-7.260836124E0
3.473417730E0,-2.062067747E0,1.495506763E0,-7.216855049E0
3.475862209E0,-2.041298866E0,1.527270913E0,-7.170430660E0
3.478307469E0,-2.018086672E0,1.568808436E0,-7.115454197E0
3.480751844E0,-1.988765955E0,1.615232825E0,-7.051926136E0
3.483195438E0,-1.955780268E0,1.667765737E0,-6.979846001E0
3.485639917E0,-1.920351028E0,1.720298648E0,-6.893105984E0
3.488085178E0,-1.878813505E0,1.767944694E0,-6.790483475E0
3.490529553E0,-1.826280594E0,1.797265291E0,-6.673201084E0
3.492973199E0,-1.760309100E0,1.804595470E0,-6.537592888E0
3.495417678E0,-1.677233815E0,1.787491798E0,-6.389767647E0
3.497862886E0,-1.578276634E0,1.743510842E0,-6.227282524E0
3.500307261E0,-1.459772229E0,1.664100647E0,-6.050136566E0
3.502750907E0,-1.320499063E0,1.556591511E0,-5.854665756E0
3.505195386E0,-1.167787194E0,1.422205091E0,-5.638425827E0
3.507640646E0,-1.002858520E0,1.268271565E0,-5.395308495E0
3.510085021E0,-8.305995464E-1,1.100899458E0,-5.122717857E0
3.512528667E0,-6.545228362E-1,9.261971712E-1,-4.817294121E0
3.514973146E0,-4.761554301E-1,7.490514517E-1,-4.481328011E0
3.517418355E0,-2.941229641E-1,5.706840754E-1,-4.111154556E0
3.519862730E0,-1.133121699E-1,3.923166394E-1,-3.715325832E0
3.522306376E0,6.994201243E-2,2.176143378E-1,-3.296284437E0
3.524750855E0,2.531961799E-1,4.535540938E-2,-2.862582922E0
3.527196115E0,4.303418994E-1,-1.207950488E-1,-2.415442705E0
3.529640490E0,6.038225293E-1,-2.759502530E-1,-1.951198816E0
3.532084136E0,7.687512636E-1,-4.201101959E-1,-1.472294569E0
3.534528615E0,9.251281619E-1,-5.459447503E-1,-9.848384857E-1
3.536973824E0,1.072953224E0,-6.534538269E-1,-4.888305068E-1
3.539418199E0,1.212226391E0,-7.389724851E-1,1.450762246E-2
3.541861844E0,1.342947721E0,-8.098307252E-1,5.241069198E-1
3.544306324E0,1.463895440E0,-8.586985469E-1,1.025001645E0
3.546751532E0,1.578734756E0,-8.977927566E-1,1.524674773E0
3.549195907E0,1.685022116E0,-9.271134138E-1,2.015795946E0
3.551639553E0,1.786422849E0,-9.491039515E-1,2.495921850E0
3.554084084E0,1.876828194E0,-9.723161459E-1,2.962609291E0
3.556529292E0,1.957460046E0,-9.955283403E-1,3.413414478E0
3.558973667E0,2.029540062E0,-1.017518878E0,3.853224516E0
3.561417313E0,2.096733332E0,-1.037065983E0,4.279595852E0
3.563861792E0,2.154152870E0,-1.055391312E0,4.680311680E0
3.566307001E0,2.204242229E0,-1.065164924E0,5.067588806E0
3.568751376E0,2.243336678E0,-1.070051670E0,5.427988529E0
3.571195021E0,2.270213842E0,-1.067608237E0,5.762885571E0
3.573639501E0,2.286095858E0,-1.056613088E0,6.070752621E0
3.576084761E0,2.288539171E0,-1.037065983E0,6.351742744E0
3.578529136E0,2.278765678E0,-1.012632012E0,6.603411674E0
3.580972782E0,2.257996798E0,-9.894198179E-1,6.823316574E0
3.583417261E0,2.228676319E0,-9.735378027E-1,7.013900757E0
3.585862469E0,2.188360214E0,-9.674293399E-1,7.182494640E0
3.588306844E0,2.139492512E0,-9.723161459E-1,7.327876568E0
3.590750490E0,2.075964451E0,-9.894198179E-1,7.448824406E0
3.593194969E0,2.002662659E0,-1.019962192E0,7.550224781E0
3.595640230E0,1.914700747E0,-1.061499834E0,7.625969887E0
3.598084605E0,1.818186879E0,-1.106702566E0,7.678502560E0
3.600528251E0,1.711899400E0,-1.158013701E0,7.709044933E0
3.602972730E0,1.604390383E0,-1.205659747E0,7.717597008E0
3.605417938E0,1.489551067E0,-1.256971002E0,7.705379963E0
3.607862313E0,1.372268319E0,-1.309503794E0,7.679724216E0
3.610305959E0,1.247655511E0,-1.357149839E0,7.633299828E0
3.612750438E0,1.116934180E0,-1.399909258E0,7.568550110E0
3.615195699E0,9.752176404E-1,-1.442668557E0,7.480588436E0
3.617640074E0,8.237275481E-1,-1.485427856E0,7.376744270E0
3.620083719E0,6.624638438E-1,-1.522078633E0,7.250909805E0
3.622528199E0,4.987567961E-1,-1.561172843E0,7.110414982E0
3.624973407E0,3.362714052E-1,-1.599045396E0,6.956481457E0
3.627417782E0,1.823379099E-1,-1.628366113E0,6.781778812E0
3.629861428E0,3.939964995E-2,-1.641804695E0,6.600968361E0
3.632305907E0,-9.132166207E-2,-1.634474516E0,6.407940388E0
3.634751167E0,-2.086043358E-1,-1.606375575E0,6.197809219E0
3.637195542E0,-3.100049794E-1,-1.559951186E0,5.974238873E0
3.639639188E0,-3.955236077E-1,-1.489092946E0,5.732343197E0
3.642083667E0,-4.639385045E-1,-1.406017661E0,5.469526291E0
3.644528876E0,-5.066977739E-1,-1.314390540E0,5.177541256E0
3.646973251E0,-5.238015056E-1,-1.211768270E0,4.856235504E0
3.649416896E0,-5.128062963E-1,-1.107924223E0,4.509274483E0
3.651861376E0,-4.724903405E-1,-1.006523609E0,4.130548954E0
3.654306636E0,-4.052971601E-1,-9.112313986E-1,3.718838215E0
3.656751011E0,-3.161134422E-1,-8.208259940E-1,3.276584625E0
3.659194605E0,-2.098260373E-1,-7.365291119E-1,2.798902035E0
3.661639136E0,-8.887827396E-2,-6.510104537E-1,2.294342279E0
3.664084344E0,3.939964995E-2,-5.618267655E-1,1.764126897E0
3.666528719E0,1.713426560E-1,-4.738647640E-1,1.208255887E0
3.668972365E0,3.020639718E-1,-3.907895386E-1,6.377245188E-1
3.671416844E0,4.217900336E-1,-3.052709103E-1,5.482354015E-2
3.673862105E0,5.231906772E-1,-2.209739983E-1,-5.376983285E-1
3.676306480E0,6.050441861E-1,-1.366770715E-1,-1.132663488E0
3.678750074E0,6.636855602E-1,-5.360184610E-2,-1.726407051E0
3.681194605E0,6.942279339E-1,3.191677108E-2,-2.310377121E0
3.683639813E0,6.954495907E-1,1.211004704E-1,-2.879686594E0
3.686084188E0,6.649072170E-1,2.127275616E-1,-3.435557604E0
3.688527834E0,6.038225293E-1,3.129065037E-1,-3.964551449E0
3.690972313E0,5.097520351E-1,4.216373265E-1,-4.463002682E0
3.693417574E0,3.863608837E-1,5.413633585E-1,-4.928468227E0
3.695861949E0,2.385358512E-1,6.696413159E-1,-5.356214046E0
3.698305594E0,6.505523622E-2,8.040276766E-1,-5.739826202E0
3.700750074E0,-1.218640283E-1,9.323056340E-1,-6.077013969E0
3.703195282E0,-3.197785318E-1,1.054475069E0,-6.372663975E0
3.705639657E0,-5.213581324E-1,1.155875683E0,-6.621889591E0
3.708083303E0,-7.267554998E-1,1.238950968E0,-6.827134609E0
3.710527782E0,-9.258917570E-1,1.304922462E0,-6.990841389E0
3.712973042E0,-1.118919492E0,1.361120462E0,-7.106902599E0
3.715417417E0,-1.308282137E0,1.400214672E0,-7.191199303E0
3.717861063E0,-1.485427856E0,1.430757046E0,-7.237623692E0
3.720305542E0,-1.651578307E0,1.460077643E0,-7.252284050E0
3.722750751E0,-1.803068399E0,1.488176584E0,-7.247397423E0
3.725195126E0,-1.942341566E0,1.511388779E0,-7.225406647E0
3.727638771E0,-2.058402538E0,1.529714227E0,-7.186312675E0
3.730083251E0,-2.156138182E0,1.546818018E0,-7.136223316E0
3.732528511E0,-2.231883287E0,1.568808436E0,-7.082468510E0
3.734972886E0,-2.284415960E0,1.601794243E0,-7.017718792E0
3.737416532E0,-2.316179991E0,1.643331885E0,-6.952969074E0
3.739861011E0,-2.329618692E0,1.695864677E0,-6.877223969E0
3.742306219E0,-2.327175379E0,1.753284335E0,-6.797813892E0
3.744750594E0,-2.310071707E0,1.809482336E0,-6.704965115E0
3.747194240E0,-2.281972647E0,1.858350039E0,-6.596234322E0
3.749638719E0,-2.241656780E0,1.903552771E0,-6.472843170E0
3.752083980E0,-2.187902212E0,1.941425323E0,-6.328682899E0
3.754528355E0,-2.120708942E0,1.960972428E0,-6.167419434E0
3.756972001E0,-2.035190344E0,1.954863906E0,-5.985386848E0
3.759416480E0,-1.935011387E0,1.918213129E0,-5.789915562E0
3.761861688E0,-1.815285325E0,1.859571815E0,-5.583449364E0
3.764306063E0,-1.680898905E0,1.766723037E0,-5.368431091E0
3.766749709E0,-1.533073902E0,1.644553542E0,-5.139821529E0
3.769194188E0,-1.377918720E0,1.494285107E0,-4.899147511E0
3.771639449E0,-1.220320106E0,1.325691223E0,-4.634039879E0
3.774083824E0,-1.062721491E0,1.144880533E0,-4.344498634E0
3.776527469E0,-9.051229358E-1,9.616262913E-1,-4.035409927E0
3.778971949E0,-7.511894107E-1,7.832589149E-1,-3.700665474E0
3.781417157E0,-6.019899845E-1,6.195518374E-1,-3.350039005E0
3.783861532E0,-4.627167881E-1,4.717268050E-1,-2.984752417E0
3.786305178E0,-3.283303976E-1,3.422271907E-1,-2.602361917E0
3.788749657E0,-2.024958730E-1,2.322746664E-1,-2.205311298E0
3.791194917E0,-8.521319181E-2,1.467560530E-1,-1.793600321E0
3.793639292E0,2.718270384E-2,8.322793990E-2,-1.366007209E0
3.796082938E0,1.359135211E-1,3.802524135E-2,-9.225320816E-1
3.798527417E0,2.422009408E-1,2.596100792E-3,-4.558447599E-1
3.800972626E0,3.484883606E-1,-3.161134571E-2,2.794626169E-2
3.803417001E0,4.596625566E-1,-6.948387623E-2,5.277720094E-1
3.805860646E0,5.708367825E-1,-1.183516532E-1,1.040883780E0
3.808305126E0,6.856760383E-1,-1.794363856E-1,1.560103893E0
3.810750386E0,8.066238165E-1,-2.576248348E-1,2.087875843E0
3.813194761E0,9.287932515E-1,-3.455868363E-1,2.615648031E0
3.815638407E0,1.053406119E0,-4.298837483E-1,3.134868145E0
3.818082886E0,1.174353838E0,-5.166240931E-1,3.645536423E0
3.820528094E0,1.289193153E0,-5.960342288E-1,4.143987656E0
3.822972574E0,1.400367379E0,-6.791094542E-1,4.625335217E0
3.825416115E0,1.500546336E0,-7.572978735E-1,5.079805851E0
3.827860646E0,1.590951681E0,-8.330429196E-1,5.511216640E0
3.830305855E0,1.671583533E0,-8.977927566E-1,5.907045841E0
3.832750230E0,1.746106863E0,-9.503256083E-1,6.274775982E0
3.835193876E0,1.809635043E0,-9.906415343E-1,6.604633331E0
3.837638355E0,1.865832925E0,-1.016297102E0,6.901504993E0
3.840083563E0,1.913479090E0,-1.032179117E0,7.153173923E0
3.842528042E0,1.952573299E0,-1.045617819E0,7.365748882E0
3.844971584E0,1.984337330E0,-1.054169655E0,7.538007736E0
3.847416115E0,2.007549524E0,-1.071273327E0,7.674837589E0
3.849861324E0,2.019766569E0,-1.109145880E0,7.778681755E0
3.852305699E0,2.023431540E0,-1.159235358E0,7.851983547E0
3.854749344E0,2.019766569E0,-1.221541762E0,7.899629593E0
3.857193824E0,2.007549524E0,-1.289956689E0,7.924063206E0
3.859639084E0,1.986780763E0,-1.365701795E0,7.930171967E0
3.862083459E0,1.959903479E0,-1.443890214E0,7.920398235E0
3.864527105E0,1.923252583E0,-1.523300409E0,7.899629593E0
3.866971584E0,1.879271626E0,-1.595380306E0,7.862978458E0
3.869416792E0,1.826738715E0,-1.660130143E0,7.810445786E0
3.871861167E0,1.765653968E0,-1.715106368E0,7.740808964E0
3.874304813E0,1.694795728E0,-1.749313831E0,7.652847290E0
3.876749292E0,1.608055353E0,-1.763974190E0,7.542894840E0
3.879194553E0,1.504211426E0,-1.756644011E0,7.413394928E0
3.881638928E0,1.388150454E0,-1.739540339E0,7.265570164E0
3.884082574E0,1.259872437E0,-1.706554532E0,7.104306221E0
3.886527053E0,1.123042703E0,-1.660130143E0,6.934490681E0
3.888972261E0,9.849911928E-1,-1.600267053E0,6.747571468E0
3.891416636E0,8.469397426E-1,-1.535517335E0,6.547213554E0
3.893860282E0,7.113316059E-1,-1.467102408E0,6.324865341E0
3.896304813E0,5.830537081E-1,-1.396244168E0,6.085412979E0
3.898750021E0,4.645493329E-1,-1.322942495E0,5.827635765E0
3.901194396E0,3.570402265E-1,-1.248419046E0,5.547867298E0
3.903638042E0,2.617480457E-1,-1.165343881E0,5.239847660E0
3.906082521E0,1.823379099E-1,-1.081046939E0,4.907546997E0
3.908527782E0,1.163664013E-1,-9.943066239E-1,4.545925140E0
3.910972157E0,6.994201243E-2,-8.990144730E-1,4.148874760E0
3.913415803E0,4.306473210E-2,-7.988355160E-1,3.723724842E0
3.915860282E0,3.573456407E-2,-6.901046634E-1,3.265589476E0
3.918305490E0,4.672981426E-2,-5.716003180E-1,2.780576706E0
3.920749865E0,6.872031838E-2,-4.457657933E-1,2.267465115E0
3.923193511E0,1.004843712E-1,-3.052709103E-1,1.729919434E0
3.925637990E0,1.383569092E-1,-1.537808031E-1,1.170383334E0
3.928083251E0,1.823379099E-1,1.374406274E-3,6.022953987E-1
3.930527626E0,2.263189107E-1,1.565296054E-1,2.428117767E-2
3.932971271E0,2.678565085E-1,3.055763543E-1,-5.621321797E-1
3.935415751E0,3.045073450E-1,4.314108789E-1,-1.149767280E0
3.937860959E0,3.362714052E-1,5.352548957E-1,-1.739845753E0
3.940305334E0,3.570402265E-1,6.158867478E-1,-2.327480793E0
3.942748980E0,3.631486893E-1,6.855233312E-1,-2.910228968E0
3.945193459E0,3.509317636E-1,7.453863621E-1,-3.480760336E0
3.947638719E0,3.191677034E-1,8.028060198E-1,-4.029301167E0
3.950083094E0,2.605263591E-1,8.602256775E-1,-4.555851460E0
3.952526740E0,1.798945218E-1,9.176452756E-1,-5.054303169E0
3.954971219E0,7.605048269E-2,9.787300229E-1,-5.512590885E0
3.957416480E0,-4.734066129E-2,1.043479800E0,-5.930410385E0
3.959860855E0,-1.878355294E-1,1.120446563E0,-6.300583839E0
3.962304449E0,-3.393256664E-1,1.208408594E0,-6.625554562E0
3.964748980E0,-5.030327439E-1,1.304922462E0,-6.900435925E0
3.967194188E0,-6.766660213E-1,1.401436329E0,-7.125227928E0
3.969638563E0,-8.550334573E-1,1.496728539E0,-7.306038857E0
3.972082209E0,-1.038287640E0,1.582247138E0,-7.452641964E0
3.974526688E0,-1.219098449E0,1.649440289E0,-7.565037727E0
3.976971949E0,-1.403574347E0,1.698308110E0,-7.651778221E0
3.979416324E0,-1.579498291E0,1.730072141E0,-7.710419655E0
3.981859969E0,-1.755422354E0,1.749619246E0,-7.749513626E0
3.984304449E0,-1.921572804E0,1.765501261E0,-7.776391029E0
3.986749657E0,-2.076727867E0,1.781383276E0,-7.791051388E0
3.989194032E0,-2.222109556E0,1.793600321E0,-7.799603462E0
3.991637678E0,-2.350387573E0,1.805817246E0,-7.797159672E0
3.994082209E0,-2.462783337E0,1.815590739E0,-7.788608074E0
3.996527417E0,-2.551967144E0,1.821699262E0,-7.775169373E0
3.998971792E0,-2.616716862E0,1.825364351E0,-7.756844044E0
4.001415438E0,-2.659476280E0,1.833916187E0,-7.734853268E0
4.003859917E0,-2.683910131E0,1.842468023E0,-7.709197998E0
4.006305178E0,-2.690018654E0,1.858350039E0,-7.674990177E0
4.008749553E0,-2.680245161E0,1.879118919E0,-7.629787922E0
4.011193199E0,-2.665584803E0,1.905996203E0,-7.580919743E0
4.013637678E0,-2.641150951E0,1.942646980E0,-7.517391682E0
4.016082886E0,-2.605721712E0,1.984184623E0,-7.440424919E0
4.018527261E0,-2.553188801E0,2.030608892E0,-7.341467857E0
4.020970907E0,-2.483552217E0,2.066038132E0,-7.224184990E0
4.023415386E0,-2.395590305E0,2.092915535E0,-7.087355137E0
4.025860646E0,-2.290524483E0,2.116127729E0,-6.939530373E0
4.028305021E0,-2.172020197E0,2.122236013E0,-6.777044773E0
4.030748667E0,-2.040077209E0,2.112462521E0,-6.591347218E0
4.033193146E0,-1.898360610E0,2.085585356E0,-6.387324333E0
4.035638355E0,-1.748092175E0,2.035495758E0,-6.149094105E0
4.038082730E0,-1.592936993E0,1.960972428E0,-5.879099369E0
4.040526376E0,-1.436560035E0,1.864458561E0,-5.573675632E0
4.042970907E0,-1.276518106E0,1.745954156E0,-5.232822895E0
4.045416115E0,-1.115254402E0,1.605459332E0,-4.862496853E0
4.047860490E0,-9.515473247E-1,1.449082375E0,-4.460559368E0
4.050304136E0,-7.927270532E-1,1.280488610E0,-4.029301167E0
4.052748615E0,-6.374191046E-1,1.089904189E0,-3.574830770E0
4.055193876E0,-4.895940721E-1,8.907679915E-1,-3.097148418E0
4.057638251E0,-3.490992188E-1,6.806365848E-1,-2.595031977E0
4.060081896E0,-2.183778882E-1,4.753918648E-1,-2.075811625E0
4.062526376E0,-9.743013978E-2,2.799207568E-1,-1.540709496E0
4.064971584E0,1.863084175E-2,9.544488788E-2,-9.872818589E-1
4.067415959E0,1.236965731E-1,-7.437065244E-2,-4.155288339E-1
4.069859605E0,2.226538211E-1,-2.319692522E-1,1.661504507E-1
4.072304084E0,3.155026138E-1,-3.736858070E-1,7.550072074E-1
4.074749344E0,4.059080184E-1,-4.982986450E-1,1.341420531E0
4.077193719E0,4.950917065E-1,-5.996993184E-1,1.922947168E0
4.079637365E0,5.806103349E-1,-6.852179170E-1,2.494700193E0
4.082081844E0,6.697940230E-1,-7.634063363E-1,3.048127890E0
4.084527053E0,7.516475320E-1,-8.354863524E-1,3.582008362E0
4.086971428E0,8.347227573E-1,-9.112313986E-1,4.098784924E0
4.089415074E0,9.165763259E-1,-9.918632507E-1,4.594793320E0
4.091859605E0,9.947647452E-1,-1.070051670E0,5.066367149E0
4.094304813E0,1.071731567E0,-1.140909910E0,5.516103268E0
4.096749188E0,1.146254897E0,-1.205659747E0,5.938809872E0
4.099192834E0,1.215891480E0,-1.270409584E0,6.330973625E0
4.101637313E0,1.276976228E0,-1.333937645E0,6.693817139E0
4.104082521E0,1.331952453E0,-1.392579079E0,7.018787861E0
4.106527001E0,1.377155185E0,-1.441446781E0,7.308329105E0
4.108970594E0,1.405254126E0,-1.481762767E0,7.557555199E0
4.111415074E0,1.421136141E0,-1.511083364E0,7.772573471E0
4.113860282E0,1.418692708E0,-1.537960649E0,7.954605579E0
4.116304657E0,1.404032469E0,-1.568503022E0,8.104874611E0
4.118748303E0,1.385707021E0,-1.608819008E0,8.223378181E0
4.121192782E0,1.362494826E0,-1.671125412E0,8.307675362E0
4.123638042E0,1.341725945E0,-1.756644011E0,8.360208511E0
4.126082417E0,1.325843930E0,-1.862931371E0,8.382198334E0
4.128526063E0,1.317292094E0,-1.983879209E0,8.380976677E0
4.130970542E0,1.309961915E0,-2.107270241E0,8.357765198E0
4.133415751E0,1.306296825E0,-2.231883287E0,8.316226959E0
4.135860126E0,1.297744989E0,-2.350387573E0,8.255142212E0
4.138303771E0,1.286749721E0,-2.454384327E0,8.180619240E0
4.140748303E0,1.268424392E0,-2.536237717E0,8.088992119E0
4.143193511E0,1.245212078E0,-2.603430986E0,7.980261326E0
4.145637886E0,1.208561301E0,-2.644968748E0,7.854426861E0
4.148081532E0,1.157250166E0,-2.663294077E0,7.712710381E0
4.150526613E0,1.093721986E0,-2.660850763E0,7.558776855E0
4.152971873E0,1.014311910E0,-2.635195017E0,7.395069599E0
4.155416248E0,9.251281619E-1,-2.582662106E0,7.216702461E0
4.157859894E0,8.261709213E-1,-2.511803865E0,7.026117802E0
4.160304373E0,7.247702479E-1,-2.432393789E0,6.819651604E0
4.162749582E0,6.258130074E-1,-2.345500708E0,6.597302914E0
4.165194061E0,5.305208564E-1,-2.261203766E0,6.352964401E0
4.167637603E0,4.437805414E-1,-2.189123869E0,6.089078426E0
4.170082134E0,3.680354655E-1,-2.131704330E0,5.810531616E0
4.172527342E0,3.020639718E-1,-2.085279942E0,5.508773327E0
4.174971717E0,2.434226274E-1,-2.043742180E0,5.179984570E0
4.177415363E0,1.933331639E-1,-2.002204657E0,4.820806503E0
4.179859842E0,1.530172378E-1,-1.957001925E0,4.432307720E0
4.182305103E0,1.200314835E-1,-1.904469013E0,4.013266563E0
4.184749478E0,1.029277667E-1,-1.834832430E0,3.564904690E0
4.187193123E0,9.315420687E-2,-1.745648742E0,3.089665413E0
4.189637603E0,9.681928903E-2,-1.629587770E0,2.587548971E0
4.192082811E0,1.151447073E-1,-1.481762767E0,2.073215485E0
4.194527186E0,1.469087601E-1,-1.311947227E0,1.540556788E0
4.196970832E0,1.872246861E-1,-1.118919492E0,9.932376146E-1
4.199415311E0,2.373141646E-1,-9.075663090E-1,4.385883212E-1
4.201860571E0,2.947337925E-1,-6.901046634E-1,-1.296523362E-1
4.204304946E0,3.533751369E-1,-4.714213610E-1,-7.026270628E-1
4.206748592E0,4.107947946E-1,-2.576248348E-1,-1.284153700E0
4.209193071E0,4.584408700E-1,-4.871506989E-2,-1.871788740E0
4.211638280E0,4.987567961E-1,1.565296054E-1,-2.453315258E0
4.214082759E0,5.244123936E-1,3.581092060E-1,-3.029955149E0
4.216526353E0,5.317425132E-1,5.621321797E-1,-3.593156338E0
4.218970832E0,5.183038712E-1,7.685985565E-1,-4.135588646E0
4.221416040E0,4.889832437E-1,9.750649333E-1,-4.652365208E0
4.223860415E0,4.413371384E-1,1.181531310E0,-5.136156559E0
4.226304061E0,3.704788685E-1,1.383110881E0,-5.585892677E0
4.228748540E0,2.837385535E-1,1.578582048E0,-6.000047207E0
4.231193801E0,1.798945218E-1,1.766723037E0,-6.378772736E0
4.233638176E0,6.016845629E-2,1.942646980E0,-6.712295055E0
4.236081821E0,-7.055285573E-2,2.097802162E0,-7.004280090E0
4.238526301E0,-2.110477239E-1,2.237075329E0,-7.249840736E0
4.240971509E0,-3.588727713E-1,2.356801510E0,-7.453863621E0
4.243415884E0,-5.054761171E-1,2.460645437E0,-7.617570877E0
4.245859530E0,-6.569662094E-1,2.543720722E0,-7.742183685E0
4.248304061E0,-8.098307252E-1,2.599918604E0,-7.825258732E0
4.250749269E0,-9.600991607E-1,2.621909142E0,-7.876569748E0
4.253193644E0,-1.111589313E0,2.618244171E0,-7.896117210E0
4.255637290E0,-1.256971002E0,2.586479902E0,-7.890008450E0
4.258081769E0,-1.398687482E0,2.535168886E0,-7.865574837E0
4.260527030E0,-1.536738992E0,2.476527452E0,-7.826480389E0
4.262971405E0,-1.663795233E0,2.419107914E0,-7.773947716E0
4.265415051E0,-1.783521295E0,2.366575003E0,-7.714084625E0
4.267859530E0,-1.894695520E0,2.321372271E0,-7.644447803E0
4.270304738E0,-1.993652701E0,2.289608240E0,-7.566259384E0
4.272749113E0,-2.080393076E0,2.267617702E0,-7.483184338E0
4.275192759E0,-2.148808002E0,2.263952732E0,-7.391557217E0
4.277637290E0,-2.194010735E0,2.270061016E0,-7.290156841E0
4.280082498E0,-2.214779377E0,2.267617702E0,-7.176538944E0
4.282526873E0,-2.205005884E0,2.249292374E0,-7.048261166E0
4.284970519E0,-2.165911674E0,2.210198164E0,-6.899214268E0
4.287414998E0,-2.102383614E0,2.149113417E0,-6.730620384E0
4.289860259E0,-2.008313179E0,2.059929609E0,-6.540036201E0
4.292304634E0,-1.891030431E0,1.959750772E0,-6.316465855E0
4.294748280E0,-1.756644011E0,1.846133113E0,-6.066018581E0
4.297192759E0,-1.607597232E0,1.725185394E0,-5.778920650E0
4.299637967E0,-1.443890214E0,1.596907496E0,-5.467388153E0
4.302082342E0,-1.270409584E0,1.461299300E0,-5.128826141E0
4.304525988E0,-1.087155461E0,1.320804477E0,-4.767204762E0
4.306970467E0,-8.965710402E-1,1.170536041E0,-4.381149292E0
4.309415728E0,-6.998782754E-1,1.012937427E0,-3.981655121E0
4.311860103E0,-5.030327439E-1,8.504521251E-1,-3.556505442E0
4.314303748E0,-3.002314270E-1,6.830799580E-1,-3.103256702E0
4.316748228E0,-9.620844573E-2,5.144860744E-1,-2.629239321E0
4.319193436E0,1.065928489E-1,3.410054743E-1,-2.123457670E0
4.321637915E0,3.081724346E-1,1.663031727E-1,-1.593242407E0
4.324081509E0,5.048652887E-1,-5.955760833E-3,-1.045923233E0
4.326525988E0,6.978929639E-1,-1.745496094E-1,-4.839437306E-1
4.328971196E0,8.799254894E-1,-3.516952991E-1,8.658760041E-2
4.331415571E0,1.047297597E0,-5.361711979E-1,6.609367132E-1
4.333859217E0,1.196344376E0,-7.304205894E-1,1.232689738E0
4.336303696E0,1.323400617E0,-9.271134138E-1,1.797112584E0
4.338748957E0,1.428466320E0,-1.109145880E0,2.349318504E0
4.341193332E0,1.507876515E0,-1.275296330E0,2.886864185E0
4.343636978E0,1.565296054E0,-1.421899676E0,3.408527613E0
4.346081457E0,1.604390383E0,-1.551399350E0,3.906979084E0
4.348526665E0,1.628824234E0,-1.668681979E0,4.383440018E0
4.350971040E0,1.649592996E0,-1.778634548E0,4.836688519E0
4.353414738E0,1.664253354E0,-1.878813505E0,5.264281750E0
4.355859217E0,1.683800459E0,-1.972883940E0,5.663928509E0
4.358304426E0,1.709456086E0,-2.058402538E0,6.038988590E0
4.360748801E0,1.741220117E0,-2.134147644E0,6.388393402E0
4.363192446E0,1.785201073E0,-2.200119019E0,6.713364124E0
4.365636926E0,1.838955641E0,-2.264868975E0,7.007792473E0
4.368082186E0,1.908592224E0,-2.328397036E0,7.276565075E0
4.370526561E0,1.990445852E0,-2.394368649E0,7.511130810E0
4.372970207E0,2.085737944E0,-2.454384327E0,7.717597008E0
4.375414686E0,2.187138557E0,-2.519134045E0,7.898407936E0
4.377859894E0,2.289761066E0,-2.587548971E0,8.057228088E0
4.380304373E0,2.389939785E0,-2.653520584E0,8.196500778E0
4.382747915E0,2.486453772E0,-2.708496809E0,8.316226959E0
4.385192446E0,2.580524206E0,-2.747591019E0,8.420071602E0
4.387637655E0,2.669708014E0,-2.768359661E0,8.505589485E0
4.390082030E0,2.755226612E0,-2.772024870E0,8.575226784E0
4.392525676E0,2.832193375E0,-2.761029720E0,8.630203247E0
4.394970155E0,2.907938480E0,-2.721935272E0,8.671740532E0
4.397415415E0,2.978796721E0,-2.665737391E0,8.697396278E0
4.399859790E0,3.041103125E0,-2.587548971E0,8.696174622E0
4.402303436E0,3.093636036E0,-2.492256880E0,8.671740532E0
4.404747915E0,3.133951902E0,-2.382151604E0,8.610655785E0
4.407193123E0,3.158385754E0,-2.262425423E0,8.517807007E0
4.409637498E0,3.168159246E0,-2.136590958E0,8.389529228E0
4.412081144E0,3.162050724E0,-2.004647970E0,8.234374046E0
4.414525676E0,3.144947052E0,-1.859266400E0,8.053563118E0
4.416970884E0,3.119291544E0,-1.699224353E0,7.851983547E0
4.419415259E0,3.087527514E0,-1.519635320E0,7.629634857E0
4.421858905E0,3.056985140E0,-1.331494331E0,7.381630898E0
4.424303384E0,3.026442766E0,-1.143353343E0,7.101862907E0
4.426748644E0,2.989791870E0,-9.686510563E-1,6.785444260E0
4.429193019E0,2.945810795E0,-8.244910836E-1,6.426265717E0
4.431636665E0,2.881061077E0,-7.169819474E-1,6.026771545E0
4.434081144E0,2.795542479E0,-6.387935281E-1,5.588183403E0
4.436526353E0,2.685590029E0,-5.838172436E-1,5.110348225E0
4.438970832E0,2.551203489E0,-5.422796607E-1,4.605788231E0
4.441414373E0,2.392383337E0,-5.080721974E-1,4.069464207E0
4.443858905E0,2.214015961E0,-4.811949134E-1,3.516036749E0
4.446304113E0,2.022209883E0,-4.543176591E-1,2.940618753E0
4.448748488E0,1.819408536E0,-4.188885093E-1,2.352983713E0
4.451192134E0,1.612942219E0,-3.712424338E-1,1.761683464E0
4.453636613E0,1.408919215E0,-3.064926267E-1,1.165496588E0
4.456081873E0,1.215891480E0,-2.283041626E-1,5.656445622E-1
4.458526248E0,1.037524104E0,-1.293469071E-1,-2.580829710E-2
4.460969894E0,8.725953102E-1,-1.939439960E-2,-6.073349118E-1
4.463414373E0,7.284353375E-1,9.788827598E-2,-1.179087877E0
4.465859582E0,6.062659025E-1,2.163926363E-1,-1.742289066E0
4.468303957E0,4.999784827E-1,3.422271907E-1,-2.295716763E0
4.470747603E0,4.132381678E-1,4.790569544E-1,-2.832040548E0
4.473192134E0,3.448232710E-1,6.342121959E-1,-3.353704214E0
4.475637342E0,2.886253297E-1,8.235748410E-1,-3.863150835E0
4.478081717E0,2.397575527E-1,1.038593054E0,-4.356715202E0
4.480525363E0,1.982199401E-1,1.287818789E0,-4.827067852E0
4.482969842E0,1.542389393E-1,1.559034944E0,-5.275582314E0
4.485415103E0,1.053711548E-1,1.848576546E0,-5.698288441E0
4.487859478E0,4.672981426E-2,2.145448208E0,-6.084343910E0
4.490303123E0,-1.924168877E-2,2.438654900E0,-6.428862095E0
4.492747603E0,-9.743013978E-2,2.713536263E0,-6.726955414E0
4.495192811E0,-1.866138428E-1,2.962914705E0,-6.977402687E0
4.497637186E0,-2.782409191E-1,3.162050724E0,-7.181425571E0
4.500080832E0,-3.723114133E-1,3.319649458E0,-7.340246201E0
4.502525311E0,-4.688252807E-1,3.427158594E0,-7.456306934E0
4.504970571E0,-5.690042377E-1,3.482134819E0,-7.536938667E0
4.507414946E0,-6.791094542E-1,3.491908312E0,-7.582141399E0
4.509858592E0,-8.000571728E-1,3.461365938E0,-7.595580101E0
4.512303071E0,-9.356653094E-1,3.401502848E0,-7.589471817E0
4.514748332E0,-1.087155461E0,3.330644608E0,-7.567481041E0
4.517192707E0,-1.250862479E0,3.246347666E0,-7.529608727E0
4.519636353E0,-1.425564766E0,3.162050724E0,-7.485627651E0
4.522080832E0,-1.605153918E0,3.065536976E0,-7.434316635E0
4.524526040E0,-1.785964727E0,2.959249496E0,-7.376896858E0
4.526970519E0,-1.966775417E0,2.838149071E0,-7.318255424E0
4.529414061E0,-2.141477823E0,2.707427740E0,-7.258392334E0
4.531858540E0,-2.305184841E0,2.566932917E0,-7.197308064E0
4.534303801E0,-2.456675053E0,2.423994541E0,-7.133779526E0
4.536748176E0,-2.593504667E0,2.288386583E0,-7.070251465E0
4.539191821E0,-2.707122326E0,2.166217089E0,-7.007945061E0
4.541636301E0,-2.798749447E0,2.057486296E0,-6.944417000E0
4.544081561E0,-2.872051001E0,1.958528996E0,-6.876002312E0
4.546525936E0,-2.917253733E0,1.875453830E0,-6.806365490E0
4.548969582E0,-2.942909479E0,1.805817246E0,-6.731842041E0
4.551414061E0,-2.945352793E0,1.759392858E0,-6.657319069E0
4.553859269E0,-2.930692434E0,1.738623977E0,-6.580352306E0
4.556303644E0,-2.897706747E0,1.739845753E0,-6.502163410E0
4.558747290E0,-2.848838806E0,1.765501261E0,-6.414201736E0
4.561191769E0,-2.792640924E0,1.802152157E0,-6.315244198E0
4.563637030E0,-2.723004341E0,1.851019859E0,-6.199183464E0
4.566081405E0,-2.641150951E0,1.901109338E0,-6.062353611E0
4.568525051E0,-2.548301935E0,1.947533727E0,-5.899868488E0
4.570969530E0,-2.439571142E0,1.970745921E0,-5.705618858E0
4.573414790E0,-2.313736677E0,1.964637518E0,-5.480826855E0
4.575859165E0,-2.173241854E0,1.912104607E0,-5.219384193E0
4.578302811E0,-2.011978149E0,1.813147426E0,-4.913807869E0
4.580747290E0,-1.837275863E0,1.655548811E0,-4.560738564E0
4.583192498E0,-1.650356531E0,1.442973971E0,-4.178348064E0
4.585636873E0,-1.459772229E0,1.180309653E0,-3.758085012E0
4.588080519E0,-1.267966151E0,8.748859763E-1,-3.302392960E0
4.590524998E0,-1.088377118E0,5.364766121E-1,-2.821045399E0
4.592970259E0,-9.271134138E-1,1.821851879E-1,-2.320150614E0
4.595414634E0,-7.878402472E-1,-1.684411317E-1,-1.797265291E0
4.597858280E0,-6.778877378E-1,-5.044071078E-1,-1.263384819E0
4.600302759E0,-5.934380889E-1,-8.073873520E-1,-7.270609736E-1
4.602747967E0,-5.311316848E-1,-1.071273327E0,-1.870719790E-1
4.605192446E0,-4.895940721E-1,-1.293621778E0,3.432961702E-1
4.607636040E0,-4.627167881E-1,-1.470767498E0,8.612946272E-1
4.610080519E0,-4.407263100E-1,-1.602710485E0,1.369519591E0
4.612525728E0,-4.211791754E-1,-1.699224353E0,1.861862421E0
4.614970103E0,-4.077405334E-1,-1.759087443E0,2.335879803E0
4.617413748E0,-3.881934285E-1,-1.794516563E0,2.790350199E0
4.619858228E0,-3.637595475E-1,-1.810398579E0,3.222830057E0
4.622303488E0,-3.344388604E-1,-1.817728758E0,3.633319378E0
4.624747863E0,-2.953446507E-1,-1.826280594E0,4.015709877E0
4.627191509E0,-2.489202619E-1,-1.838497519E0,4.370001316E0
4.629635988E0,-1.963873953E-1,-1.854379535E0,4.694972038E0
4.632081196E0,-1.328592747E-1,-1.872704983E0,4.985735416E0
4.634525676E0,-6.444438547E-2,-1.898360610E0,5.256951332E0
4.636969217E0,1.496575773E-2,-1.939898133E0,5.501442909E0
4.639413748E0,9.437590092E-2,-1.987544298E0,5.722569942E0
4.641858957E0,1.835595965E-1,-2.035190344E0,5.918040752E0
4.644303332E0,2.776300907E-1,-2.077949762E0,6.090300083E0
4.646746978E0,3.753656447E-1,-2.114600420E0,6.238124847E0
4.649191457E0,4.816530645E-1,-2.152472973E0,6.361515999E0
4.651636717E0,5.952706337E-1,-2.186680555E0,6.461695194E0
4.654081092E0,7.198835015E-1,-2.222109556E0,6.542326927E0
4.656524738E0,8.542698622E-1,-2.257538795E0,6.599746704E0
4.658969217E0,9.947647452E-1,-2.286859512E0,6.647392750E0
4.661414426E0,1.136481285E0,-2.312515020E0,6.682821751E0
4.663858905E0,1.275754452E0,-2.325953722E0,6.712142467E0
4.666302498E0,1.410140872E0,-2.327175379E0,6.734132767E0
4.668746978E0,1.534753680E0,-2.313736677E0,6.754901886E0
4.671192186E0,1.645927906E0,-2.281972647E0,6.774448872E0
4.673636561E0,1.744885206E0,-2.237991571E0,6.783000469E0
4.676080207E0,1.824295282E0,-2.178128719E0,6.776892185E0
4.678524686E0,1.878049850E0,-2.106048584E0,6.757345200E0
4.680969946E0,1.903705478E0,-2.013199806E0,6.723137856E0
4.683414321E0,1.895153642E0,-1.895917177E0,6.666939735E0
4.685857967E0,1.851172566E0,-1.755422354E0,6.602190018E0
4.688302446E0,1.764432311E0,-1.595380306E0,6.531331539E0
4.690747655E0,1.643484592E0,-1.428008199E0,6.455586433E0
4.693192134E0,1.484664321E0,-1.272853017E0,6.378619671E0
4.695635676E0,1.292858243E0,-1.144575000E0,6.299209595E0
4.698080207E0,1.077839971E0,-1.060278177E0,6.222242832E0
4.700525415E0,8.444963098E-1,-1.024848938E0,6.137946129E0
4.702969790E0,5.977140665E-1,-1.048061132E0,6.053648949E0
4.705413436E0,3.423798978E-1,-1.117697716E0,5.964465141E0
4.707857915E0,7.482878864E-2,-1.225206852E0,5.875281811E0
4.710303176E0,-1.963873953E-1,-1.363258362E0,5.786098003E0
4.712747551E0,-4.724903405E-1,-1.519635320E0,5.690805912E0
4.715191196E0,-7.536327839E-1,-1.679677248E0,5.591848373E0
4.717635676E0,-1.035844207E0,-1.829945683E0,5.479452610E0
4.720080884E0,-1.318055630E0,-1.954558492E0,5.347356796E0
4.722525363E0,-1.596602082E0,-2.038855553E0,5.187314987E0
4.724968905E0,-1.870261550E0,-2.070619583E0,5.000395775E0
4.727413436E0,-2.125595808E0,-2.048629045E0,4.781712532E0
4.729858644E0,-2.361382723E0,-1.972883940E0,4.537373543E0
4.732303019E0,-2.567849159E0,-1.829945683E0,4.262492180E0
4.734746665E0,-2.738886356E0,-1.627144337E0,3.960733652E0
4.737191144E0,-2.865942717E0,-1.366923451E0,3.635762930E0
4.739636405E0,-2.945352793E0,-1.060278177E0,3.277806282E0
4.742080780E0,-2.972229958E0,-7.206470370E-1,2.879534006E0
4.744524426E0,-2.945352793E0,-3.651339412E-1,2.444610834E0
4.746968905E0,-2.861055851E0,-1.068982761E-3,1.960819721E0
4.749414113E0,-2.719339371E0,3.642176688E-1,1.433047652E0
4.751858488E0,-2.518981457E0,7.124006152E-1,8.637380004E-1
4.754302134E0,-2.261203766E0,1.034927964E0,2.663294077E-1
4.756746665E0,-1.953336835E0,1.323247910E0,-3.605526090E-1
4.759191873E0,-1.596602082E0,1.561478257E0,-1.009272337E0
4.761636248E0,-1.205659747E0,1.744732499E0,-1.668987393E0
4.764079894E0,-7.866185308E-1,1.865680218E0,-2.338475943E0
4.766524373E0,-3.527642787E-1,1.924321532E0,-3.001856089E0
4.768969634E0,7.605048269E-2,1.925543308E0,-3.655462742E0
4.771414009E0,4.914266169E-1,1.891335845E0,-4.283413887E0
4.773857655E0,8.787037730E-1,1.832694530E0,-4.879600525E0
4.776302134E0,1.229330063E0,1.771609783E0,-5.429515839E0
4.778747342E0,1.534753680E0,1.720298648E0,-5.929188728E0
4.781191717E0,1.790087938E0,1.679982662E0,-6.373885632E0
4.783635363E0,1.994110823E0,1.644553542E0,-6.759941101E0
4.786079894E0,2.150487661E0,1.612789512E0,-7.091020584E0
4.788525103E0,2.261662006E0,1.587133884E0,-7.372010231E0
4.790969478E0,2.330076933E0,1.561478257E0,-7.600467205E0
4.793413123E0,2.360619307E0,1.539487839E0,-7.776391029E0
4.795857603E0,2.354510784E0,1.519940734E0,-7.903447151E0
4.798302863E0,2.315416574E0,1.507723689E0,-7.984078884E0
4.800747238E0,2.243336678E0,1.499171853E0,-8.021951675E0
4.803190884E0,2.143157721E0,1.488176584E0,-8.023173332E0
4.805635363E0,2.016101360E0,1.479624748E0,-7.988965988E0
4.808080571E0,1.867054701E0,1.457634330E0,-7.932767868E0
4.810525051E0,1.703347564E0,1.420983434E0,-7.850914478E0
4.812968592E0,1.527423620E0,1.362342119E0,-7.748291969E0
4.815413123E0,1.344169378E0,1.281710267E0,-7.626122475E0
4.817858332E0,1.159693480E0,1.177866220E0,-7.489292622E0
4.820302707E0,9.837695360E-1,1.052031636E0,-7.335359097E0
4.822746353E0,8.151756525E-1,9.029849768E-1,-7.163100243E0
4.825190832E0,6.612421870E-1,7.404996157E-1,-6.973737717E0
4.827636092E0,5.256340504E-1,5.694623590E-1,-6.767271519E0
4.830080467E0,4.095730782E-1,3.923166394E-1,-6.549809933E0
4.832524113E0,3.155026138E-1,2.163926363E-1,-6.312800884E0
4.834968592E0,2.446443290E-1,5.390727147E-2,-6.062353611E0
4.837413801E0,1.945548505E-1,-9.758284688E-2,-5.798467636E0
4.839858176E0,1.688992679E-1,-2.283041626E-1,-5.516256332E0
4.842301821E0,1.615691036E-1,-3.370349705E-1,-5.218162537E0
4.844746353E0,1.737860441E-1,-4.274403751E-1,-4.899147511E0
4.847191561E0,2.067717910E-1,-4.946335554E-1,-4.557073116E0
4.849635936E0,2.544178963E-1,-5.337277651E-1,-4.191786766E0
4.852079582E0,3.191677034E-1,-5.544965863E-1,-3.806952715E0
4.854524061E0,3.949127495E-1,-5.544965863E-1,-3.409902096E0
4.856969321E0,4.865398407E-1,-5.361711979E-1,-3.005521297E0
4.859413696E0,5.867187977E-1,-5.056288242E-1,-2.595031977E0
4.861857342E0,6.844543815E-1,-4.640912116E-1,-2.184542418E0
4.864301821E0,7.846332788E-1,-4.127800465E-1,-1.780161619E0
4.866747030E0,8.811471462E-1,-3.407000601E-1,-1.383110881E0
4.869191405E0,9.752176404E-1,-2.625116110E-1,-9.872818589E-1
4.871635051E0,1.060736299E0,-1.745496094E-1,-6.000047326E-1
4.874079530E0,1.136481285E0,-8.536590636E-2,-2.225011140E-1
4.876524790E0,1.203674555E0,7.482878864E-3,1.478250325E-1
4.878969165E0,1.257429123E0,9.544488788E-2,5.057815313E-1
4.881412811E0,1.298966646E0,1.785201132E-1,8.539644480E-1
4.883857290E0,1.329509020E0,2.493783981E-1,1.191152096E0
4.886302498E0,1.346612811E0,3.116848171E-1,1.518566251E0
4.888746978E0,1.356386304E0,3.617742956E-1,1.839872003E0
4.891190571E0,1.350277901E0,3.996468186E-1,2.151404142E0
4.893635051E0,1.333174109E0,4.167505503E-1,2.454384327E0
4.896080259E0,1.300188422E0,4.155288339E-1,2.753699541E0
4.898524634E0,1.256207347E0,3.972034156E-1,3.049349546E0
4.900968280E0,1.197566032E0,3.629959822E-1,3.341334581E0
4.903412759E0,1.120599270E0,3.141281903E-1,3.629654408E0
4.905858019E0,1.030193925E0,2.567085624E-1,3.914309263E0
4.908302394E0,9.214630723E-1,1.907370538E-1,4.189190388E0
4.910746040E0,7.968502641E-1,1.113269106E-1,4.451854706E0
4.913190519E0,6.563553810E-1,3.069507517E-2,4.699858665E0
4.915635780E0,5.024218559E-1,-4.749337584E-2,4.935646057E0
4.918080155E0,3.338280320E-1,-1.207950488E-1,5.151885986E0
4.920523801E0,1.579040140E-1,-1.843231618E-1,5.346135139E0
4.922968280E0,-2.535016090E-2,-2.405211031E-1,5.524655342E0
4.925413488E0,-2.183778882E-1,-2.857238054E-1,5.673702240E0
4.927857863E0,-4.162923992E-1,-3.162661791E-1,5.803201675E0
4.930301509E0,-6.129852533E-1,-3.333698809E-1,5.909489155E0
4.932745988E0,-8.037222624E-1,-3.358132839E-1,5.985234261E0
4.935191248E0,-9.845330715E-1,-3.333698809E-1,6.030436993E0
4.937635623E0,-1.150683522E0,-3.284831047E-1,6.049983978E0
4.940079269E0,-1.298508525E0,-3.199312389E-1,6.043875694E0
4.942523748E0,-1.424343109E0,-3.162661791E-1,6.015776634E0
4.944969009E0,-1.530630469E0,-3.187095523E-1,5.963243484E0
4.947413384E0,-1.614927411E0,-3.235963285E-1,5.896050453E0
4.949856978E0,-1.683342338E0,-3.187095523E-1,5.815418720E0
4.952301509E0,-1.734653473E0,-3.089359999E-1,5.723791599E0
4.954746717E0,-1.774969459E0,-2.857238054E-1,5.622390747E0
4.957191092E0,-1.800624967E0,-2.551814318E-1,5.516103268E0
4.959634738E0,-1.822615504E0,-2.063136548E-1,5.407219887E0
4.962079217E0,-1.840940952E0,-1.476723254E-1,5.296045780E0
4.964524478E0,-1.858044624E0,-8.536590636E-2,5.184871674E0
4.966968853E0,-1.877591729E0,-1.450762246E-2,5.070032120E0
4.969412498E0,-1.899582267E0,6.978929788E-2,4.956414700E0
4.971856978E0,-1.930124640E0,1.601946950E-1,4.839131832E0
4.974302186E0,-1.961888671E0,2.603736520E-1,4.718183994E0
4.976746665E0,-1.998539567E0,3.642176688E-1,4.586241245E0
4.979190207E0,-2.033968687E0,4.741701782E-1,4.442081451E0
4.981634738E0,-2.062067747E0,5.743491650E-1,4.286926270E0
4.984079946E0,-2.084058046E0,6.720846891E-1,4.119554043E0
4.986524321E0,-2.098718405E0,7.539382577E-1,3.936299801E0
4.988967967E0,-2.101161957E0,8.235748410E-1,3.732276678E0
4.991412446E0,-2.086501598E0,8.736643195E-1,3.505041599E0
4.993857707E0,-2.059624195E0,9.103151560E-1,3.254594088E0
4.996302082E0,-2.015643358E0,9.420791864E-1,2.974826097E0
4.998745728E0,-1.963110328E0,9.652913809E-1,2.666959047E0
5.001190207E0,-1.898360610E0,9.836167693E-1,2.337101698E0
5.003635415E0,-1.828724027E0,9.970554113E-1,1.982810259E0
5.006079894E0,-1.752978921E0,1.014159203E0,1.611415029E0
5.008523436E0,-1.677233815E0,1.025154471E0,1.218029380E0
5.010967967E0,-1.595380306E0,1.030041218E0,8.087617755E-1
5.013413176E0,-1.506196618E0,1.017824292E0,3.884988427E-1
5.015857551E0,-1.415791273E0,9.872818589E-1,-4.413371533E-2
5.018301196E0,-1.316833973E0,9.335273504E-1,-4.815003574E-1
5.020745676E0,-1.209324837E0,8.553388715E-1,-9.200887084E-1
5.023190936E0,-1.090820551E0,7.502731681E-1,-1.356233597E0
5.025635311E0,-9.588775039E-1,6.268820167E-1,-1.782605052E0
5.028078957E0,-8.159392476E-1,4.851654470E-1,-2.202867985E0
5.030523436E0,-6.630746722E-1,3.385621011E-1,-2.610913992E0
5.032968644E0,-5.005893111E-1,1.956238300E-1,-3.001856089E0
5.035413123E0,-3.381039500E-1,6.123743951E-2,-3.375694752E0
5.037856665E0,-1.780619770E-1,-5.726693198E-2,-3.726320982E0
5.040301196E0,-3.145863488E-2,-1.562241912E-1,-4.054956913E0
5.042746405E0,1.041494608E-1,-2.368560284E-1,-4.364045620E0
