"Time (s)","Acceleration x (m/s^2)","Acceleration y (m/s^2)","Acceleration z (m/s^2)","Absolute acceleration (m/s^2)"
2.576776600E-2,9.953843117E0,-1.671984792E-1,4.429712892E-1,9.965097676E0
2.821281800E-2,9.953843117E0,-1.743769497E-1,4.549354017E-1,9.965759697E0
3.065703700E-2,9.939486504E0,-1.624128371E-1,4.405784607E-1,9.950571806E0
3.310047400E-2,9.927521706E0,-1.576271951E-1,4.525425732E-1,9.939080859E0
3.554479700E-2,9.934700966E0,-1.528415531E-1,4.573282301E-1,9.946395977E0
3.798984900E-2,9.941879272E0,-1.504487246E-1,4.310071766E-1,9.952354770E0
4.043406800E-2,9.941879272E0,-1.695913076E-1,4.286143482E-1,9.952559216E0
4.287755800E-2,9.937093735E0,-1.671984792E-1,4.621138871E-1,9.949237984E0
4.532188000E-2,9.932307243E0,-1.600200087E-1,4.310071766E-1,9.942942259E0
4.776693300E-2,9.932307243E0,-1.576271951E-1,4.429712892E-1,9.943429844E0
5.021115100E-2,9.934700966E0,-1.480558962E-1,4.286143482E-1,9.945044700E0
5.265464100E-2,9.913165092E0,-1.576271951E-1,4.525425732E-1,9.924740967E0
5.509896400E-2,9.937093735E0,-1.671984792E-1,4.477569461E-1,9.948581482E0
5.754401600E-2,9.941879272E0,-1.743769497E-1,4.525425732E-1,9.953701099E0
5.998823500E-2,9.946664810E0,-1.600200087E-1,4.621138871E-1,9.958679455E0
6.243167200E-2,9.939486504E0,-1.552343667E-1,4.429712892E-1,9.950563463E0
6.487599500E-2,9.925128937E0,-1.624128371E-1,4.381856322E-1,9.936124445E0
6.732104700E-2,9.937093735E0,-1.576271951E-1,4.453641176E-1,9.948317819E0
6.976526600E-2,9.925128937E0,-1.719841212E-1,4.238287210E-1,9.935662722E0
7.220875500E-2,9.937093735E0,-1.695913076E-1,4.429712892E-1,9.948407745E0
7.465307800E-2,9.953843117E0,-1.815554202E-1,4.405784607E-1,9.965242824E0
7.709813000E-2,9.963414192E0,-1.528415531E-1,4.477569461E-1,9.974641306E0
7.954234900E-2,9.958628654E0,-1.453639716E-1,4.501497746E-1,9.969857079E0
8.198583900E-2,9.946664810E0,-1.648056656E-1,4.501497746E-1,9.958209506E0
8.443016200E-2,9.932307243E0,-1.552343667E-1,4.549354017E-1,9.943932376E0
8.687521400E-2,9.920343399E0,-1.552343667E-1,4.549354017E-1,9.931982535E0
8.931943300E-2,9.937093735E0,-1.453639716E-1,4.405784607E-1,9.947917971E0
9.176287000E-2,9.927521706E0,-1.528415531E-1,4.597210586E-1,9.939335552E0
9.420719300E-2,9.944272041E0,-1.695913076E-1,4.334000051E-1,9.955156614E0
9.665224500E-2,9.927521706E0,-1.648056656E-1,4.286143482E-1,9.938136565E0
9.909646400E-2,9.949057579E0,-1.695913076E-1,4.357928336E-1,9.960041331E0
1.015399530E-1,9.929914474E0,-1.624128371E-1,4.405784607E-1,9.941010451E0
1.039842760E-1,9.946664810E0,-1.695913076E-1,4.549354017E-1,9.958507332E0
1.064293280E-1,9.939486504E0,-1.648056656E-1,4.573282301E-1,9.951366839E0
1.088735470E-1,9.937093735E0,-1.576271951E-1,4.501497746E-1,9.948533211E0
1.113169850E-1,9.932307243E0,-1.453639716E-1,4.621138871E-1,9.944114194E0
1.137613080E-1,9.963414192E0,-1.480558962E-1,4.573282301E-1,9.975003360E0
1.162064120E-1,9.934700966E0,-1.671984792E-1,4.453641176E-1,9.946084044E0
1.186505780E-1,9.953843117E0,-1.576271951E-1,4.549354017E-1,9.965480688E0
1.210940680E-1,9.922736168E0,-1.552343667E-1,4.357928336E-1,9.933514291E0
1.235383910E-1,9.951450348E0,-1.671984792E-1,4.453641176E-1,9.962814289E0
1.259834430E-1,9.956235886E0,-1.648056656E-1,4.405784607E-1,9.967341837E0
1.284276620E-1,9.937093735E0,-1.600200087E-1,4.238287210E-1,9.947415196E0
1.308711510E-1,9.939486504E0,-1.624128371E-1,4.286143482E-1,9.950049253E0
1.333154740E-1,9.937093735E0,-1.528415531E-1,4.334000051E-1,9.947714712E0
1.357605260E-1,9.939486504E0,-1.648056656E-1,4.405784607E-1,9.950611149E0
1.382047450E-1,9.956235886E0,-1.695913076E-1,4.357928336E-1,9.967211727E0
1.406481830E-1,9.944272041E0,-1.671984792E-1,4.310071766E-1,9.955012253E0
1.430925050E-1,9.953843117E0,-1.552343667E-1,4.429712892E-1,9.964904117E0
1.455375580E-1,9.958628654E0,-1.576271951E-1,4.429712892E-1,9.969721890E0
1.479817760E-1,9.944272041E0,-1.310070455E-1,4.405784607E-1,9.954889184E0
1.504252660E-1,9.941879272E0,-1.453639716E-1,4.477569461E-1,9.953018659E0
1.528695890E-1,9.958628654E0,-1.480558962E-1,4.405784607E-1,9.969469124E0
1.553146410E-1,9.944272041E0,-1.576271951E-1,4.549354017E-1,9.955920800E0
1.577588600E-1,9.925128937E0,-1.624128371E-1,4.645066857E-1,9.937320001E0
1.602023490E-1,9.922736168E0,-1.333998591E-1,4.549354017E-1,9.934055305E0
1.626465680E-1,9.929914474E0,-1.333998591E-1,4.477569461E-1,9.940899520E0
1.650917240E-1,9.944272041E0,-1.528415531E-1,4.549354017E-1,9.955846182E0
1.675359430E-1,9.939486504E0,-1.600200087E-1,4.429712892E-1,9.950639272E0
1.699793800E-1,9.939486504E0,-1.671984792E-1,4.262215197E-1,9.950025732E0
1.724237030E-1,9.934700966E0,-1.504487246E-1,4.310071766E-1,9.945184025E0
1.748687550E-1,9.937093735E0,-1.719841212E-1,4.453641176E-1,9.948555655E0
1.773129740E-1,9.941879272E0,-1.743769497E-1,4.405784607E-1,9.953164329E0
1.797564640E-1,9.932307243E0,-1.600200087E-1,4.477569461E-1,9.943682410E0
1.822007870E-1,9.937093735E0,-1.671984792E-1,4.405784607E-1,9.948260984E0
1.846458390E-1,9.946664810E0,-1.528415531E-1,4.597210586E-1,9.958455946E0
1.870900580E-1,9.963414192E0,-1.405783296E-1,4.334000051E-1,9.973826758E0
1.895335470E-1,9.961021423E0,-1.552343667E-1,4.525425732E-1,9.972504213E0
1.919777660E-1,9.929914474E0,-1.695913076E-1,4.381856322E-1,9.941024561E0
1.944229220E-1,9.934700966E0,-1.624128371E-1,4.549354017E-1,9.946437927E0
1.968671410E-1,9.951450348E0,-1.552343667E-1,4.381856322E-1,9.962302364E0
1.993105780E-1,9.937093735E0,-1.624128371E-1,4.453641176E-1,9.948394796E0
2.017549010E-1,9.937093735E0,-1.453639716E-1,4.525425732E-1,9.948455024E0
2.041999530E-1,9.913165092E0,-1.453639716E-1,4.405784607E-1,9.924015428E0
2.066441720E-1,9.949057579E0,-1.504487246E-1,4.334000051E-1,9.959629365E0
2.090876620E-1,9.949057579E0,-1.429711580E-1,4.357928336E-1,9.959623630E0
2.115319850E-1,9.934700966E0,-1.671984792E-1,4.357928336E-1,9.945660059E0
2.139770370E-1,9.920343399E0,-1.528415531E-1,4.405784607E-1,9.931298157E0
2.164212550E-1,9.917950630E0,-1.504487246E-1,4.405784607E-1,9.928871482E0
2.188646930E-1,9.937093735E0,-1.695913076E-1,4.597210586E-1,9.949167631E0
2.213090160E-1,9.939486504E0,-1.552343667E-1,4.549354017E-1,9.951103250E0
2.237541200E-1,9.953843117E0,-1.743769497E-1,4.262215197E-1,9.964490198E0
2.261982870E-1,9.946664810E0,-1.624128371E-1,4.310071766E-1,9.957323233E0
2.286417760E-1,9.941879272E0,-1.695913076E-1,4.453641176E-1,9.953294624E0
2.310860990E-1,9.956235886E0,-1.743769497E-1,4.405784607E-1,9.967504688E0
2.335311510E-1,9.934700966E0,-1.600200087E-1,4.405784607E-1,9.945752815E0
2.359753700E-1,9.944272041E0,-1.600200087E-1,4.334000051E-1,9.954998162E0
2.384188600E-1,9.946664810E0,-1.528415531E-1,4.381856322E-1,9.957485026E0
2.408631830E-1,9.937093735E0,-1.695913076E-1,4.453641176E-1,9.948514578E0
2.433082350E-1,9.951450348E0,-1.576271951E-1,4.501497746E-1,9.962873339E0
2.457524530E-1,9.941879272E0,-1.576271951E-1,4.597210586E-1,9.953750713E0
2.481958910E-1,9.929914474E0,-1.552343667E-1,4.549354017E-1,9.941542405E0
2.506402140E-1,9.932307243E0,-1.648056656E-1,4.501497746E-1,9.943868609E0
2.530852660E-1,9.946664810E0,-1.671984792E-1,4.597210586E-1,9.958686642E0
2.555294850E-1,9.934700966E0,-1.743769497E-1,4.621138871E-1,9.946971391E0
2.579729740E-1,9.941879272E0,-1.552343667E-1,4.381856322E-1,9.952741724E0
2.604172970E-1,9.956235886E0,-1.695913076E-1,4.429712892E-1,9.967528168E0
2.628623490E-1,9.932307243E0,-1.552343667E-1,4.429712892E-1,9.943392200E0
2.653065680E-1,9.922736168E0,-1.504487246E-1,4.381856322E-1,9.933545919E0
2.677500580E-1,9.941879272E0,-1.671984792E-1,4.310071766E-1,9.952622066E0
2.701943800E-1,9.932307243E0,-1.453639716E-1,4.286143482E-1,9.942613747E0
2.726394330E-1,9.944272041E0,-1.600200087E-1,4.477569461E-1,9.955633537E0
2.750836510E-1,9.941879272E0,-1.528415531E-1,4.453641176E-1,9.953023320E0
2.775270890E-1,9.958628654E0,-1.381855011E-1,4.501497746E-1,9.969754998E0
2.799714120E-1,9.937093735E0,-1.624128371E-1,4.381856322E-1,9.948076019E0
2.824164640E-1,9.941879272E0,-1.504487246E-1,4.357928336E-1,9.952563171E0
2.848606830E-1,9.944272041E0,-1.576271951E-1,4.477569461E-1,9.955595364E0
2.873041720E-1,9.934700966E0,-1.600200087E-1,4.381856322E-1,9.945647105E0
2.897484950E-1,9.922736168E0,-1.552343667E-1,4.334000051E-1,9.933409602E0
2.921935470E-1,9.925128937E0,-1.600200087E-1,4.429712892E-1,9.936297820E0
2.946377660E-1,9.946664810E0,-1.671984792E-1,4.429712892E-1,9.957927482E0
2.970812550E-1,9.951450348E0,-1.671984792E-1,4.477569461E-1,9.962921541E0
2.995254740E-1,9.934700966E0,-1.695913076E-1,4.453641176E-1,9.946124556E0
3.019706300E-1,9.932307243E0,-1.671984792E-1,4.645066857E-1,9.944568818E0
3.044148490E-1,9.946664810E0,-1.480558962E-1,4.405784607E-1,9.957518304E0
3.068582870E-1,9.932307243E0,-1.648056656E-1,4.357928336E-1,9.943229027E0
3.093026100E-1,9.941879272E0,-1.381855011E-1,4.357928336E-1,9.952385347E0
3.117476620E-1,9.941879272E0,-1.453639716E-1,4.357928336E-1,9.952487606E0
3.141918800E-1,9.944272041E0,-1.648056656E-1,4.381856322E-1,9.955285731E0
3.166353700E-1,9.932307243E0,-1.480558962E-1,4.453641176E-1,9.943389609E0
3.190796930E-1,9.925128937E0,-1.552343667E-1,4.166502357E-1,9.935083268E0
3.215247450E-1,9.937093735E0,-1.504487246E-1,4.525425732E-1,9.948530620E0
3.239689640E-1,9.937093735E0,-1.695913076E-1,4.334000051E-1,9.947986161E0
3.264124010E-1,9.932307243E0,-1.453639716E-1,4.501497746E-1,9.943565391E0
3.288567240E-1,9.951450348E0,-1.453639716E-1,4.310071766E-1,9.961840287E0
3.313017760E-1,9.927521706E0,-1.695913076E-1,4.357928336E-1,9.938529258E0
3.337460990E-1,9.934700966E0,-1.453639716E-1,4.310071766E-1,9.945108403E0
3.361894850E-1,9.925128937E0,-1.429711580E-1,4.549354017E-1,9.936578455E0
3.386338080E-1,9.941879272E0,-1.695913076E-1,4.381856322E-1,9.952976004E0
3.410788600E-1,9.934700966E0,-1.429711580E-1,4.381856322E-1,9.945387407E0
3.435230780E-1,9.939486504E0,-1.743769497E-1,4.405784607E-1,9.950774274E0
3.459665680E-1,9.929914474E0,-1.624128371E-1,4.381856322E-1,9.940904690E0
3.484108910E-1,9.939486504E0,-1.648056656E-1,4.334000051E-1,9.950295896E0
3.508559430E-1,9.929914474E0,-1.576271951E-1,4.262215197E-1,9.940307469E0
3.533001620E-1,9.941879272E0,-1.624128371E-1,4.310071766E-1,9.952542820E0
3.557435990E-1,9.937093735E0,-1.453639716E-1,4.525425732E-1,9.948455024E0
3.581879220E-1,9.951450348E0,-1.743769497E-1,4.525425732E-1,9.963260818E0
3.606330260E-1,9.963414192E0,-1.624128371E-1,4.381856322E-1,9.974367496E0
3.630771930E-1,9.958628654E0,-1.480558962E-1,4.262215197E-1,9.968844969E0
3.655206830E-1,9.941879272E0,-1.600200087E-1,4.477569461E-1,9.953243499E0
3.679650050E-1,9.941879272E0,-1.504487246E-1,4.453641176E-1,9.952986862E0
3.704100580E-1,9.937093735E0,-1.767697781E-1,4.357928336E-1,9.948215661E0
3.728542760E-1,9.939486504E0,-1.695913076E-1,4.405784607E-1,9.950691561E0
3.752977660E-1,9.953843117E0,-1.648056656E-1,4.549354017E-1,9.965596817E0
3.777420890E-1,9.956235886E0,-1.648056656E-1,4.501497746E-1,9.967769497E0
3.801871410E-1,9.949057579E0,-1.600200087E-1,4.381856322E-1,9.959987940E0
3.826313600E-1,9.932307243E0,-1.576271951E-1,4.357928336E-1,9.943112637E0
3.850747970E-1,9.925128937E0,-1.528415531E-1,4.477569461E-1,9.936399309E0
3.875191200E-1,9.934700966E0,-1.648056656E-1,4.621138871E-1,9.946808203E0
3.899641720E-1,9.941879272E0,-1.576271951E-1,4.310071766E-1,9.952465875E0
3.924083910E-1,9.913165092E0,-1.552343667E-1,4.597210586E-1,9.925033164E0
3.948518800E-1,9.920343399E0,-1.671984792E-1,4.477569461E-1,9.931850521E0
3.972962030E-1,9.939486504E0,-1.671984792E-1,4.310071766E-1,9.950231880E0
3.997412550E-1,9.915557861E0,-1.480558962E-1,4.357928336E-1,9.926234112E0
4.021854740E-1,9.937093735E0,-1.552343667E-1,4.334000051E-1,9.947751764E0
4.046289640E-1,9.941879272E0,-1.624128371E-1,4.525425732E-1,9.953498690E0
4.070731830E-1,9.927521706E0,-1.671984792E-1,4.525425732E-1,9.939237261E0
4.095183390E-1,9.927521706E0,-1.504487246E-1,4.405784607E-1,9.938432040E0
4.119625580E-1,9.927521706E0,-1.405783296E-1,4.357928336E-1,9.938076518E0
4.144059950E-1,9.929914474E0,-1.624128371E-1,4.429712892E-1,9.941116787E0
4.168503180E-1,9.944272041E0,-1.576271951E-1,4.501497746E-1,9.955703269E0
4.192953700E-1,9.932307243E0,-1.791625917E-1,4.525425732E-1,9.944225520E0
4.217395890E-1,9.920343399E0,-1.695913076E-1,4.525425732E-1,9.932107991E0
4.241830780E-1,9.932307243E0,-1.600200087E-1,4.286143482E-1,9.942838822E0
4.266274010E-1,9.941879272E0,-1.552343667E-1,4.573282301E-1,9.953602880E0
4.290724530E-1,9.946664810E0,-1.600200087E-1,4.764707983E-1,9.959355987E0
4.315166720E-1,9.958628654E0,-1.648056656E-1,4.549354017E-1,9.970376713E0
4.339601620E-1,9.939486504E0,-1.600200087E-1,4.501497746E-1,9.950961420E0
4.364043800E-1,9.949057579E0,-1.767697781E-1,4.429712892E-1,9.960482811E0
4.388495370E-1,9.913165092E0,-1.791625917E-1,4.501497746E-1,9.924997542E0
4.412937550E-1,9.922736168E0,-1.552343667E-1,4.334000051E-1,9.933409602E0
4.437371930E-1,9.922736168E0,-1.576271951E-1,4.094717801E-1,9.932432055E0
4.461815160E-1,9.937093735E0,-1.238285750E-1,4.453641176E-1,9.947839695E0
4.486265680E-1,9.941879272E0,-1.453639716E-1,4.381856322E-1,9.952592667E0
4.510707870E-1,9.932307243E0,-1.453639716E-1,4.477569461E-1,9.943457354E0
4.535142760E-1,9.939486504E0,-1.719841212E-1,4.357928336E-1,9.950521890E0
4.559585990E-1,9.944272041E0,-1.480558962E-1,4.453641176E-1,9.955341088E0
4.584036510E-1,9.968199730E0,-1.624128371E-1,4.573282301E-1,9.980006658E0
4.608478700E-1,9.932307243E0,-1.624128371E-1,4.549354017E-1,9.944047030E0
4.632913600E-1,9.939486504E0,-1.480558962E-1,4.334000051E-1,9.950032566E0
4.657355780E-1,9.922736168E0,-1.552343667E-1,4.405784607E-1,9.933725391E0
4.681807350E-1,9.951450348E0,-1.453639716E-1,4.334000051E-1,9.961944101E0
4.706249010E-1,9.941879272E0,-1.262213886E-1,4.334000051E-1,9.952121928E0
4.730683910E-1,9.944272041E0,-1.600200087E-1,4.357928336E-1,9.955102623E0
4.755127140E-1,9.927521706E0,-1.695913076E-1,4.286143482E-1,9.938217078E0
4.779577660E-1,9.951450348E0,-1.600200087E-1,4.453641176E-1,9.962696403E0
4.804019850E-1,9.961021423E0,-1.767697781E-1,4.429712892E-1,9.972432949E0
4.828454740E-1,9.941879272E0,-1.453639716E-1,4.549354017E-1,9.953344180E0
4.852897970E-1,9.934700966E0,-1.504487246E-1,4.334000051E-1,9.945288013E0
4.877348490E-1,9.937093735E0,-1.671984792E-1,4.501497746E-1,9.948689464E0
4.901790680E-1,9.941879272E0,-1.743769497E-1,4.310071766E-1,9.952745248E0
4.926225050E-1,9.929914474E0,-1.576271951E-1,4.525425732E-1,9.941470846E0
4.950668280E-1,9.937093735E0,-1.695913076E-1,4.262215197E-1,9.947676004E0
4.975119330E-1,9.925128937E0,-1.480558962E-1,4.286143482E-1,9.935482636E0
4.999560990E-1,9.946664810E0,-1.791625917E-1,4.214358926E-1,9.957200826E0
5.023995890E-1,9.946664810E0,-1.600200087E-1,4.477569461E-1,9.958023576E0
5.048439120E-1,9.932307243E0,-1.528415531E-1,4.405784607E-1,9.943248820E0
5.072889640E-1,9.932307243E0,-1.480558962E-1,2.994019389E-1,9.937921777E0
5.097331830E-1,9.946664810E0,-1.791625917E-1,2.898306549E-1,9.952499279E0
5.121766720E-1,9.977771759E0,-1.624128371E-1,5.937191248E-1,9.996739949E0
5.146209950E-1,9.949057579E0,-1.552343667E-1,5.721837282E-1,9.966706509E0
5.170660470E-1,9.970592499E0,-1.600200087E-1,5.099703074E-1,9.984908157E0
5.195102660E-1,9.927521706E0,-1.624128371E-1,5.913262963E-1,9.946443180E0
5.219537030E-1,9.939486504E0,-1.453639716E-1,5.219344497E-1,9.954242222E0
5.243980260E-1,9.946664810E0,-1.528415531E-1,3.568296731E-1,9.954236726E0
5.268430780E-1,9.939486504E0,-1.695913076E-1,3.927220106E-1,9.948687539E0
5.292872970E-1,9.915557861E0,-1.648056656E-1,5.673980713E-1,9.933145986E0
5.317307870E-1,9.929914474E0,-1.719841212E-1,5.841478109E-1,9.948568172E0
5.341751100E-1,9.956235886E0,-2.054836452E-1,5.123631358E-1,9.971528094E0
5.366201620E-1,9.946664810E0,-1.695913076E-1,5.650052428E-1,9.964142361E0
5.390643800E-1,9.965806961E0,-1.695913076E-1,4.214358926E-1,9.976155462E0
5.415078700E-1,9.996913910E0,-1.552343667E-1,2.539383173E-1,1.000134341E1
5.439521930E-1,1.003041363E1,-1.453639716E-1,2.874378264E-1,1.003558412E1
5.463972450E-1,9.946664810E0,-1.381855011E-1,3.975076675E-1,9.955563692E0
5.488414640E-1,9.949057579E0,-1.648056656E-1,5.530411601E-1,9.965779555E0
5.512849010E-1,9.905986786E0,-1.719841212E-1,2.898306549E-1,9.911718042E0
5.537292240E-1,9.970592499E0,-1.839482337E-1,2.371885478E-1,9.975109530E0
5.561742760E-1,9.877272606E0,-1.671984792E-1,5.434698462E-1,9.893625672E0
5.586184950E-1,9.903594017E0,-1.262213886E-1,7.639086246E-1,9.933814105E0
5.610619850E-1,1.007617569E1,-2.820539773E-1,6.825526357E-1,1.010320489E1
5.635063080E-1,9.932307243E0,-1.624128371E-1,3.257229924E-1,9.938973819E0
5.659513600E-1,9.812666893E0,-8.793623000E-2,2.826521695E-1,9.817130771E0
5.683955780E-1,9.982557297E0,-1.648056656E-1,3.472583890E-1,9.989954929E0
5.708390680E-1,1.000409222E1,-2.174477577E-1,2.970091105E-1,1.001086205E1
5.732833910E-1,9.862915993E0,-9.272187948E-2,6.514459848E-1,9.884841481E0
5.757284430E-1,9.972985268E0,-1.576271951E-1,7.328019142E-1,1.000111394E1
5.781726620E-1,9.951450348E0,-1.863410622E-1,2.036890239E-1,9.955278813E0
5.806160990E-1,1.002802086E1,-2.294118702E-1,3.592225015E-1,1.003707492E1
5.830604220E-1,9.834201813E0,-8.075776696E-2,8.620143533E-1,9.872239658E0
5.855054740E-1,9.951450348E0,-1.166501045E-1,7.351947427E-1,9.979252606E0
5.879496930E-1,1.010728264E1,-2.748754919E-1,4.405784607E-1,1.012061403E1
5.903931830E-1,9.913165092E0,-1.863410622E-1,5.533402413E-2,9.915070701E0
5.928375050E-1,9.819845200E0,-1.046859920E-1,-2.729014158E0,1.019253831E1
5.952825580E-1,1.003041363E1,-1.552343667E-1,-2.401197433E0,1.031499124E1
5.977267760E-1,9.716953278E0,-6.879365444E-2,7.112665176E-1,9.743193194E0
6.001702140E-1,9.958628654E0,-1.671984792E-1,2.049452543E0,1.016870177E1
6.026145370E-1,1.032981491E1,-3.801597059E-1,1.362413406E0,1.042620582E1
6.050596410E-1,9.889236450E0,-1.695913076E-1,4.310071766E-1,9.900077069E0
6.075038600E-1,9.681061745E0,-9.750752151E-2,-8.880363107E-1,9.722194850E0
6.099472970E-1,9.975378036E0,-1.624128371E-1,-5.410770178E-1,9.991361731E0
6.123916200E-1,9.858130455E0,-1.381855011E-1,1.122832060E0,9.922831407E0
6.148366720E-1,9.958628654E0,-9.272187948E-2,1.467697620E0,1.006662895E1
6.172808910E-1,1.005942631E1,-1.815554202E-1,4.501497746E-1,1.007112977E1
6.197243800E-1,1.002562809E1,-1.983051747E-1,1.941177398E-1,1.002946784E1
6.221687030E-1,9.920343399E0,-1.429711580E-1,5.721837282E-1,9.937859333E0
6.246137550E-1,9.815059662E0,-1.310070455E-1,1.558325738E-1,9.817170815E0
6.270579740E-1,9.927521706E0,-1.552343667E-1,1.773679852E-1,9.930319447E0
6.295014640E-1,9.946664810E0,-1.480558962E-1,9.170492887E-1,9.989946986E0
6.319456830E-1,9.944272041E0,-8.315058798E-2,9.337990284E-1,9.988365286E0
6.343908390E-1,9.953843117E0,-1.046859920E-1,3.065803945E-1,9.959113589E0
6.368350050E-1,9.879665375E0,-9.990034252E-2,6.418746710E-1,9.900998489E0
6.392784950E-1,9.944272041E0,-1.310070455E-1,3.999004960E-1,9.953171840E0
6.417228180E-1,9.968199730E0,-1.504487246E-1,2.871387079E-2,9.969376368E0
6.441678700E-1,9.977771759E0,-1.719841212E-1,4.621138871E-1,9.989947801E0
6.466120890E-1,9.896415710E0,-1.791625917E-1,8.356932998E-1,9.933253568E0
6.490555780E-1,1.000887775E1,-1.624128371E-1,2.730808854E-1,1.001391956E1
6.514999010E-1,9.951450348E0,-1.624128371E-1,1.654038578E-1,9.954149908E0
6.539449530E-1,9.917950630E0,-1.453639716E-1,2.252244353E-1,9.921572528E0
6.563891720E-1,9.956235886E0,-1.576271951E-1,8.404789865E-2,9.957838289E0
6.588326100E-1,9.941879272E0,-1.528415531E-1,4.381856322E-1,9.952704691E0
6.612769330E-1,9.944272041E0,-1.480558962E-1,4.262215197E-1,9.954503090E0
6.637219850E-1,9.970592499E0,-1.648056656E-1,-1.196411345E-2,9.971961634E0
6.661662030E-1,9.932307243E0,-1.576271951E-1,1.869392693E-1,9.935316794E0
6.686096930E-1,9.929914474E0,-1.381855011E-1,4.788636267E-1,9.942414550E0
6.710540160E-1,9.963414192E0,-1.552343667E-1,5.985047817E-1,9.982581232E0
6.734990680E-1,9.941879272E0,-1.719841212E-1,5.482555032E-1,9.958470068E0
6.759432870E-1,9.949057579E0,-1.695913076E-1,3.472583890E-1,9.956560466E0
6.783867760E-1,9.949057579E0,-1.671984792E-1,2.587239444E-1,9.953825401E0
6.808310990E-1,9.937093735E0,-1.600200087E-1,2.659024298E-1,9.941938563E0
6.832761510E-1,9.932307243E0,-1.528415531E-1,2.898306549E-1,9.937710477E0
6.857203700E-1,9.927521706E0,-1.600200087E-1,2.802593410E-1,9.932765925E0
6.881638080E-1,9.927521706E0,-1.528415531E-1,2.706880569E-1,9.932387416E0
6.906081300E-1,9.953843117E0,-1.552343667E-1,3.448655605E-1,9.961025186E0
6.930531830E-1,9.961021423E0,-1.552343667E-1,4.286143482E-1,9.971447025E0
6.954974010E-1,9.972985268E0,-1.695913076E-1,4.214358926E-1,9.983326328E0
6.979408910E-1,9.941879272E0,-1.429711580E-1,3.664009571E-1,9.949655968E0
7.003852140E-1,9.937093735E0,-1.552343667E-1,3.185445070E-1,9.943409888E0
7.028302660E-1,9.951450348E0,-1.528415531E-1,2.635096014E-1,9.956111785E0
7.052744850E-1,9.941879272E0,-1.695913076E-1,2.587239444E-1,9.946691046E0
7.077179740E-1,9.946664810E0,-1.695913076E-1,3.305086195E-1,9.953599249E0
7.101621930E-1,9.946664810E0,-1.719841212E-1,3.137588799E-1,9.953098212E0
7.126073490E-1,9.944272041E0,-1.381855011E-1,3.687937856E-1,9.952067651E0
7.150515680E-1,9.970592499E0,-1.480558962E-1,3.879363835E-1,9.979234939E0
7.174950050E-1,9.953843117E0,-1.695913076E-1,3.616153300E-1,9.961853224E0
7.199393280E-1,9.958628654E0,-1.624128371E-1,3.640081584E-1,9.966602458E0
7.223843800E-1,9.944272041E0,-1.552343667E-1,2.946162820E-1,9.949846375E0
7.248285990E-1,9.963414192E0,-1.528415531E-1,2.778665423E-1,9.968459897E0
7.272720890E-1,9.917950630E0,-1.381855011E-1,3.329014480E-1,9.924498139E0
7.297164120E-1,9.953843117E0,-1.648056656E-1,3.520440459E-1,9.961430053E0
7.321614640E-1,9.939486504E0,-1.504487246E-1,3.472583890E-1,9.946688653E0
7.346056830E-1,9.956235886E0,-1.600200087E-1,3.544368446E-1,9.963827823E0
7.370491720E-1,9.941879272E0,-1.576271951E-1,3.592225015E-1,9.949615601E0
7.394934950E-1,9.946664810E0,-1.624128371E-1,3.281157911E-1,9.953400361E0
7.419385470E-1,9.937093735E0,-1.695913076E-1,3.161516786E-1,9.943568021E0
7.443827660E-1,9.953843117E0,-1.480558962E-1,3.161516786E-1,9.959963114E0
7.468262030E-1,9.939486504E0,-1.453639716E-1,2.778665423E-1,9.944432234E0
7.492705260E-1,9.939486504E0,-1.648056656E-1,3.496512175E-1,9.946999992E0
7.517155780E-1,9.944272041E0,-1.576271951E-1,3.496512175E-1,9.951665626E0
7.541597970E-1,9.958628654E0,-1.600200087E-1,3.376871049E-1,9.965637143E0
7.566032870E-1,9.946664810E0,-1.405783296E-1,3.424727321E-1,9.953551662E0
7.590476100E-1,9.932307243E0,-1.671984792E-1,3.520440459E-1,9.939950579E0
7.614926620E-1,9.946664810E0,-1.504487246E-1,3.161516786E-1,9.952825104E0
7.639368800E-1,9.949057579E0,-1.624128371E-1,3.352942765E-1,9.956030680E0
7.663803700E-1,9.961021423E0,-1.624128371E-1,3.257229924E-1,9.967668794E0
7.688245890E-1,9.946664810E0,-1.576271951E-1,3.305086195E-1,9.953402590E0
7.712696930E-1,9.953843117E0,-1.648056656E-1,3.376871049E-1,9.960933003E0
7.737140160E-1,9.929914474E0,-1.405783296E-1,3.281157911E-1,9.936328482E0
7.761574010E-1,9.953843117E0,-1.528415531E-1,3.448655605E-1,9.960988183E0
7.786017240E-1,9.953843117E0,-1.453639716E-1,3.400799036E-1,9.960711712E0
7.810467760E-1,9.944272041E0,-1.648056656E-1,3.496512175E-1,9.951781916E0
7.834909950E-1,9.951450348E0,-1.648056656E-1,3.448655605E-1,9.958787938E0
7.859344850E-1,9.944272041E0,-1.333998591E-1,3.424727321E-1,9.951061729E0
7.883788080E-1,9.944272041E0,-1.624128371E-1,3.376871049E-1,9.951329406E0
7.908238600E-1,9.932307243E0,-1.600200087E-1,3.329014480E-1,9.939172851E0
7.932680780E-1,9.949057579E0,-1.504487246E-1,3.352942765E-1,9.955842696E0
7.957115160E-1,9.953843117E0,-1.576271951E-1,3.400799036E-1,9.960898226E0
7.981558390E-1,9.965806961E0,-1.648056656E-1,3.568296731E-1,9.973554868E0
8.006009430E-1,9.972985268E0,-1.767697781E-1,3.496512175E-1,9.980678267E0
8.030451100E-1,9.965806961E0,-1.576271951E-1,3.424727321E-1,9.972935490E0
8.054885990E-1,9.934700966E0,-1.480558962E-1,3.257229924E-1,9.941141750E0
8.079329220E-1,9.939486504E0,-1.624128371E-1,3.472583890E-1,9.946876810E0
8.103779740E-1,9.932307243E0,-1.624128371E-1,3.616153300E-1,9.940214824E0
8.128221930E-1,9.949057579E0,-1.600200087E-1,3.400799036E-1,9.956154250E0
8.152656830E-1,9.953843117E0,-1.600200087E-1,3.161516786E-1,9.960148145E0
8.177100050E-1,9.946664810E0,-1.504487246E-1,3.233301640E-1,9.953055715E0
8.201550580E-1,9.922736168E0,-1.480558962E-1,3.376871049E-1,9.929584391E0
8.225992760E-1,9.961021423E0,-1.429711580E-1,3.305086195E-1,9.967528505E0
8.250427140E-1,9.951450348E0,-1.453639716E-1,3.329014480E-1,9.958078032E0
8.274870370E-1,9.932307243E0,-1.405783296E-1,3.233301640E-1,9.938562866E0
8.299320890E-1,9.961021423E0,-1.480558962E-1,3.352942765E-1,9.967762567E0
8.323763080E-1,9.951450348E0,-1.648056656E-1,3.424727321E-1,9.958705363E0
8.348197970E-1,9.951450348E0,-1.429711580E-1,3.257229924E-1,9.957805996E0
8.372641200E-1,9.944272041E0,-1.453639716E-1,3.352942765E-1,9.950984844E0
8.397091720E-1,9.934700966E0,-1.600200087E-1,3.281157911E-1,9.941405819E0
8.421533910E-1,9.944272041E0,-1.576271951E-1,3.161516786E-1,9.950544942E0
8.445968800E-1,9.963414192E0,-1.576271951E-1,3.065803945E-1,9.969376121E0
8.470412030E-1,9.939486504E0,-1.405783296E-1,3.329014480E-1,9.946053368E0
8.494862550E-1,9.944272041E0,-1.357926875E-1,3.448655605E-1,9.951176731E0
8.519304740E-1,9.929914474E0,-1.480558962E-1,3.233301640E-1,9.936280210E0
8.543739120E-1,9.941879272E0,-1.600200087E-1,3.352942765E-1,9.948818630E0
8.568182350E-1,9.941879272E0,-1.624128371E-1,3.448655605E-1,9.949184572E0
8.592632870E-1,9.944272041E0,-1.552343667E-1,3.568296731E-1,9.951882815E0
8.617075050E-1,9.949057579E0,-1.552343667E-1,3.616153300E-1,9.956837353E0
8.641509950E-1,9.941879272E0,-1.624128371E-1,3.281157911E-1,9.948618063E0
8.665953180E-1,9.941879272E0,-1.719841212E-1,3.472583890E-1,9.949428647E0
8.690403700E-1,9.951450348E0,-1.504487246E-1,3.352942765E-1,9.958233834E0
8.714845890E-1,9.949057579E0,-1.576271951E-1,3.352942765E-1,9.955953761E0
8.739280780E-1,9.961021423E0,-1.600200087E-1,3.329014480E-1,9.967867253E0
8.763724010E-1,9.961021423E0,-1.504487246E-1,3.424727321E-1,9.968042445E0
8.788174530E-1,9.944272041E0,-1.624128371E-1,3.496512175E-1,9.951742578E0
8.812616720E-1,9.953843117E0,-1.528415531E-1,3.520440459E-1,9.961239298E0
8.837051100E-1,9.944272041E0,-1.528415531E-1,3.305086195E-1,9.950936786E0
8.861494330E-1,9.944272041E0,-1.504487246E-1,3.233301640E-1,9.950664483E0
8.885944850E-1,9.956235886E0,-1.671984792E-1,3.376871049E-1,9.963363936E0
8.910387030E-1,9.939486504E0,-1.528415531E-1,3.472583890E-1,9.946725134E0
8.934821930E-1,9.951450348E0,-1.504487246E-1,3.352942765E-1,9.958233834E0
8.959265160E-1,9.949057579E0,-1.648056656E-1,3.376871049E-1,9.956150873E0
8.983715680E-1,9.949057579E0,-1.600200087E-1,3.424727321E-1,9.956236271E0
9.008157870E-1,9.932307243E0,-1.504487246E-1,3.496512175E-1,9.939598481E0
9.032592760E-1,9.965806961E0,-1.671984792E-1,3.065803945E-1,9.971923348E0
9.057034950E-1,9.953843117E0,-1.743769497E-1,3.281157911E-1,9.960776078E0
9.081486510E-1,9.937093735E0,-1.719841212E-1,3.281157911E-1,9.943996702E0
9.105928700E-1,9.946664810E0,-1.528415531E-1,3.305086195E-1,9.953327953E0
9.130363080E-1,9.925128937E0,-1.504487246E-1,3.329014480E-1,9.931849908E0
9.154806300E-1,9.946664810E0,-1.671984792E-1,3.305086195E-1,9.953558767E0
9.179256830E-1,9.963414192E0,-1.600200087E-1,3.281157911E-1,9.970099736E0
9.203699010E-1,9.946664810E0,-1.671984792E-1,3.257229924E-1,9.953401009E0
9.228133910E-1,9.941879272E0,-1.576271951E-1,3.496512175E-1,9.949274636E0
9.252577140E-1,9.941879272E0,-1.576271951E-1,3.472583890E-1,9.949190831E0
9.277027660E-1,9.929914474E0,-1.959123611E-1,3.472583890E-1,9.937915854E0
9.301469850E-1,9.939486504E0,-1.695913076E-1,3.376871049E-1,9.946667067E0
9.325904220E-1,9.939486504E0,-1.528415531E-1,3.424727321E-1,9.946559207E0
9.350347450E-1,9.941879272E0,-1.528415531E-1,3.305086195E-1,9.948545620E0
9.374798490E-1,9.944272041E0,-1.719841212E-1,3.137588799E-1,9.950706990E0
9.399240680E-1,9.939486504E0,-1.839482337E-1,3.448655605E-1,9.947168500E0
9.423675050E-1,9.937093735E0,-1.791625917E-1,3.424727321E-1,9.944607519E0
9.448118280E-1,9.937093735E0,-1.310070455E-1,3.329014480E-1,9.943531471E0
9.472568800E-1,9.946664810E0,-1.671984792E-1,3.400799036E-1,9.953881179E0
9.497010990E-1,9.941879272E0,-1.600200087E-1,3.185445070E-1,9.948268215E0
9.521445890E-1,9.941879272E0,-1.480558962E-1,3.257229924E-1,9.948315409E0
9.545889120E-1,9.951450348E0,-1.333998591E-1,3.472583890E-1,9.958400873E0
9.570339640E-1,9.961021423E0,-1.504487246E-1,3.209373355E-1,9.967325789E0
9.594781830E-1,9.963414192E0,-1.528415531E-1,3.352942765E-1,9.970225933E0
9.619216200E-1,9.929914474E0,-1.695913076E-1,3.305086195E-1,9.936860602E0
9.643659430E-1,9.953843117E0,-1.576271951E-1,3.305086195E-1,9.960576041E0
9.668109950E-1,9.963414192E0,-1.552343667E-1,3.329014480E-1,9.970182719E0
9.692552140E-1,9.946664810E0,-1.648056656E-1,3.281157911E-1,9.953439693E0
9.716987030E-1,9.939486504E0,-1.624128371E-1,3.352942765E-1,9.946466314E0
9.741430260E-1,9.932307243E0,-1.405783296E-1,3.544368446E-1,9.939623480E0
9.765880780E-1,9.937093735E0,-1.576271951E-1,3.496512175E-1,9.944492657E0
9.790322970E-1,9.927521706E0,-1.600200087E-1,3.305086195E-1,9.934310724E0
9.814757870E-1,9.958628654E0,-1.743769497E-1,3.305086195E-1,9.965637358E0
9.839201100E-1,9.951450348E0,-1.528415531E-1,3.616153300E-1,9.959191243E0
9.863651620E-1,9.946664810E0,-1.648056656E-1,3.376871049E-1,9.953759809E0
9.888093800E-1,9.956235886E0,-1.624128371E-1,3.496512175E-1,9.963697452E0
9.912528180E-1,9.944272041E0,-1.528415531E-1,3.352942765E-1,9.951096885E0
9.936971410E-1,9.934700966E0,-1.695913076E-1,3.281157911E-1,9.941564488E0
9.961421930E-1,9.949057579E0,-1.576271951E-1,3.448655605E-1,9.956280696E0
9.985864120E-1,9.937093735E0,-1.600200087E-1,3.329014480E-1,9.943956037E0
1.001029901E0,9.939486504E0,-1.405783296E-1,3.089732230E-1,9.945281227E0
1.003474224E0,9.941879272E0,-1.695913076E-1,3.161516786E-1,9.948350444E0
1.005919276E0,9.939486504E0,-1.453639716E-1,3.329014480E-1,9.946122160E0
1.008363495E0,9.941879272E0,-1.600200087E-1,3.448655605E-1,9.949145799E0
1.010806985E0,9.958628654E0,-1.528415531E-1,3.329014480E-1,9.965363445E0
1.013251308E0,9.939486504E0,-1.576271951E-1,3.496512175E-1,9.946883646E0
1.015696360E0,9.944272041E0,-1.429711580E-1,3.448655605E-1,9.951277277E0
1.018140578E0,9.941879272E0,-1.719841212E-1,3.472583890E-1,9.949428647E0
1.020584016E0,9.956235886E0,-1.552343667E-1,3.424727321E-1,9.963333694E0
1.023028339E0,9.956235886E0,-1.528415531E-1,3.472583890E-1,9.963462347E0
1.025473391E0,9.946664810E0,-1.671984792E-1,3.209373355E-1,9.953245549E0
1.027917610E0,9.929914474E0,-1.504487246E-1,3.209373355E-1,9.936238577E0
1.030361099E0,9.953843117E0,-1.648056656E-1,3.329014480E-1,9.960771912E0
1.032805422E0,9.958628654E0,-1.648056656E-1,3.352942765E-1,9.965634342E0
1.035250474E0,9.941879272E0,-1.576271951E-1,3.544368446E-1,9.949443968E0
1.037694693E0,9.958628654E0,-1.648056656E-1,3.233301640E-1,9.965238983E0
1.040138183E0,9.951450348E0,-1.429711580E-1,3.257229924E-1,9.957805996E0
1.042582505E0,9.956235886E0,-1.576271951E-1,3.257229924E-1,9.962809584E0
1.045027558E0,9.951450348E0,-1.480558962E-1,3.472583890E-1,9.958607983E0
1.047471776E0,9.941879272E0,-1.480558962E-1,3.305086195E-1,9.948473248E0
1.049915214E0,9.946664810E0,-1.552343667E-1,3.376871049E-1,9.953605936E0
1.052359537E0,9.944272041E0,-1.504487246E-1,3.448655605E-1,9.951387517E0
1.054804589E0,9.939486504E0,-1.576271951E-1,3.305086195E-1,9.946229147E0
1.057248808E0,9.956235886E0,-1.576271951E-1,3.448655605E-1,9.963453799E0
1.059692297E0,9.932307243E0,-1.743769497E-1,3.209373355E-1,9.939020841E0
1.062136620E0,9.932307243E0,-1.576271951E-1,3.424727321E-1,9.939459798E0
1.064581672E0,9.922736168E0,-1.624128371E-1,3.376871049E-1,9.929808838E0
1.067025891E0,9.941879272E0,-1.453639716E-1,3.400799036E-1,9.948756128E0
1.069469380E0,9.920343399E0,-1.504487246E-1,3.400799036E-1,9.927310931E0
1.071913703E0,9.956235886E0,-1.429711580E-1,3.329014480E-1,9.962825761E0
1.074358755E0,9.929914474E0,-1.552343667E-1,3.329014480E-1,9.936705820E0
1.076802974E0,9.961021423E0,-1.480558962E-1,3.376871049E-1,9.967843344E0
1.079246412E0,9.934700966E0,-1.504487246E-1,3.352942765E-1,9.941495881E0
1.081690735E0,9.949057579E0,-1.576271951E-1,3.448655605E-1,9.956280696E0
1.084135787E0,9.934700966E0,-1.695913076E-1,3.329014480E-1,9.941723586E0
1.086580005E0,9.951450348E0,-1.453639716E-1,3.448655605E-1,9.958485174E0
1.089023495E0,9.944272041E0,-1.552343667E-1,3.305086195E-1,9.950973826E0
1.091467818E0,9.949057579E0,-1.600200087E-1,3.329014480E-1,9.955911635E0
1.093912870E0,9.956235886E0,-1.576271951E-1,3.209373355E-1,9.962654271E0
1.096357089E0,9.939486504E0,-1.381855011E-1,3.448655605E-1,9.946427471E0
1.098800578E0,9.958628654E0,-1.600200087E-1,3.520440459E-1,9.966133959E0
1.101244797E0,9.941879272E0,-1.504487246E-1,3.305086195E-1,9.948509146E0
1.103689953E0,9.944272041E0,-1.600200087E-1,3.352942765E-1,9.951209730E0
1.106134172E0,9.949057579E0,-1.552343667E-1,3.496512175E-1,9.956410015E0
1.108577610E0,9.944272041E0,-1.429711580E-1,3.400799036E-1,9.951112577E0
1.111021933E0,9.958628654E0,-1.695913076E-1,3.448655605E-1,9.966041247E0
1.113466985E0,9.961021423E0,-1.695913076E-1,3.496512175E-1,9.968598948E0
1.115911203E0,9.941879272E0,-1.576271951E-1,3.376871049E-1,9.948861361E0
1.118354693E0,9.946664810E0,-1.552343667E-1,3.185445070E-1,9.952974890E0
1.120799016E0,9.949057579E0,-1.504487246E-1,3.400799036E-1,9.956005016E0
1.123244068E0,9.941879272E0,-1.453639716E-1,3.616153300E-1,9.949515556E0
1.125688287E0,9.939486504E0,-1.480558962E-1,3.352942765E-1,9.946242243E0
1.128131776E0,9.934700966E0,-1.767697781E-1,3.376871049E-1,9.942010029E0
1.130575995E0,9.963414192E0,-1.719841212E-1,3.544368446E-1,9.971199847E0
1.133021151E0,9.949057579E0,-1.576271951E-1,3.233301640E-1,9.955558017E0
1.135465318E0,9.937093735E0,-1.429711580E-1,3.257229924E-1,9.943458559E0
1.137908808E0,9.944272041E0,-1.671984792E-1,3.352942765E-1,9.951327751E0
1.140353130E0,9.956235886E0,-1.648056656E-1,3.520440459E-1,9.963821000E0
1.142798183E0,9.937093735E0,-1.863410622E-1,3.376871049E-1,9.944575781E0
1.145242401E0,9.956235886E0,-1.671984792E-1,3.376871049E-1,9.963363936E0
1.147685891E0,9.951450348E0,-1.648056656E-1,3.257229924E-1,9.958143421E0
1.150130214E0,9.946664810E0,-1.695913076E-1,3.520440459E-1,9.954337601E0
1.152575266E0,9.937093735E0,-1.624128371E-1,3.472583890E-1,9.944485819E0
1.155019485E0,9.934700966E0,-1.528415531E-1,3.352942765E-1,9.941532381E0
1.157462974E0,9.932307243E0,-1.600200087E-1,3.329014480E-1,9.939172851E0
1.159907193E0,9.956235886E0,-1.839482337E-1,3.424727321E-1,9.963822436E0
1.162352349E0,9.963414192E0,-1.600200087E-1,3.041875660E-1,9.969340943E0
1.164796516E0,9.944272041E0,-1.791625917E-1,3.209373355E-1,9.951062578E0
1.167240005E0,9.946664810E0,-1.648056656E-1,3.472583890E-1,9.954089117E0
1.169684328E0,9.929914474E0,-1.528415531E-1,3.376871049E-1,9.936830208E0
1.172129380E0,9.922736168E0,-1.552343667E-1,3.520440459E-1,9.930192635E0
1.174573599E0,9.946664810E0,-1.504487246E-1,3.352942765E-1,9.953451558E0
1.177017089E0,9.939486504E0,-1.453639716E-1,3.281157911E-1,9.945963131E0
1.179461412E0,9.929914474E0,-1.405783296E-1,3.496512175E-1,9.937062932E0
1.181906464E0,9.939486504E0,-1.552343667E-1,3.041875660E-1,9.945351665E0
1.184350683E0,9.913165092E0,-1.552343667E-1,3.424727321E-1,9.920293717E0
1.186794120E0,9.941879272E0,-1.504487246E-1,3.376871049E-1,9.948750216E0
1.189238443E0,9.941879272E0,-1.576271951E-1,3.400799036E-1,9.948942866E0
1.191683547E0,9.939486504E0,-1.528415531E-1,3.376871049E-1,9.946395582E0
1.194127714E0,9.963414192E0,-1.528415531E-1,3.352942765E-1,9.970225933E0
1.196571203E0,9.941879272E0,-1.815554202E-1,3.329014480E-1,9.949107961E0
1.199015526E0,9.963414192E0,-1.453639716E-1,3.520440459E-1,9.970691453E0
1.201460578E0,9.941879272E0,-1.671984792E-1,3.352942765E-1,9.948936679E0
1.203904797E0,9.944272041E0,-1.576271951E-1,3.329014480E-1,9.951091203E0
1.206348287E0,9.949057579E0,-1.671984792E-1,3.329014480E-1,9.956029601E0
1.208792610E0,9.953843117E0,-1.552343667E-1,3.257229924E-1,9.960380814E0
1.211237662E0,9.956235886E0,-1.576271951E-1,3.448655605E-1,9.963453799E0
1.213681880E0,9.944272041E0,-1.600200087E-1,3.305086195E-1,9.951049632E0
1.216125318E0,9.941879272E0,-1.624128371E-1,3.400799036E-1,9.949019838E0
1.218569641E0,9.934700966E0,-1.648056656E-1,3.233301640E-1,9.941327204E0
1.221014693E0,9.958628654E0,-1.552343667E-1,3.352942765E-1,9.965480653E0
1.223458912E0,9.934700966E0,-1.504487246E-1,3.496512175E-1,9.941990448E0
1.225902401E0,9.949057579E0,-1.695913076E-1,3.376871049E-1,9.956231240E0
1.228346724E0,9.941879272E0,-1.552343667E-1,3.448655605E-1,9.949069978E0
1.230791776E0,9.946664810E0,-1.695913076E-1,3.448655605E-1,9.954086312E0
1.233235995E0,9.953843117E0,-1.528415531E-1,3.376871049E-1,9.960742237E0
1.235679485E0,9.949057579E0,-1.671984792E-1,3.400799036E-1,9.956272213E0
1.238123808E0,9.937093735E0,-1.453639716E-1,3.305086195E-1,9.943651167E0
1.240568860E0,9.939486504E0,-1.695913076E-1,3.400799036E-1,9.946748590E0
1.243013078E0,9.949057579E0,-1.624128371E-1,3.209373355E-1,9.955557514E0
1.245456516E0,9.941879272E0,-1.405783296E-1,3.281157911E-1,9.948285566E0
1.247900839E0,9.929914474E0,-1.624128371E-1,3.257229924E-1,9.936582655E0
1.250345891E0,9.941879272E0,-1.624128371E-1,3.424727321E-1,9.949101918E0
1.252790110E0,9.941879272E0,-1.695913076E-1,3.448655605E-1,9.949304344E0
1.255233599E0,9.949057579E0,-1.576271951E-1,3.329014480E-1,9.955873463E0
1.257677922E0,9.937093735E0,-1.504487246E-1,3.089732230E-1,9.943034304E0
1.260122974E0,9.941879272E0,-1.600200087E-1,3.568296731E-1,9.949567693E0
1.262567193E0,9.963414192E0,-1.528415531E-1,3.257229924E-1,9.969908644E0
1.265010683E0,9.932307243E0,-1.528415531E-1,3.376871049E-1,9.939221312E0
1.267455005E0,9.946664810E0,-1.453639716E-1,3.400799036E-1,9.953538359E0
1.269900058E0,9.937093735E0,-1.576271951E-1,3.568296731E-1,9.944747641E0
1.272344276E0,9.941879272E0,-1.743769497E-1,3.424727321E-1,9.949304416E0
1.274787714E0,9.956235886E0,-1.429711580E-1,3.305086195E-1,9.962746093E0
1.277232037E0,9.961021423E0,-1.528415531E-1,3.209373355E-1,9.967362194E0
1.279677089E0,9.963414192E0,-1.600200087E-1,3.400799036E-1,9.970500645E0
1.282121308E0,9.949057579E0,-1.552343667E-1,3.352942765E-1,9.955916164E0
1.284564797E0,9.937093735E0,-1.600200087E-1,3.329014480E-1,9.943956037E0
1.287009120E0,9.956235886E0,-1.624128371E-1,3.352942765E-1,9.963203962E0
1.289454172E0,9.939486504E0,-1.504487246E-1,3.472583890E-1,9.946688653E0
1.291898391E0,9.963414192E0,-1.310070455E-1,3.329014480E-1,9.969834933E0
1.294341880E0,9.944272041E0,-1.429711580E-1,3.257229924E-1,9.950632274E0
1.296786203E0,9.934700966E0,-1.743769497E-1,3.257229924E-1,9.941568592E0
1.299231255E0,9.932307243E0,-1.767697781E-1,3.448655605E-1,9.939864536E0
1.301675474E0,9.941879272E0,-1.528415531E-1,3.496512175E-1,9.949199967E0
1.304118912E0,9.939486504E0,-1.504487246E-1,3.209373355E-1,9.945804520E0
1.306563235E0,9.961021423E0,-1.504487246E-1,3.257229924E-1,9.967481030E0
1.309008287E0,9.944272041E0,-1.648056656E-1,3.496512175E-1,9.951781916E0
1.311452505E0,9.968199730E0,-1.429711580E-1,3.233301640E-1,9.974466853E0
1.313895995E0,9.941879272E0,-1.648056656E-1,3.065803945E-1,9.947970442E0
1.316340318E0,9.946664810E0,-1.600200087E-1,3.424727321E-1,9.953845228E0
1.318785370E0,9.934700966E0,-1.480558962E-1,3.520440459E-1,9.942038968E0
1.321229589E0,9.941879272E0,-1.695913076E-1,3.496512175E-1,9.949471376E0
1.323673078E0,9.951450348E0,-1.480558962E-1,3.424727321E-1,9.958442255E0
1.326117297E0,9.953843117E0,-1.552343667E-1,3.448655605E-1,9.961025186E0
1.328562453E0,9.946664810E0,-1.743769497E-1,3.352942765E-1,9.953841993E0
1.331006620E0,9.949057579E0,-1.552343667E-1,3.281157911E-1,9.955676993E0
1.333450110E0,9.939486504E0,-1.600200087E-1,3.376871049E-1,9.946508480E0
1.335894433E0,9.949057579E0,-1.648056656E-1,3.281157911E-1,9.955830834E0
1.338339485E0,9.941879272E0,-1.552343667E-1,3.400799036E-1,9.948905242E0
1.340783703E0,9.946664810E0,-1.528415531E-1,3.424727321E-1,9.953732413E0
1.343227193E0,9.934700966E0,-1.453639716E-1,3.281157911E-1,9.941180711E0
1.345671516E0,9.963414192E0,-1.480558962E-1,3.352942765E-1,9.970153718E0
1.348116568E0,9.944272041E0,-1.648056656E-1,3.281157911E-1,9.951048553E0
1.350560787E0,9.946664810E0,-1.671984792E-1,3.137588799E-1,9.953016669E0
1.353004276E0,9.937093735E0,-1.552343667E-1,3.472583890E-1,9.944371171E0
1.355448495E0,9.941879272E0,-1.624128371E-1,3.209373355E-1,9.948383897E0
1.357893651E0,9.937093735E0,-1.453639716E-1,3.496512175E-1,9.944305836E0
1.360337870E0,9.949057579E0,-1.624128371E-1,3.544368446E-1,9.956693734E0
1.362781308E0,9.939486504E0,-1.624128371E-1,3.376871049E-1,9.946547264E0
1.365225630E0,9.944272041E0,-1.624128371E-1,3.520440459E-1,9.951826936E0
1.367670683E0,9.939486504E0,-1.863410622E-1,3.376871049E-1,9.946966750E0
1.370114901E0,9.987342834E0,-1.576271951E-1,3.281157911E-1,9.993974344E0
1.372558391E0,9.953843117E0,-1.671984792E-1,3.448655605E-1,9.961218820E0
1.375002714E0,9.944272041E0,-1.528415531E-1,3.305086195E-1,9.950936786E0
1.377447766E0,9.941879272E0,-1.480558962E-1,3.352942765E-1,9.948633387E0
1.379891985E0,9.939486504E0,-1.552343667E-1,3.329014480E-1,9.946271313E0
1.382335474E0,9.929914474E0,-1.600200087E-1,3.448655605E-1,9.937189750E0
1.384779693E0,9.944272041E0,-1.381855011E-1,3.400799036E-1,9.951044971E0
1.387224849E0,9.958628654E0,-1.357926875E-1,3.233301640E-1,9.964801389E0
1.389669068E0,9.937093735E0,-1.576271951E-1,3.472583890E-1,9.944408812E0
1.392112505E0,9.965806961E0,-1.600200087E-1,3.329014480E-1,9.972649506E0
1.394556828E0,9.958628654E0,-1.504487246E-1,3.424727321E-1,9.965651362E0
1.397001880E0,9.968199730E0,-1.262213886E-1,3.376871049E-1,9.974716551E0
1.399446099E0,9.944272041E0,-1.600200087E-1,3.161516786E-1,9.950583135E0
1.401889589E0,9.949057579E0,-1.528415531E-1,3.424727321E-1,9.956123484E0
1.404333912E0,9.953843117E0,-1.600200087E-1,3.448655605E-1,9.961100916E0
1.406778964E0,9.944272041E0,-1.791625917E-1,3.113660514E-1,9.950758488E0
1.409223183E0,9.958628654E0,-1.671984792E-1,3.472583890E-1,9.966083905E0
1.411666620E0,9.927521706E0,-1.600200087E-1,3.448655605E-1,9.934798733E0
1.414110943E0,9.953843117E0,-1.600200087E-1,3.448655605E-1,9.961100916E0
1.416556047E0,9.922736168E0,-1.405783296E-1,3.257229924E-1,9.929076029E0
1.419000266E0,9.927521706E0,-1.767697781E-1,3.472583890E-1,9.935165985E0
1.421443703E0,9.956235886E0,-1.528415531E-1,3.089732230E-1,9.962201464E0
1.423888026E0,9.929914474E0,-1.480558962E-1,3.233301640E-1,9.936280210E0
1.426333078E0,9.944272041E0,-1.405783296E-1,3.233301640E-1,9.950520142E0
1.428777297E0,9.951450348E0,-1.576271951E-1,3.281157911E-1,9.958105760E0
1.431220787E0,9.956235886E0,-1.719841212E-1,3.400799036E-1,9.963526780E0
1.433665110E0,9.949057579E0,-1.695913076E-1,3.592225015E-1,9.956984922E0
1.436110162E0,9.941879272E0,-1.552343667E-1,3.448655605E-1,9.949069978E0
1.438554380E0,9.961021423E0,-1.429711580E-1,3.448655605E-1,9.968014888E0
1.440997818E0,9.939486504E0,-1.671984792E-1,3.544368446E-1,9.947209295E0
1.443442141E0,9.927521706E0,-1.719841212E-1,3.472583890E-1,9.935081990E0
1.445887193E0,9.932307243E0,-1.552343667E-1,3.281157911E-1,9.938937813E0
1.448331412E0,9.953843117E0,-1.743769497E-1,3.448655605E-1,9.961341896E0
1.450774901E0,9.958628654E0,-1.671984792E-1,3.352942765E-1,9.965674200E0
1.453219224E0,9.946664810E0,-1.719841212E-1,3.352942765E-1,9.953800361E0
1.455664276E0,9.949057579E0,-1.429711580E-1,3.352942765E-1,9.955732505E0
1.458108495E0,9.927521706E0,-1.480558962E-1,3.448655605E-1,9.934613229E0
1.460551985E0,9.953843117E0,-1.648056656E-1,3.544368446E-1,9.961514904E0
1.462996308E0,9.917950630E0,-1.453639716E-1,3.520440459E-1,9.925261226E0
1.465441360E0,9.951450348E0,-1.600200087E-1,3.592225015E-1,9.959217401E0
1.467885578E0,9.963414192E0,-1.480558962E-1,3.305086195E-1,9.969993925E0
1.470329016E0,9.941879272E0,-1.480558962E-1,3.376871049E-1,9.948714319E0
1.472773339E0,9.941879272E0,-1.624128371E-1,3.257229924E-1,9.948539434E0
1.475218443E0,9.939486504E0,-1.504487246E-1,3.281157911E-1,9.946038746E0
1.477662610E0,9.956235886E0,-1.576271951E-1,3.209373355E-1,9.962654271E0
1.480106099E0,9.958628654E0,-1.552343667E-1,3.352942765E-1,9.965480653E0
1.482550422E0,9.939486504E0,-1.624128371E-1,3.448655605E-1,9.946793561E0
1.484995474E0,9.937093735E0,-1.453639716E-1,3.400799036E-1,9.943973900E0
1.487439693E0,9.937093735E0,-1.719841212E-1,3.329014480E-1,9.944155761E0
1.489883183E0,9.939486504E0,-1.600200087E-1,3.329014480E-1,9.946347155E0
1.492327505E0,9.934700966E0,-1.405783296E-1,3.376871049E-1,9.941432398E0
1.494772558E0,9.958628654E0,-1.624128371E-1,3.161516786E-1,9.964969367E0
1.497216776E0,9.963414192E0,-1.719841212E-1,3.376871049E-1,9.970618511E0
1.499660214E0,9.937093735E0,-1.504487246E-1,3.376871049E-1,9.943967985E0
1.502104537E0,9.937093735E0,-1.887338907E-1,3.209373355E-1,9.944066228E0
1.504549589E0,9.941879272E0,-1.576271951E-1,3.209373355E-1,9.948306920E0
1.506993808E0,9.946664810E0,-1.719841212E-1,3.352942765E-1,9.953800361E0
1.509437297E0,9.944272041E0,-1.671984792E-1,3.352942765E-1,9.951327751E0
1.511881620E0,9.941879272E0,-1.528415531E-1,3.209373355E-1,9.948232244E0
1.514326672E0,9.944272041E0,-1.429711580E-1,3.137588799E-1,9.950247827E0
1.516770891E0,9.956235886E0,-1.405783296E-1,3.281157911E-1,9.962632948E0
1.519214380E0,9.946664810E0,-1.576271951E-1,3.400799036E-1,9.953725007E0
1.521658703E0,9.953843117E0,-1.429711580E-1,3.329014480E-1,9.960434575E0
1.524103755E0,9.939486504E0,-1.719841212E-1,3.376871049E-1,9.946708153E0
1.526547974E0,9.951450348E0,-1.648056656E-1,3.400799036E-1,9.958623362E0
1.528991412E0,9.941879272E0,-1.648056656E-1,3.568296731E-1,9.949645812E0
1.531435735E0,9.961021423E0,-1.552343667E-1,3.352942765E-1,9.967871777E0
1.533880787E0,9.951450348E0,-1.528415531E-1,3.376871049E-1,9.958351126E0
1.536325005E0,9.953843117E0,-1.429711580E-1,3.281157911E-1,9.960275775E0
1.538768495E0,9.944272041E0,-1.743769497E-1,3.376871049E-1,9.951531859E0
1.541212818E0,9.953843117E0,-1.504487246E-1,3.352942765E-1,9.960624974E0
1.543657870E0,9.951450348E0,-1.648056656E-1,3.400799036E-1,9.958623362E0
1.546102089E0,9.958628654E0,-1.504487246E-1,3.400799036E-1,9.965569419E0
1.548545578E0,9.939486504E0,-1.552343667E-1,3.089732230E-1,9.945499189E0
1.550989901E0,9.944272041E0,-1.528415531E-1,3.257229924E-1,9.950778987E0
1.553434953E0,9.937093735E0,-1.528415531E-1,3.305086195E-1,9.943763291E0
1.555879172E0,9.937093735E0,-1.671984792E-1,3.329014480E-1,9.944074145E0
1.558322610E0,9.937093735E0,-1.552343667E-1,3.400799036E-1,9.944123086E0
1.560766933E0,9.944272041E0,-1.576271951E-1,3.544368446E-1,9.951834918E0
1.563211985E0,9.944272041E0,-1.671984792E-1,3.376871049E-1,9.951408661E0
1.565656203E0,9.951450348E0,-1.552343667E-1,3.352942765E-1,9.958307285E0
1.568099693E0,9.941879272E0,-1.381855011E-1,3.329014480E-1,9.948411033E0
1.570544016E0,9.939486504E0,-1.528415531E-1,3.233301640E-1,9.945918504E0
1.572989068E0,9.958628654E0,-1.743769497E-1,3.400799036E-1,9.965959379E0
1.575433287E0,9.929914474E0,-1.624128371E-1,3.376871049E-1,9.936982036E0
1.577876776E0,9.941879272E0,-1.453639716E-1,3.305086195E-1,9.948433550E0
1.580321099E0,9.956235886E0,-1.648056656E-1,3.472583890E-1,9.963653060E0
1.582766151E0,9.939486504E0,-1.453639716E-1,3.616153300E-1,9.947124624E0
1.585210370E0,9.951450348E0,-1.552343667E-1,3.520440459E-1,9.958885316E0
1.587653808E0,9.951450348E0,-1.600200087E-1,3.448655605E-1,9.958709891E0
1.590098130E0,9.963414192E0,-1.576271951E-1,3.424727321E-1,9.970544432E0
1.592543183E0,9.968199730E0,-1.552343667E-1,3.520440459E-1,9.975622215E0
1.594987401E0,9.953843117E0,-1.576271951E-1,3.424727321E-1,9.960980208E0
1.597430891E0,9.937093735E0,-1.528415531E-1,3.376871049E-1,9.944004476E0
1.599875214E0,9.941879272E0,-1.600200087E-1,3.257229924E-1,9.948500658E0
1.602320266E0,9.939486504E0,-1.453639716E-1,3.424727321E-1,9.946447115E0
1.604764485E0,9.949057579E0,-1.624128371E-1,3.352942765E-1,9.956030680E0
1.607207974E0,9.958628654E0,-1.624128371E-1,3.424727321E-1,9.965839161E0
1.609652193E0,9.937093735E0,-1.600200087E-1,3.424727321E-1,9.944281063E0
1.612097349E0,9.920343399E0,-1.695913076E-1,3.376871049E-1,9.927537809E0
1.614541568E0,9.949057579E0,-1.648056656E-1,3.496512175E-1,9.956563845E0
1.616985005E0,9.934700966E0,-1.552343667E-1,3.065803945E-1,9.940642461E0
1.619429328E0,9.956235886E0,-1.600200087E-1,3.352942765E-1,9.963165243E0
1.621874380E0,9.949057579E0,-1.624128371E-1,3.352942765E-1,9.956030680E0
1.624318599E0,9.944272041E0,-1.648056656E-1,3.664009571E-1,9.952384488E0
1.626762089E0,9.949057579E0,-1.480558962E-1,3.376871049E-1,9.955887697E0
1.629206412E0,9.951450348E0,-1.648056656E-1,3.544368446E-1,9.959123978E0
1.631651464E0,9.956235886E0,-1.648056656E-1,3.305086195E-1,9.963083351E0
1.634095683E0,9.951450348E0,-1.671984792E-1,3.376871049E-1,9.958581824E0
1.636539172E0,9.929914474E0,-1.429711580E-1,3.352942765E-1,9.936602260E0
1.638983391E0,9.925128937E0,-1.552343667E-1,3.233301640E-1,9.931607348E0
1.641428547E0,9.944272041E0,-1.528415531E-1,3.424727321E-1,9.951341344E0
1.643872766E0,9.944272041E0,-1.576271951E-1,3.161516786E-1,9.950544942E0
1.646316203E0,9.941879272E0,-1.600200087E-1,3.400799036E-1,9.948981064E0
1.648760526E0,9.939486504E0,-1.600200087E-1,3.233301640E-1,9.946031407E0
1.651205578E0,9.970592499E0,-1.719841212E-1,3.329014480E-1,9.977630815E0
1.653649797E0,9.963414192E0,-1.600200087E-1,3.400799036E-1,9.970500645E0
1.656093287E0,9.941879272E0,-1.576271951E-1,3.640081584E-1,9.949789532E0
1.658537610E0,9.946664810E0,-1.453639716E-1,3.305086195E-1,9.953215936E0
1.660982662E0,9.949057579E0,-1.552343667E-1,3.592225015E-1,9.956750736E0
1.663426880E0,9.951450348E0,-1.381855011E-1,3.376871049E-1,9.958136966E0
1.665870318E0,9.953843117E0,-1.528415531E-1,3.376871049E-1,9.960742237E0
1.668314641E0,9.932307243E0,-1.600200087E-1,3.616153300E-1,9.940176016E0
1.670759745E0,9.944272041E0,-1.552343667E-1,3.305086195E-1,9.950973826E0
1.673203912E0,9.944272041E0,-1.719841212E-1,3.448655605E-1,9.951736392E0
1.675647401E0,9.953843117E0,-1.552343667E-1,3.448655605E-1,9.961025186E0
1.678091724E0,9.946664810E0,-1.624128371E-1,3.305086195E-1,9.953479528E0
1.680536776E0,9.949057579E0,-1.624128371E-1,3.281157911E-1,9.955791511E0
1.682980995E0,9.956235886E0,-1.600200087E-1,3.472583890E-1,9.963575051E0
1.685424485E0,9.937093735E0,-1.600200087E-1,3.424727321E-1,9.944281063E0
1.687868808E0,9.953843117E0,-1.743769497E-1,3.329014480E-1,9.960934870E0
1.690313860E0,9.932307243E0,-1.648056656E-1,3.041875660E-1,9.938330753E0
1.692758078E0,9.939486504E0,-1.528415531E-1,3.233301640E-1,9.945918504E0
1.695201516E0,9.963414192E0,-1.576271951E-1,3.305086195E-1,9.970140653E0
1.697645839E0,9.934700966E0,-1.504487246E-1,3.400799036E-1,9.941658435E0
1.700090891E0,9.929914474E0,-1.528415531E-1,3.568296731E-1,9.937499154E0
1.702535110E0,9.951450348E0,-1.357926875E-1,3.376871049E-1,9.958104050E0
1.704978599E0,9.934700966E0,-1.453639716E-1,3.352942765E-1,9.941420231E0
1.707422922E0,9.949057579E0,-1.695913076E-1,3.496512175E-1,9.956644209E0
1.709867974E0,9.946664810E0,-1.695913076E-1,3.448655605E-1,9.954086312E0
1.712312193E0,9.961021423E0,-1.600200087E-1,3.496512175E-1,9.968440709E0
1.714755683E0,9.941879272E0,-1.453639716E-1,3.448655605E-1,9.948920866E0
1.717200005E0,9.932307243E0,-1.743769497E-1,3.281157911E-1,9.939255227E0
1.719645058E0,9.932307243E0,-1.719841212E-1,3.233301640E-1,9.939056701E0
1.722089276E0,9.941879272E0,-1.600200087E-1,3.496512175E-1,9.949312833E0
1.724532714E0,9.946664810E0,-1.528415531E-1,3.400799036E-1,9.953650372E0
1.726977037E0,9.949057579E0,-1.552343667E-1,3.209373355E-1,9.955442993E0
1.729422141E0,9.941879272E0,-1.671984792E-1,3.352942765E-1,9.948936679E0
1.731866308E0,9.944272041E0,-1.576271951E-1,3.448655605E-1,9.951498632E0
1.734309797E0,9.932307243E0,-1.528415531E-1,3.400799036E-1,9.939302896E0
1.736754120E0,9.958628654E0,-1.381855011E-1,3.329014480E-1,9.965149436E0
1.739199172E0,9.941879272E0,-1.480558962E-1,3.472583890E-1,9.949043794E0
1.741643391E0,9.944272041E0,-1.480558962E-1,3.161516786E-1,9.950397925E0
1.744086880E0,9.956235886E0,-1.671984792E-1,3.400799036E-1,9.963445322E0
1.746531203E0,9.939486504E0,-1.600200087E-1,3.448655605E-1,9.946754778E0
1.748976255E0,9.941879272E0,-1.528415531E-1,3.305086195E-1,9.948545620E0
1.751420474E0,9.946664810E0,-1.429711580E-1,3.376871049E-1,9.953422235E0
1.753863912E0,9.939486504E0,-1.719841212E-1,3.352942765E-1,9.946627204E0
1.756308235E0,9.927521706E0,-1.552343667E-1,3.448655605E-1,9.934722803E0
1.758753287E0,9.944272041E0,-1.695913076E-1,3.400799036E-1,9.951530635E0
1.761197505E0,9.941879272E0,-1.480558962E-1,3.544368446E-1,9.949296935E0
1.763640995E0,9.939486504E0,-1.552343667E-1,3.424727321E-1,9.946596264E0
1.766085318E0,9.956235886E0,-1.695913076E-1,3.376871049E-1,9.963404378E0
1.768530370E0,9.937093735E0,-1.671984792E-1,3.352942765E-1,9.944154538E0
1.770974589E0,9.937093735E0,-1.648056656E-1,3.352942765E-1,9.944114594E0
1.773418078E0,9.944272041E0,-1.624128371E-1,3.352942765E-1,9.951248495E0
1.775862401E0,9.961021423E0,-1.528415531E-1,3.113660514E-1,9.967058601E0
1.778307453E0,9.934700966E0,-1.624128371E-1,3.161516786E-1,9.941056941E0
1.780751672E0,9.937093735E0,-1.480558962E-1,3.329014480E-1,9.943770704E0
1.783195110E0,9.937093735E0,-1.600200087E-1,3.305086195E-1,9.943876218E0
1.785639433E0,9.953843117E0,-1.528415531E-1,3.281157911E-1,9.960422346E0
1.788084485E0,9.941879272E0,-1.648056656E-1,3.424727321E-1,9.949141267E0
1.790528703E0,9.944272041E0,-1.791625917E-1,3.113660514E-1,9.950758488E0
1.792972193E0,9.949057579E0,-1.576271951E-1,3.209373355E-1,9.955480592E0
1.795416516E0,9.937093735E0,-1.528415531E-1,3.329014480E-1,9.943843111E0
1.797861568E0,9.934700966E0,-1.600200087E-1,3.281157911E-1,9.941405819E0
1.800305787E0,9.949057579E0,-1.600200087E-1,3.209373355E-1,9.955518765E0
1.802749276E0,9.939486504E0,-1.743769497E-1,3.257229924E-1,9.946350825E0
1.805193599E0,9.941879272E0,-1.671984792E-1,3.424727321E-1,9.949181191E0
1.807638651E0,9.953843117E0,-1.405783296E-1,3.329014480E-1,9.960400516E0
1.810082870E0,9.944272041E0,-1.671984792E-1,3.209373355E-1,9.950854362E0
1.812526308E0,9.932307243E0,-1.381855011E-1,3.376871049E-1,9.939006741E0
1.814970630E0,9.922736168E0,-1.576271951E-1,3.281157911E-1,9.929410827E0
1.817415683E0,9.961021423E0,-1.504487246E-1,3.233301640E-1,9.967403123E0
1.819859901E0,9.946664810E0,-1.695913076E-1,3.400799036E-1,9.953921659E0
1.822303391E0,9.951450348E0,-1.504487246E-1,3.065803945E-1,9.957308391E0
1.824747714E0,9.941879272E0,-1.624128371E-1,3.305086195E-1,9.948697269E0
1.827192766E0,9.951450348E0,-1.480558962E-1,3.281157911E-1,9.957958854E0
1.829636985E0,9.953843117E0,-1.429711580E-1,3.185445070E-1,9.959965068E0
1.832080474E0,9.939486504E0,-1.453639716E-1,3.257229924E-1,9.945884481E0
1.834524797E0,9.934700966E0,-1.648056656E-1,3.329014480E-1,9.941643102E0
1.836969849E0,9.939486504E0,-1.648056656E-1,3.257229924E-1,9.946187628E0
1.839414068E0,9.963414192E0,-1.504487246E-1,3.113660514E-1,9.969413523E0
1.841857505E0,9.932307243E0,-1.624128371E-1,3.233301640E-1,9.938895688E0
1.844301828E0,9.961021423E0,-1.576271951E-1,3.281157911E-1,9.967670445E0
1.846746880E0,9.977771759E0,-1.719841212E-1,3.400799036E-1,9.985046928E0
1.849191099E0,9.946664810E0,-1.576271951E-1,3.281157911E-1,9.953323422E0
1.851634589E0,9.963414192E0,-1.695913076E-1,3.209373355E-1,9.970024290E0
1.854078912E0,9.946664810E0,-1.624128371E-1,3.305086195E-1,9.953479528E0
1.856523964E0,9.917950630E0,-1.671984792E-1,3.448655605E-1,9.925353006E0
1.858968183E0,9.932307243E0,-1.624128371E-1,3.376871049E-1,9.939373103E0
1.861411672E0,9.937093735E0,-1.528415531E-1,3.257229924E-1,9.943605377E0
1.863855995E0,9.937093735E0,-1.648056656E-1,3.424727321E-1,9.944359224E0
1.866301047E0,9.951450348E0,-1.405783296E-1,3.113660514E-1,9.957312645E0
1.868745266E0,9.939486504E0,-1.453639716E-1,3.233301640E-1,9.945806404E0
1.871188703E0,9.965806961E0,-1.528415531E-1,3.281157911E-1,9.972378297E0
1.873633026E0,9.946664810E0,-1.600200087E-1,3.281157911E-1,9.953361604E0
1.876078078E0,9.944272041E0,-1.453639716E-1,3.329014480E-1,9.950904506E0
1.878522297E0,9.946664810E0,-1.671984792E-1,3.329014480E-1,9.953638508E0
1.880965787E0,9.946664810E0,-1.576271951E-1,3.424727321E-1,9.953807048E0
1.883410110E0,9.958628654E0,-1.671984792E-1,3.209373355E-1,9.965201492E0
1.885855162E0,9.944272041E0,-1.552343667E-1,3.257229924E-1,9.950816027E0
1.888299380E0,9.944272041E0,-1.333998591E-1,3.257229924E-1,9.950499355E0
1.890742870E0,9.939486504E0,-1.767697781E-1,3.424727321E-1,9.946955669E0
1.893187193E0,9.941879272E0,-1.791625917E-1,3.616153300E-1,9.950066751E0
1.895632245E0,9.939486504E0,-1.648056656E-1,3.472583890E-1,9.946916168E0
1.898076464E0,9.922736168E0,-1.480558962E-1,3.281157911E-1,9.929263496E0
1.900519901E0,9.941879272E0,-1.552343667E-1,3.281157911E-1,9.948503463E0
1.902964224E0,9.934700966E0,-1.528415531E-1,3.305086195E-1,9.941372127E0
1.905409276E0,9.946664810E0,-1.480558962E-1,3.305086195E-1,9.953255615E0
1.907853495E0,9.944272041E0,-1.576271951E-1,3.329014480E-1,9.951091203E0
1.910296985E0,9.965806961E0,-1.600200087E-1,3.209373355E-1,9.972257295E0
1.912741308E0,9.937093735E0,-1.480558962E-1,3.424727321E-1,9.944095736E0
1.915186360E0,9.937093735E0,-1.528415531E-1,3.496512175E-1,9.944417952E0
1.917630578E0,9.956235886E0,-1.671984792E-1,3.376871049E-1,9.963363936E0
1.920074068E0,9.946664810E0,-1.480558962E-1,3.329014480E-1,9.953335359E0
1.922518391E0,9.951450348E0,-1.405783296E-1,3.041875660E-1,9.957090758E0
1.924963443E0,9.951450348E0,-1.504487246E-1,3.209373355E-1,9.957760773E0
1.927407662E0,9.937093735E0,-1.671984792E-1,3.209373355E-1,9.943680807E0
1.929851099E0,9.925128937E0,-1.576271951E-1,3.472583890E-1,9.932452826E0
1.932295422E0,9.946664810E0,-1.600200087E-1,3.448655605E-1,9.953927843E0
1.934740474E0,9.939486504E0,-1.480558962E-1,3.448655605E-1,9.946569497E0
1.937184693E0,9.953843117E0,-1.552343667E-1,3.472583890E-1,9.961108316E0
1.939628183E0,9.958628654E0,-1.552343667E-1,3.376871049E-1,9.965561448E0
1.942072505E0,9.951450348E0,-1.576271951E-1,3.496512175E-1,9.958838604E0
1.944517558E0,9.925128937E0,-1.624128371E-1,3.400799036E-1,9.932281545E0
1.946961776E0,9.944272041E0,-1.743769497E-1,3.257229924E-1,9.951133062E0
1.949405266E0,9.958628654E0,-1.671984792E-1,3.281157911E-1,9.965435263E0
1.951849589E0,9.932307243E0,-1.528415531E-1,3.424727321E-1,9.939385056E0
1.954294641E0,9.932307243E0,-1.504487246E-1,3.376871049E-1,9.939184804E0
1.956738860E0,9.949057579E0,-1.576271951E-1,3.281157911E-1,9.955714591E0
1.959182297E0,9.932307243E0,-1.552343667E-1,3.472583890E-1,9.939588184E0
1.961626620E0,9.939486504E0,-1.600200087E-1,3.400799036E-1,9.946590004E0
1.964071672E0,9.934700966E0,-1.552343667E-1,3.281157911E-1,9.941329939E0
1.966515891E0,9.961021423E0,-1.624128371E-1,3.352942765E-1,9.967986155E0
1.968959380E0,9.937093735E0,-1.576271951E-1,3.257229924E-1,9.943680088E0
1.971403703E0,9.949057579E0,-1.576271951E-1,3.257229924E-1,9.955636017E0
1.973848755E0,9.944272041E0,-1.576271951E-1,3.305086195E-1,9.951011442E0
1.976292974E0,9.958628654E0,-1.552343667E-1,3.448655605E-1,9.965807275E0
1.978736464E0,9.941879272E0,-1.381855011E-1,3.305086195E-1,9.948331249E0
1.981180787E0,9.929914474E0,-1.429711580E-1,3.209373355E-1,9.936128169E0
1.983625839E0,9.939486504E0,-1.695913076E-1,3.305086195E-1,9.946425947E0
1.986070058E0,9.946664810E0,-1.743769497E-1,3.185445070E-1,9.953291856E0
1.988513495E0,9.949057579E0,-1.600200087E-1,3.281157911E-1,9.955752763E0
1.990957818E0,9.944272041E0,-1.600200087E-1,3.376871049E-1,9.951290641E0
1.993402922E0,9.949057579E0,-1.576271951E-1,3.281157911E-1,9.955714591E0
1.995847141E0,9.941879272E0,-1.480558962E-1,3.352942765E-1,9.948633387E0
1.998290578E0,9.956235886E0,-1.357926875E-1,3.329014480E-1,9.962725332E0
2.000734901E0,9.956235886E0,-1.719841212E-1,3.400799036E-1,9.963526780E0
2.003179953E0,9.932307243E0,-1.552343667E-1,3.305086195E-1,9.939017096E0
2.005624172E0,9.949057579E0,-1.453639716E-1,3.376871049E-1,9.955848029E0
2.008067662E0,9.922736168E0,-1.453639716E-1,3.352942765E-1,9.929463530E0
2.010511985E0,9.951450348E0,-1.791625917E-1,3.305086195E-1,9.958549051E0
2.012957037E0,9.925128937E0,-1.576271951E-1,3.329014480E-1,9.931961242E0
2.015401255E0,9.937093735E0,-1.576271951E-1,3.305086195E-1,9.943838000E0
2.017844693E0,9.956235886E0,-1.624128371E-1,3.305086195E-1,9.963044057E0
2.020289016E0,9.939486504E0,-1.695913076E-1,3.209373355E-1,9.946112504E0
2.022734120E0,9.932307243E0,-1.743769497E-1,3.400799036E-1,9.939657380E0
2.025178287E0,9.946664810E0,-1.576271951E-1,3.472583890E-1,9.953972853E0
2.027621776E0,9.937093735E0,-1.600200087E-1,3.520440459E-1,9.944615292E0
2.030066099E0,9.949057579E0,-1.600200087E-1,3.305086195E-1,9.955831912E0
2.032511151E0,9.939486504E0,-1.624128371E-1,3.089732230E-1,9.945613824E0
2.034955370E0,9.949057579E0,-1.648056656E-1,3.257229924E-1,9.955752261E0
2.037398860E0,9.953843117E0,-1.576271951E-1,3.472583890E-1,9.961145894E0
2.039843183E0,9.953843117E0,-1.671984792E-1,3.496512175E-1,9.961385652E0
2.042288235E0,9.949057579E0,-1.648056656E-1,3.329014480E-1,9.955989704E0
2.044732453E0,9.972985268E0,-1.695913076E-1,3.352942765E-1,9.980061053E0
2.047175891E0,9.956235886E0,-1.624128371E-1,3.352942765E-1,9.963203962E0
2.049620214E0,9.951450348E0,-1.528415531E-1,3.352942765E-1,9.958270272E0
2.052065266E0,9.929914474E0,-1.695913076E-1,3.472583890E-1,9.937431815E0
2.054509589E0,9.925128937E0,-1.552343667E-1,3.305086195E-1,9.931843639E0
2.056952974E0,9.927521706E0,-1.504487246E-1,3.233301640E-1,9.933924926E0
2.059397297E0,9.953843117E0,-1.576271951E-1,3.352942765E-1,9.960735986E0
2.061842349E0,9.932307243E0,-1.743769497E-1,3.424727321E-1,9.939739537E0
2.064286568E0,9.939486504E0,-1.429711580E-1,3.185445070E-1,9.945617292E0
2.066730058E0,9.937093735E0,-1.576271951E-1,3.137588799E-1,9.943295372E0
2.069174380E0,9.956235886E0,-1.648056656E-1,3.209373355E-1,9.962770433E0
2.071619433E0,9.939486504E0,-1.504487246E-1,3.352942765E-1,9.946278149E0
2.074063651E0,9.953843117E0,-1.600200087E-1,3.329014480E-1,9.960693880E0
2.076507141E0,9.941879272E0,-1.695913076E-1,3.281157911E-1,9.948737842E0
2.078951360E0,9.963414192E0,-1.480558962E-1,3.448655605E-1,9.970480187E0
2.081396516E0,9.953843117E0,-1.429711580E-1,3.329014480E-1,9.960434575E0
2.083840735E0,9.941879272E0,-1.552343667E-1,3.352942765E-1,9.948742806E0
2.086284172E0,9.932307243E0,-1.600200087E-1,3.376871049E-1,9.939334292E0
2.088728495E0,9.946664810E0,-1.552343667E-1,3.376871049E-1,9.953605936E0
2.091173547E0,9.939486504E0,-1.719841212E-1,3.520440459E-1,9.947205914E0
2.093617766E0,9.925128937E0,-1.648056656E-1,3.281157911E-1,9.931918510E0
2.096061255E0,9.965806961E0,-1.552343667E-1,3.352942765E-1,9.972654027E0
2.098505578E0,9.929914474E0,-1.719841212E-1,3.281157911E-1,9.936822429E0
2.100950630E0,9.958628654E0,-1.648056656E-1,3.257229924E-1,9.965316907E0
2.103394849E0,9.951450348E0,-1.576271951E-1,3.305086195E-1,9.958184890E0
2.105838339E0,9.946664810E0,-1.576271951E-1,3.305086195E-1,9.953402590E0
2.108282662E0,9.970592499E0,-1.624128371E-1,3.281157911E-1,9.977311896E0
2.110727714E0,9.932307243E0,-1.648056656E-1,3.281157911E-1,9.939091913E0
2.113171933E0,9.949057579E0,-1.429711580E-1,3.352942765E-1,9.955732505E0
2.115615370E0,9.944272041E0,-1.528415531E-1,3.233301640E-1,9.950700949E0
2.118059693E0,9.939486504E0,-1.671984792E-1,3.352942765E-1,9.946545608E0
2.120504745E0,9.939486504E0,-1.600200087E-1,3.352942765E-1,9.946427530E0
2.122948964E0,9.934700966E0,-1.600200087E-1,3.424727321E-1,9.941890024E0
2.125392453E0,9.949057579E0,-1.600200087E-1,3.305086195E-1,9.955831912E0
2.127836776E0,9.946664810E0,-1.552343667E-1,3.209373355E-1,9.953051760E0
2.130281828E0,9.958628654E0,-1.671984792E-1,3.209373355E-1,9.965201492E0
2.132726047E0,9.953843117E0,-1.624128371E-1,3.233301640E-1,9.960417316E0
2.135169537E0,9.961021423E0,-1.600200087E-1,3.352942765E-1,9.967947454E0
2.137613860E0,9.970592499E0,-1.648056656E-1,3.520440459E-1,9.978166700E0
2.140058912E0,9.965806961E0,-1.552343667E-1,3.352942765E-1,9.972654027E0
2.142503130E0,9.951450348E0,-1.429711580E-1,3.352942765E-1,9.958123670E0
2.144946568E0,9.927521706E0,-1.552343667E-1,3.400799036E-1,9.934557829E0
2.147390891E0,9.934700966E0,-1.480558962E-1,3.161516786E-1,9.940832747E0
2.149835943E0,9.939486504E0,-1.504487246E-1,3.472583890E-1,9.946688653E0
2.152280162E0,9.951450348E0,-1.576271951E-1,3.257229924E-1,9.958027206E0
2.154723651E0,9.944272041E0,-1.453639716E-1,3.233301640E-1,9.950588903E0
2.157167974E0,9.953843117E0,-1.429711580E-1,3.113660514E-1,9.959738067E0
2.159613026E0,9.937093735E0,-1.504487246E-1,3.424727321E-1,9.944131651E0
2.162057245E0,9.939486504E0,-1.528415531E-1,3.233301640E-1,9.945918504E0
2.164500735E0,9.946664810E0,-1.504487246E-1,3.305086195E-1,9.953291496E0
2.166945058E0,9.956235886E0,-1.576271951E-1,3.233301640E-1,9.962731640E0
2.169390110E0,9.929914474E0,-1.600200087E-1,3.329014480E-1,9.936781735E0
2.171834328E0,9.949057579E0,-1.648056656E-1,3.305086195E-1,9.955909982E0
2.174277766E0,9.941879272E0,-1.381855011E-1,3.376871049E-1,9.948572324E0
2.176722089E0,9.951450348E0,-1.381855011E-1,3.305086195E-1,9.957896124E0
2.179167141E0,9.958628654E0,-1.528415531E-1,3.161516786E-1,9.964817966E0
2.181611360E0,9.937093735E0,-1.405783296E-1,3.209373355E-1,9.943268825E0
2.184054849E0,9.949057579E0,-1.624128371E-1,3.233301640E-1,9.955634939E0
2.186499172E0,9.956235886E0,-1.429711580E-1,3.376871049E-1,9.962986818E0
2.188944224E0,9.929914474E0,-1.453639716E-1,3.687937856E-1,9.937823756E0
2.191388443E0,9.944272041E0,-1.381855011E-1,3.400799036E-1,9.951044971E0
2.193831933E0,9.927521706E0,-1.600200087E-1,3.233301640E-1,9.934074492E0
2.196276255E0,9.951450348E0,-1.552343667E-1,3.233301640E-1,9.957911635E0
2.198721308E0,9.941879272E0,-1.528415531E-1,3.281157911E-1,9.948466414E0
2.201165526E0,9.941879272E0,-1.600200087E-1,3.281157911E-1,9.948579288E0
2.203608964E0,9.917950630E0,-1.504487246E-1,3.185445070E-1,9.924205264E0
2.206053287E0,9.932307243E0,-1.528415531E-1,3.424727321E-1,9.939385056E0
2.208498391E0,9.941879272E0,-1.671984792E-1,3.352942765E-1,9.948936679E0
2.210942558E0,9.932307243E0,-1.791625917E-1,3.424727321E-1,9.939824645E0
2.213386047E0,9.934700966E0,-1.453639716E-1,3.400799036E-1,9.941582787E0
2.215830370E0,9.949057579E0,-1.671984792E-1,3.233301640E-1,9.955714160E0
2.218275422E0,9.934700966E0,-1.600200087E-1,3.496512175E-1,9.942139893E0
2.220719641E0,9.937093735E0,-1.429711580E-1,3.329014480E-1,9.943696296E0
2.223163130E0,9.946664810E0,-1.648056656E-1,3.233301640E-1,9.953283084E0
2.225607453E0,9.946664810E0,-1.576271951E-1,3.329014480E-1,9.953482333E0
2.228052505E0,9.951450348E0,-1.767697781E-1,3.209373355E-1,9.958193227E0
2.230496724E0,9.937093735E0,-1.695913076E-1,3.209373355E-1,9.943721329E0
2.232940214E0,9.941879272E0,-1.381855011E-1,3.329014480E-1,9.948411033E0
2.235384433E0,9.934700966E0,-1.624128371E-1,3.376871049E-1,9.941765125E0
2.237829537E0,9.953843117E0,-1.480558962E-1,3.448655605E-1,9.960915901E0
2.240273755E0,9.934700966E0,-1.504487246E-1,3.472583890E-1,9.941906582E0
2.242717245E0,9.946664810E0,-1.600200087E-1,3.305086195E-1,9.953440772E0
2.245161568E0,9.951450348E0,-1.671984792E-1,3.544368446E-1,9.959163862E0
2.247606620E0,9.925128937E0,-1.600200087E-1,3.281157911E-1,9.931840252E0
2.250050839E0,9.953843117E0,-1.453639716E-1,3.400799036E-1,9.960711712E0
2.252494328E0,9.951450348E0,-1.552343667E-1,3.329014480E-1,9.958227006E0
2.254938651E0,9.944272041E0,-1.600200087E-1,3.257229924E-1,9.950891835E0
2.257383703E0,9.951450348E0,-1.624128371E-1,3.281157911E-1,9.958182662E0
2.259827922E0,9.965806961E0,-1.480558962E-1,3.161516786E-1,9.971919615E0
2.262271412E0,9.934700966E0,-1.504487246E-1,3.257229924E-1,9.941177675E0
2.264715630E0,9.951450348E0,-1.480558962E-1,3.185445070E-1,9.957648075E0
2.267160787E0,9.932307243E0,-1.576271951E-1,3.161516786E-1,9.938587696E0
2.269605005E0,9.949057579E0,-1.429711580E-1,3.424727321E-1,9.955976850E0
2.272048443E0,9.937093735E0,-1.504487246E-1,3.281157911E-1,9.943647554E0
2.274492766E0,9.934700966E0,-1.576271951E-1,3.257229924E-1,9.941288904E0
2.276937818E0,9.939486504E0,-1.504487246E-1,3.352942765E-1,9.946278149E0
2.279382037E0,9.941879272E0,-1.576271951E-1,3.424727321E-1,9.949024946E0
2.281825526E0,9.941879272E0,-1.453639716E-1,3.305086195E-1,9.948433550E0
2.284269849E0,9.951450348E0,-1.600200087E-1,3.376871049E-1,9.958463888E0
2.286714901E0,9.941879272E0,-1.480558962E-1,3.352942765E-1,9.948633387E0
2.289159120E0,9.953843117E0,-1.600200087E-1,3.329014480E-1,9.960693880E0
2.291602610E0,9.951450348E0,-1.600200087E-1,3.472583890E-1,9.958793040E0
2.294046933E0,9.953843117E0,-1.381855011E-1,3.233301640E-1,9.960051728E0
2.296491985E0,9.932307243E0,-1.671984792E-1,3.592225015E-1,9.940207408E0
2.298936203E0,9.953843117E0,-1.671984792E-1,3.305086195E-1,9.960732105E0
2.301379641E0,9.953843117E0,-1.552343667E-1,3.233301640E-1,9.960302852E0
2.303823964E0,9.932307243E0,-1.600200087E-1,3.376871049E-1,9.939334292E0
2.306269016E0,9.956235886E0,-1.600200087E-1,3.233301640E-1,9.962769786E0
2.308713235E0,9.956235886E0,-1.600200087E-1,3.305086195E-1,9.963005338E0
2.311156724E0,9.941879272E0,-1.528415531E-1,3.376871049E-1,9.948786689E0
2.313601047E0,9.934700966E0,-1.671984792E-1,3.329014480E-1,9.941683056E0
2.316046099E0,9.958628654E0,-1.429711580E-1,3.376871049E-1,9.965377966E0
2.318490318E0,9.944272041E0,-1.480558962E-1,3.209373355E-1,9.950551128E0
2.320933808E0,9.944272041E0,-1.648056656E-1,3.257229924E-1,9.950969943E0
2.323378130E0,9.951450348E0,-1.528415531E-1,3.305086195E-1,9.958110288E0
2.325823183E0,9.934700966E0,-1.480558962E-1,3.209373355E-1,9.940986098E0
2.328267401E0,9.929914474E0,-1.624128371E-1,3.616153300E-1,9.937823959E0
2.330710839E0,9.951450348E0,-1.576271951E-1,3.568296731E-1,9.959093221E0
2.333155162E0,9.937093735E0,-1.528415531E-1,3.496512175E-1,9.944417952E0
2.335600214E0,9.932307243E0,-1.528415531E-1,3.305086195E-1,9.938980011E0
2.338044433E0,9.956235886E0,-1.648056656E-1,3.089732230E-1,9.962392201E0
2.340487922E0,9.937093735E0,-1.576271951E-1,3.376871049E-1,9.944079183E0
2.342932245E0,9.949057579E0,-1.552343667E-1,3.233301640E-1,9.955520419E0
2.345377297E0,9.939486504E0,-1.552343667E-1,3.520440459E-1,9.946930415E0
2.347821516E0,9.946664810E0,-1.480558962E-1,3.185445070E-1,9.952865517E0
2.350265005E0,9.941879272E0,-1.624128371E-1,3.640081584E-1,9.949866498E0
2.352709328E0,9.972985268E0,-1.552343667E-1,3.424727321E-1,9.980071164E0
2.355154380E0,9.946664810E0,-1.429711580E-1,3.472583890E-1,9.953751553E0
2.357598599E0,9.970592499E0,-1.600200087E-1,3.496512175E-1,9.978004668E0
2.360042089E0,9.953843117E0,-1.767697781E-1,3.376871049E-1,9.961138134E0
2.362486308E0,9.934700966E0,-1.815554202E-1,3.161516786E-1,9.941388109E0
2.364931464E0,9.929914474E0,-1.600200087E-1,3.520440459E-1,9.937441466E0
2.367375683E0,9.939486504E0,-1.695913076E-1,3.424727321E-1,9.946830688E0
2.369819120E0,9.937093735E0,-1.671984792E-1,3.400799036E-1,9.944317049E0
2.372263443E0,9.929914474E0,-1.695913076E-1,3.472583890E-1,9.937431815E0
2.374708495E0,9.949057579E0,-1.767697781E-1,3.352942765E-1,9.956275233E0
2.377152714E0,9.956235886E0,-1.791625917E-1,3.305086195E-1,9.963331179E0
2.379596203E0,9.937093735E0,-1.600200087E-1,3.376871049E-1,9.944117401E0
2.382040526E0,9.944272041E0,-1.600200087E-1,3.448655605E-1,9.951536821E0
2.384485578E0,9.944272041E0,-1.695913076E-1,3.281157911E-1,9.951128962E0
2.386929797E0,9.956235886E0,-1.576271951E-1,3.305086195E-1,9.962967193E0
2.389373287E0,9.929914474E0,-1.504487246E-1,3.137588799E-1,9.936009306E0
2.391817610E0,9.941879272E0,-1.504487246E-1,3.257229924E-1,9.948351308E0
2.394262662E0,9.956235886E0,-1.453639716E-1,3.185445070E-1,9.962390993E0
2.396706880E0,9.953843117E0,-1.453639716E-1,3.257229924E-1,9.960231872E0
2.399150318E0,9.944272041E0,-1.671984792E-1,3.161516786E-1,9.950701164E0
2.401594641E0,9.963414192E0,-1.528415531E-1,3.400799036E-1,9.970388019E0
2.404039693E0,9.927521706E0,-1.405783296E-1,3.448655605E-1,9.934504605E0
2.406483912E0,9.946664810E0,-1.600200087E-1,3.305086195E-1,9.953440772E0
2.408927401E0,9.937093735E0,-1.671984792E-1,3.424727321E-1,9.944399167E0
2.411371724E0,9.941879272E0,-1.528415531E-1,3.257229924E-1,9.948387783E0
2.413816776E0,9.934700966E0,-1.695913076E-1,3.424727321E-1,9.942048686E0
2.416260995E0,9.941879272E0,-1.576271951E-1,3.352942765E-1,9.948780430E0
2.418704485E0,9.937093735E0,-1.671984792E-1,3.209373355E-1,9.943680807E0
2.421148808E0,9.939486504E0,-1.552343667E-1,3.305086195E-1,9.946191513E0
2.423593860E0,9.932307243E0,-1.911267042E-1,3.472583890E-1,9.940213528E0
2.426038078E0,9.939486504E0,-1.791625917E-1,3.233301640E-1,9.946357805E0
2.428481516E0,9.956235886E0,-1.600200087E-1,3.257229924E-1,9.962847729E0
2.430925839E0,9.951450348E0,-1.719841212E-1,3.305086195E-1,9.958422491E0
2.433370943E0,9.949057579E0,-1.528415531E-1,3.472583890E-1,9.956289251E0
2.435815162E0,9.953843117E0,-1.576271951E-1,3.305086195E-1,9.960576041E0
2.438258599E0,9.939486504E0,-1.552343667E-1,3.400799036E-1,9.946514163E0
2.440702922E0,9.958628654E0,-1.719841212E-1,3.185445070E-1,9.965206160E0
2.443147974E0,9.944272041E0,-1.600200087E-1,3.281157911E-1,9.950970446E0
2.445592193E0,9.941879272E0,-1.552343667E-1,3.376871049E-1,9.948823737E0
2.448035683E0,9.961021423E0,-1.600200087E-1,3.448655605E-1,9.968273996E0
2.450480005E0,9.949057579E0,-1.624128371E-1,3.400799036E-1,9.956192996E0
2.452925058E0,9.951450348E0,-1.600200087E-1,3.640081584E-1,9.959391165E0
2.455369276E0,9.951450348E0,-1.405783296E-1,3.520440459E-1,9.958667647E0
2.457812766E0,9.929914474E0,-1.624128371E-1,3.400799036E-1,9.937063638E0
2.460257089E0,9.929914474E0,-1.743769497E-1,3.496512175E-1,9.937598541E0
2.462702141E0,9.941879272E0,-1.624128371E-1,3.448655605E-1,9.949184572E0
2.465146360E0,9.937093735E0,-1.357926875E-1,3.472583890E-1,9.944086682E0
2.467589797E0,9.958628654E0,-1.480558962E-1,3.305086195E-1,9.965211547E0
2.470034120E0,9.951450348E0,-1.576271951E-1,3.233301640E-1,9.957949224E0
2.472479172E0,9.951450348E0,-1.576271951E-1,3.376871049E-1,9.958425726E0
2.474923391E0,9.951450348E0,-1.504487246E-1,3.233301640E-1,9.957838181E0
2.477366880E0,9.963414192E0,-1.528415531E-1,3.305086195E-1,9.970066141E0
2.479811203E0,9.934700966E0,-1.504487246E-1,3.568296731E-1,9.942245497E0
2.482256255E0,9.949057579E0,-1.624128371E-1,3.305086195E-1,9.955870659E0
2.484700474E0,9.946664810E0,-1.405783296E-1,3.209373355E-1,9.952833963E0
2.487143964E0,9.944272041E0,-1.333998591E-1,3.257229924E-1,9.950499355E0
2.489588287E0,9.961021423E0,-1.576271951E-1,3.352942765E-1,9.967909328E0
2.492033339E0,9.939486504E0,-1.600200087E-1,3.257229924E-1,9.946109482E0
2.494477558E0,9.944272041E0,-1.528415531E-1,3.209373355E-1,9.950623485E0
2.496920995E0,9.937093735E0,-1.381855011E-1,3.209373355E-1,9.943235283E0
2.499365318E0,9.939486504E0,-1.480558962E-1,3.305086195E-1,9.946082065E0
2.501810370E0,9.944272041E0,-1.671984792E-1,3.281157911E-1,9.951088470E0
2.504254589E0,9.949057579E0,-1.357926875E-1,3.400799036E-1,9.955794328E0
2.506698078E0,9.961021423E0,-1.429711580E-1,3.400799036E-1,9.967850465E0
2.509142401E0,9.949057579E0,-1.576271951E-1,3.424727321E-1,9.956198100E0
2.511587453E0,9.934700966E0,-1.528415531E-1,3.376871049E-1,9.941613370E0
2.514031672E0,9.929914474E0,-1.405783296E-1,3.376871049E-1,9.936649149E0
2.516475162E0,9.941879272E0,-1.695913076E-1,3.329014480E-1,9.948896826E0
2.518919485E0,9.946664810E0,-1.624128371E-1,3.352942765E-1,9.953639587E0
2.521364537E0,9.951450348E0,-1.815554202E-1,3.376871049E-1,9.958833214E0
2.523808755E0,9.949057579E0,-1.504487246E-1,3.209373355E-1,9.955369521E0
2.526252245E0,9.932307243E0,-1.504487246E-1,3.305086195E-1,9.938943502E0
2.528696464E0,9.946664810E0,-1.528415531E-1,3.233301640E-1,9.953092172E0
2.531141620E0,9.944272041E0,-1.767697781E-1,3.209373355E-1,9.951019785E0
2.533585839E0,9.958628654E0,-1.504487246E-1,3.257229924E-1,9.965089812E0
2.536029276E0,9.939486504E0,-1.576271951E-1,3.352942765E-1,9.946389322E0
2.538473599E0,9.932307243E0,-1.504487246E-1,3.305086195E-1,9.938943502E0
2.540918651E0,9.927521706E0,-1.671984792E-1,3.448655605E-1,9.934916950E0
2.543362870E0,9.925128937E0,-1.528415531E-1,3.424727321E-1,9.932211865E0
2.545806360E0,9.951450348E0,-1.528415531E-1,3.281157911E-1,9.958031158E0
2.548250683E0,9.944272041E0,-1.453639716E-1,3.424727321E-1,9.951229305E0
2.550695735E0,9.949057579E0,-1.405783296E-1,3.376871049E-1,9.955779304E0
2.553139953E0,9.939486504E0,-1.576271951E-1,3.472583890E-1,9.946799821E0
2.555583443E0,9.949057579E0,-1.719841212E-1,3.448655605E-1,9.956518342E0
2.558027766E0,9.951450348E0,-1.528415531E-1,3.185445070E-1,9.957720380E0
2.560472818E0,9.946664810E0,-1.552343667E-1,3.592225015E-1,9.954359817E0
2.562917037E0,9.937093735E0,-1.600200087E-1,3.305086195E-1,9.943876218E0
2.565360474E0,9.932307243E0,-1.528415531E-1,3.400799036E-1,9.939302896E0
2.567804797E0,9.934700966E0,-1.552343667E-1,3.305086195E-1,9.941409203E0
2.570249849E0,9.946664810E0,-1.600200087E-1,3.400799036E-1,9.953763187E0
2.572694068E0,9.920343399E0,-1.839482337E-1,3.329014480E-1,9.927631816E0
2.575137558E0,9.934700966E0,-1.552343667E-1,3.161516786E-1,9.940942253E0
2.577581880E0,9.944272041E0,-1.719841212E-1,3.400799036E-1,9.951571701E0
2.580026933E0,9.941879272E0,-1.480558962E-1,3.568296731E-1,9.949382465E0
2.582471151E0,9.946664810E0,-1.648056656E-1,3.376871049E-1,9.953759809E0
2.584914641E0,9.949057579E0,-1.528415531E-1,3.400799036E-1,9.956041462E0
2.587358964E0,9.968199730E0,-1.576271951E-1,3.329014480E-1,9.975002534E0
2.589804016E0,9.961021423E0,-1.671984792E-1,3.281157911E-1,9.967826398E0
2.592248235E0,9.951450348E0,-1.671984792E-1,3.257229924E-1,9.958183310E0
2.594691724E0,9.946664810E0,-1.552343667E-1,3.257229924E-1,9.953207223E0
2.597135943E0,9.951450348E0,-1.671984792E-1,3.305086195E-1,9.958340992E0
2.599581099E0,9.963414192E0,-1.552343667E-1,3.233301640E-1,9.969867726E0
2.602025318E0,9.946664810E0,-1.648056656E-1,3.376871049E-1,9.953759809E0
2.604468755E0,9.937093735E0,-1.671984792E-1,3.305086195E-1,9.943994327E0
2.606913078E0,9.946664810E0,-1.576271951E-1,3.305086195E-1,9.953402590E0
2.609358130E0,9.929914474E0,-1.600200087E-1,3.400799036E-1,9.937024817E0
2.611802349E0,9.951450348E0,-1.767697781E-1,3.592225015E-1,9.959500609E0
2.614245839E0,9.941879272E0,-1.671984792E-1,3.400799036E-1,9.949099112E0
2.616690162E0,9.956235886E0,-1.480558962E-1,3.209373355E-1,9.962507432E0
2.619135214E0,9.941879272E0,-1.552343667E-1,3.305086195E-1,9.948582669E0
2.621579433E0,9.944272041E0,-1.600200087E-1,3.568296731E-1,9.951958614E0
2.624022922E0,9.958628654E0,-1.648056656E-1,3.376871049E-1,9.965715136E0
2.626467245E0,9.946664810E0,-1.480558962E-1,3.424727321E-1,9.953660079E0
2.628912297E0,9.951450348E0,-1.576271951E-1,3.305086195E-1,9.958184890E0
2.631356516E0,9.951450348E0,-1.719841212E-1,3.472583890E-1,9.958992467E0
2.633799953E0,9.934700966E0,-1.648056656E-1,3.400799036E-1,9.941886065E0
2.636244276E0,9.956235886E0,-1.552343667E-1,3.352942765E-1,9.963089529E0
2.638689328E0,9.951450348E0,-1.528415531E-1,3.329014480E-1,9.958189993E0
2.641133547E0,9.937093735E0,-1.504487246E-1,3.448655605E-1,9.944214346E0
2.643577037E0,9.937093735E0,-1.429711580E-1,3.448655605E-1,9.944104027E0
2.646021360E0,9.929914474E0,-1.504487246E-1,3.400799036E-1,9.936875295E0
2.648466412E0,9.934700966E0,-1.695913076E-1,3.352942765E-1,9.941803999E0
2.650910630E0,9.946664810E0,-1.695913076E-1,3.137588799E-1,9.953057153E0
2.653354120E0,9.944272041E0,-1.528415531E-1,3.352942765E-1,9.951096885E0
2.655798443E0,9.949057579E0,-1.528415531E-1,3.424727321E-1,9.956123484E0
2.658243495E0,9.951450348E0,-1.624128371E-1,3.233301640E-1,9.958026127E0
2.660687714E0,9.949057579E0,-1.576271951E-1,3.448655605E-1,9.956280696E0
2.663131203E0,9.951450348E0,-1.719841212E-1,3.687937856E-1,9.959766635E0
2.665575422E0,9.949057579E0,-1.743769497E-1,3.305086195E-1,9.956073020E0
2.668020578E0,9.953843117E0,-1.429711580E-1,3.376871049E-1,9.960595671E0
2.670464797E0,9.944272041E0,-1.429711580E-1,3.352942765E-1,9.950950178E0
2.672908235E0,9.958628654E0,-1.552343667E-1,3.113660514E-1,9.964704271E0
2.675352558E0,9.934700966E0,-1.624128371E-1,3.568296731E-1,9.942433738E0
2.677797610E0,9.944272041E0,-1.333998591E-1,3.592225015E-1,9.951652263E0
2.680241828E0,9.961021423E0,-1.504487246E-1,3.448655605E-1,9.968124943E0
2.682685318E0,9.953843117E0,-1.576271951E-1,3.329014480E-1,9.960655726E0
2.685129641E0,9.941879272E0,-1.719841212E-1,3.257229924E-1,9.948700291E0
2.687574693E0,9.949057579E0,-1.480558962E-1,3.352942765E-1,9.955806824E0
2.690018912E0,9.941879272E0,-1.624128371E-1,3.448655605E-1,9.949184572E0
2.692462401E0,9.941879272E0,-1.576271951E-1,3.400799036E-1,9.948942866E0
2.694906724E0,9.932307243E0,-1.552343667E-1,3.329014480E-1,9.939096954E0
2.697351776E0,9.920343399E0,-1.429711580E-1,3.257229924E-1,9.926718963E0
2.699795995E0,9.956235886E0,-1.552343667E-1,3.592225015E-1,9.963923501E0
2.702239433E0,9.944272041E0,-1.453639716E-1,3.472583890E-1,9.951395154E0
2.704683755E0,9.949057579E0,-1.576271951E-1,3.329014480E-1,9.955873463E0
2.707128860E0,9.958628654E0,-1.600200087E-1,3.329014480E-1,9.965476128E0
2.709573026E0,9.939486504E0,-1.480558962E-1,3.305086195E-1,9.946082065E0
2.712016516E0,9.941879272E0,-1.671984792E-1,3.352942765E-1,9.948936679E0
2.714460839E0,9.951450348E0,-1.719841212E-1,3.352942765E-1,9.958582470E0
2.716905891E0,9.946664810E0,-1.552343667E-1,3.305086195E-1,9.953364984E0
2.719350110E0,9.956235886E0,-1.600200087E-1,3.448655605E-1,9.963491941E0
2.721793599E0,9.946664810E0,-1.576271951E-1,3.448655605E-1,9.953889664E0
2.724237922E0,9.941879272E0,-1.504487246E-1,3.352942765E-1,9.948669285E0
2.726682974E0,9.937093735E0,-1.648056656E-1,3.376871049E-1,9.944195562E0
2.729127193E0,9.953843117E0,-1.480558962E-1,3.161516786E-1,9.959963114E0
2.731570683E0,9.949057579E0,-1.695913076E-1,3.520440459E-1,9.956728526E0
2.734014901E0,9.937093735E0,-1.552343667E-1,3.376871049E-1,9.944041542E0
2.736460058E0,9.934700966E0,-1.600200087E-1,3.568296731E-1,9.942394938E0
2.738904276E0,9.939486504E0,-1.648056656E-1,3.376871049E-1,9.946586623E0
2.741347714E0,9.939486504E0,-1.648056656E-1,3.305086195E-1,9.946345500E0
2.743792037E0,9.939486504E0,-1.453639716E-1,3.305086195E-1,9.946042358E0
2.746237089E0,9.961021423E0,-1.648056656E-1,3.400799036E-1,9.968187551E0
2.748681308E0,9.925128937E0,-1.504487246E-1,3.400799036E-1,9.932093111E0
2.751124797E0,9.949057579E0,-1.405783296E-1,3.281157911E-1,9.955459254E0
2.753569120E0,9.922736168E0,-1.333998591E-1,3.281157911E-1,9.929055773E0
2.756014172E0,9.941879272E0,-1.504487246E-1,3.376871049E-1,9.948750216E0
2.758458391E0,9.949057579E0,-1.480558962E-1,3.568296731E-1,9.956555362E0
2.760901880E0,9.946664810E0,-1.576271951E-1,3.472583890E-1,9.953972853E0
2.763346203E0,9.956235886E0,-1.576271951E-1,3.568296731E-1,9.963875087E0
2.765791255E0,9.944272041E0,-1.504487246E-1,3.281157911E-1,9.950821133E0
2.768235474E0,9.934700966E0,-1.671984792E-1,3.352942765E-1,9.941763469E0
2.770678912E0,9.949057579E0,-1.600200087E-1,3.352942765E-1,9.955991933E0
2.773123235E0,9.941879272E0,-1.624128371E-1,3.257229924E-1,9.948539434E0
2.775568339E0,9.951450348E0,-1.504487246E-1,3.400799036E-1,9.958396115E0
2.778012505E0,9.946664810E0,-1.600200087E-1,3.113660514E-1,9.952823522E0
2.780455995E0,9.953843117E0,-1.528415531E-1,3.305086195E-1,9.960501457E0
2.782900318E0,9.944272041E0,-1.262213886E-1,3.137588799E-1,9.950021252E0
2.785345370E0,9.944272041E0,-1.429711580E-1,3.448655605E-1,9.951277277E0
2.787789589E0,9.961021423E0,-1.576271951E-1,3.400799036E-1,9.968071452E0
2.790233078E0,9.951450348E0,-1.648056656E-1,3.257229924E-1,9.958143421E0
2.792677401E0,9.951450348E0,-1.671984792E-1,3.209373355E-1,9.958027924E0
2.795122453E0,9.944272041E0,-1.624128371E-1,3.137588799E-1,9.950546166E0
2.797566672E0,9.941879272E0,-1.528415531E-1,3.305086195E-1,9.948545620E0
2.800010162E0,9.951450348E0,-1.381855011E-1,3.209373355E-1,9.957583042E0
2.802454380E0,9.939486504E0,-1.719841212E-1,3.400799036E-1,9.946789675E0
2.804899537E0,9.934700966E0,-1.695913076E-1,3.496512175E-1,9.942298550E0
2.807343755E0,9.946664810E0,-1.552343667E-1,3.352942765E-1,9.953525044E0
2.809787193E0,9.944272041E0,-1.624128371E-1,3.233301640E-1,9.950852564E0
2.812231516E0,9.937093735E0,-1.743769497E-1,3.472583890E-1,9.944688412E0
2.814676568E0,9.939486504E0,-1.671984792E-1,3.233301640E-1,9.946149490E0
2.817120787E0,9.939486504E0,-1.429711580E-1,3.233301640E-1,9.945771720E0
2.819564276E0,9.939486504E0,-1.528415531E-1,3.281157911E-1,9.946075229E0
2.822008599E0,9.956235886E0,-1.648056656E-1,3.616153300E-1,9.964163766E0
2.824453651E0,9.941879272E0,-1.624128371E-1,3.544368446E-1,9.949520937E0
2.826897870E0,9.946664810E0,-1.839482337E-1,3.424727321E-1,9.954258655E0
2.829341360E0,9.951450348E0,-1.671984792E-1,3.400799036E-1,9.958663249E0
2.831785683E0,9.946664810E0,-1.695913076E-1,3.400799036E-1,9.953921659E0
2.834230735E0,9.939486504E0,-1.552343667E-1,3.281157911E-1,9.946112288E0
2.836674953E0,9.946664810E0,-1.480558962E-1,3.233301640E-1,9.953019833E0
2.839118391E0,9.953843117E0,-1.743769497E-1,3.329014480E-1,9.960934870E0
2.841562714E0,9.939486504E0,-1.671984792E-1,3.400799036E-1,9.946708080E0
2.844007818E0,9.946664810E0,-1.576271951E-1,3.448655605E-1,9.953889664E0
2.846451985E0,9.946664810E0,-1.576271951E-1,3.305086195E-1,9.953402590E0
2.848895474E0,9.932307243E0,-1.528415531E-1,3.424727321E-1,9.939385056E0
2.851339797E0,9.929914474E0,-1.600200087E-1,3.400799036E-1,9.937024817E0
2.853784849E0,9.915557861E0,-1.480558962E-1,3.233301640E-1,9.921932808E0
2.856229068E0,9.939486504E0,-1.576271951E-1,3.305086195E-1,9.946229147E0
2.858672558E0,9.953843117E0,-1.576271951E-1,3.305086195E-1,9.960576041E0
2.861116880E0,9.939486504E0,-1.648056656E-1,3.305086195E-1,9.946345500E0
2.863561933E0,9.956235886E0,-1.429711580E-1,3.281157911E-1,9.962666999E0
2.866006151E0,9.941879272E0,-1.600200087E-1,3.544368446E-1,9.949482165E0
2.868449641E0,9.970592499E0,-1.624128371E-1,3.472583890E-1,9.977959766E0
2.870893964E0,9.927521706E0,-1.671984792E-1,3.592225015E-1,9.935425675E0
2.873339016E0,9.963414192E0,-1.357926875E-1,3.520440459E-1,9.970556506E0
2.875783235E0,9.934700966E0,-1.552343667E-1,3.616153300E-1,9.942491973E0
2.878226672E0,9.941879272E0,-1.576271951E-1,3.329014480E-1,9.948700075E0
2.880670995E0,9.944272041E0,-1.600200087E-1,3.616153300E-1,9.952131354E0
2.883116047E0,9.944272041E0,-1.600200087E-1,3.161516786E-1,9.950583135E0
2.885560266E0,9.949057579E0,-1.381855011E-1,3.305086195E-1,9.955504904E0
2.888003755E0,9.941879272E0,-1.624128371E-1,3.305086195E-1,9.948697269E0
2.890448078E0,9.937093735E0,-1.552343667E-1,3.472583890E-1,9.944371171E0
2.892893130E0,9.929914474E0,-1.767697781E-1,3.376871049E-1,9.937227058E0
2.895337349E0,9.958628654E0,-1.504487246E-1,3.472583890E-1,9.965816970E0
2.897780839E0,9.939486504E0,-1.528415531E-1,3.376871049E-1,9.946395582E0
2.900225162E0,9.946664810E0,-1.552343667E-1,3.472583890E-1,9.953935249E0
2.902670214E0,9.944272041E0,-1.624128371E-1,3.496512175E-1,9.951742578E0
2.905114433E0,9.927521706E0,-1.528415531E-1,3.640081584E-1,9.935368624E0
2.907557922E0,9.929914474E0,-1.405783296E-1,3.472583890E-1,9.936979024E0
2.910002141E0,9.946664810E0,-1.528415531E-1,3.233301640E-1,9.953092172E0
2.912447297E0,9.951450348E0,-1.480558962E-1,3.376871049E-1,9.958278825E0
2.914891516E0,9.941879272E0,-1.552343667E-1,3.496512175E-1,9.949237013E0
2.917334953E0,9.941879272E0,-1.695913076E-1,3.185445070E-1,9.948426774E0
2.919779276E0,9.946664810E0,-1.453639716E-1,3.329014480E-1,9.953295681E0
2.922224328E0,9.932307243E0,-1.648056656E-1,3.448655605E-1,9.939658965E0
2.924668547E0,9.927521706E0,-1.600200087E-1,3.281157911E-1,9.934231404E0
2.927112037E0,9.951450348E0,-1.504487246E-1,3.616153300E-1,9.959154808E0
2.929556360E0,9.941879272E0,-1.767697781E-1,3.472583890E-1,9.949512521E0
2.932001412E0,9.937093735E0,-1.695913076E-1,3.448655605E-1,9.944522380E0
2.934445630E0,9.961021423E0,-1.600200087E-1,3.329014480E-1,9.967867253E0
2.936889120E0,9.946664810E0,-1.552343667E-1,3.400799036E-1,9.953687402E0
2.939333443E0,9.946664810E0,-1.480558962E-1,3.352942765E-1,9.953415677E0
2.941778495E0,9.951450348E0,-1.405783296E-1,3.472583890E-1,9.958499620E0
2.944222714E0,9.929914474E0,-1.624128371E-1,3.257229924E-1,9.936582655E0
2.946666151E0,9.953843117E0,-1.480558962E-1,3.352942765E-1,9.960589119E0
2.949110474E0,9.937093735E0,-1.624128371E-1,3.329014480E-1,9.943994831E0
2.951555526E0,9.956235886E0,-1.648056656E-1,3.161516786E-1,9.962617417E0
2.953999849E0,9.932307243E0,-1.480558962E-1,3.281157911E-1,9.938828286E0
2.956443235E0,9.963414192E0,-1.576271951E-1,3.424727321E-1,9.970544432E0
2.958887558E0,9.944272041E0,-1.480558962E-1,3.496512175E-1,9.951518626E0
2.961332610E0,9.946664810E0,-1.576271951E-1,3.376871049E-1,9.953643542E0
2.963776828E0,9.941879272E0,-1.671984792E-1,3.233301640E-1,9.948540657E0
2.966220318E0,9.934700966E0,-1.552343667E-1,3.472583890E-1,9.941980154E0
2.968664641E0,9.946664810E0,-1.528415531E-1,3.424727321E-1,9.953732413E0
2.971109693E0,9.932307243E0,-1.767697781E-1,3.209373355E-1,9.939063110E0
2.973553912E0,9.949057579E0,-1.600200087E-1,3.113660514E-1,9.955214811E0
2.975997401E0,9.949057579E0,-1.791625917E-1,3.496512175E-1,9.956811835E0
2.978441620E0,9.949057579E0,-1.576271951E-1,3.305086195E-1,9.955793740E0
2.980886776E0,9.949057579E0,-1.528415531E-1,3.257229924E-1,9.955561396E0
2.983330995E0,9.946664810E0,-1.648056656E-1,3.281157911E-1,9.953439693E0
2.985774433E0,9.963414192E0,-1.695913076E-1,3.305086195E-1,9.970336981E0
2.988218755E0,9.951450348E0,-1.600200087E-1,3.376871049E-1,9.958463888E0
2.990663808E0,9.939486504E0,-1.624128371E-1,3.185445070E-1,9.945915769E0
2.993108026E0,9.939486504E0,-1.671984792E-1,3.376871049E-1,9.946626557E0
2.995551516E0,9.939486504E0,-1.333998591E-1,3.544368446E-1,9.946698596E0
2.997995839E0,9.941879272E0,-1.504487246E-1,3.113660514E-1,9.947891591E0
3.000440891E0,9.925128937E0,-1.480558962E-1,3.281157911E-1,9.931654693E0
3.002885110E0,9.944272041E0,-1.600200087E-1,3.544368446E-1,9.951873106E0
3.005328599E0,9.946664810E0,-1.648056656E-1,3.376871049E-1,9.953759809E0
3.007772922E0,9.920343399E0,-1.552343667E-1,3.448655605E-1,9.927549704E0
3.010217974E0,9.932307243E0,-1.504487246E-1,3.520440459E-1,9.939682943E0
3.012662193E0,9.932307243E0,-1.576271951E-1,3.089732230E-1,9.938361936E0
3.015105630E0,9.949057579E0,-1.624128371E-1,3.640081584E-1,9.957039047E0
3.017549953E0,9.949057579E0,-1.600200087E-1,3.257229924E-1,9.955674190E0
3.019995058E0,9.929914474E0,-1.600200087E-1,3.257229924E-1,9.936543833E0
3.022439276E0,9.946664810E0,-1.671984792E-1,3.544368446E-1,9.954382033E0
3.024882714E0,9.953843117E0,-1.695913076E-1,3.185445070E-1,9.960382754E0
3.027327037E0,9.949057579E0,-1.528415531E-1,3.400799036E-1,9.956041462E0
3.029772089E0,9.939486504E0,-1.576271951E-1,3.568296731E-1,9.947138569E0
3.032216308E0,9.956235886E0,-1.767697781E-1,3.257229924E-1,9.963130835E0
3.034659797E0,9.956235886E0,-1.743769497E-1,3.257229924E-1,9.963088668E0
3.037104120E0,9.944272041E0,-1.671984792E-1,3.352942765E-1,9.951327751E0
3.039549172E0,9.946664810E0,-1.648056656E-1,3.305086195E-1,9.953518860E0
3.041993391E0,9.937093735E0,-1.624128371E-1,3.257229924E-1,9.943757101E0
3.044436880E0,9.946664810E0,-1.743769497E-1,3.376871049E-1,9.953922882E0
3.046881203E0,9.939486504E0,-1.600200087E-1,3.352942765E-1,9.946427530E0
3.049326255E0,9.932307243E0,-1.719841212E-1,3.496512175E-1,9.939947771E0
3.051770474E0,9.937093735E0,-1.357926875E-1,3.400799036E-1,9.943838589E0
3.054213912E0,9.927521706E0,-1.576271951E-1,3.137588799E-1,9.933729319E0
3.056658235E0,9.934700966E0,-1.624128371E-1,3.400799036E-1,9.941846687E0
3.059103339E0,9.953843117E0,-1.429711580E-1,3.281157911E-1,9.960275775E0
3.061547505E0,9.941879272E0,-1.600200087E-1,3.424727321E-1,9.949063144E0
3.063990995E0,9.944272041E0,-1.576271951E-1,3.400799036E-1,9.951333936E0
3.066435318E0,9.929914474E0,-1.480558962E-1,3.329014480E-1,9.936596268E0
3.068880370E0,9.937093735E0,-1.600200087E-1,3.257229924E-1,9.943718307E0
3.071324589E0,9.965806961E0,-1.576271951E-1,3.329014480E-1,9.972611398E0
3.073768078E0,9.970592499E0,-1.624128371E-1,3.424727321E-1,9.977794359E0
3.076212401E0,9.941879272E0,-1.600200087E-1,3.329014480E-1,9.948738274E0
3.078657453E0,9.944272041E0,-1.719841212E-1,3.329014480E-1,9.951328974E0
3.081101672E0,9.941879272E0,-1.648056656E-1,3.424727321E-1,9.949141267E0
3.083545110E0,9.946664810E0,-1.528415531E-1,3.305086195E-1,9.953327953E0
3.085989433E0,9.941879272E0,-1.600200087E-1,3.400799036E-1,9.948981064E0
3.088434537E0,9.941879272E0,-1.528415531E-1,3.352942765E-1,9.948705758E0
3.090878755E0,9.927521706E0,-1.453639716E-1,3.424727321E-1,9.934490700E0
3.093322193E0,9.951450348E0,-1.429711580E-1,3.568296731E-1,9.958872034E0
3.095766516E0,9.953843117E0,-1.624128371E-1,3.424727321E-1,9.961057087E0
3.098211568E0,9.937093735E0,-1.695913076E-1,3.472583890E-1,9.944605648E0
3.100655787E0,9.925128937E0,-1.480558962E-1,3.400799036E-1,9.932057154E0
3.103099276E0,9.941879272E0,-1.528415531E-1,3.305086195E-1,9.948545620E0
3.105543599E0,9.949057579E0,-1.648056656E-1,3.424727321E-1,9.956314338E0
3.107988651E0,9.951450348E0,-1.528415531E-1,3.281157911E-1,9.958031158E0
3.110432870E0,9.949057579E0,-1.719841212E-1,3.185445070E-1,9.955641408E0
3.112876360E0,9.958628654E0,-1.576271951E-1,3.376871049E-1,9.965599008E0
3.115320683E0,9.958628654E0,-1.600200087E-1,3.496512175E-1,9.966049722E0
3.117765735E0,9.951450348E0,-1.528415531E-1,3.400799036E-1,9.958432553E0
3.120209953E0,9.958628654E0,-1.480558962E-1,3.424727321E-1,9.965615525E0
3.122653391E0,9.941879272E0,-1.528415531E-1,3.209373355E-1,9.948232244E0
3.125097714E0,9.941879272E0,-1.648056656E-1,3.209373355E-1,9.948423249E0
3.127542818E0,9.949057579E0,-1.719841212E-1,3.496512175E-1,9.956685253E0
3.129987037E0,9.946664810E0,-1.504487246E-1,3.496512175E-1,9.953945531E0
3.132430474E0,9.949057579E0,-1.648056656E-1,3.376871049E-1,9.956150873E0
3.134874797E0,9.941879272E0,-1.600200087E-1,3.400799036E-1,9.948981064E0
3.137319849E0,9.929914474E0,-1.576271951E-1,3.448655605E-1,9.937151506E0
3.139764068E0,9.929914474E0,-1.552343667E-1,3.376871049E-1,9.936867301E0
3.142207558E0,9.929914474E0,-1.600200087E-1,3.305086195E-1,9.936701858E0
3.144651880E0,9.934700966E0,-1.576271951E-1,3.448655605E-1,9.941934513E0
3.147096933E0,9.944272041E0,-1.552343667E-1,3.424727321E-1,9.951378383E0
3.149541151E0,9.941879272E0,-1.429711580E-1,3.329014480E-1,9.948478657E0
3.151984641E0,9.941879272E0,-1.429711580E-1,3.305086195E-1,9.948398875E0
3.154428964E0,9.946664810E0,-1.576271951E-1,3.281157911E-1,9.953323422E0
3.156874016E0,9.951450348E0,-1.381855011E-1,3.209373355E-1,9.957583042E0
3.159318235E0,9.941879272E0,-1.357926875E-1,3.448655605E-1,9.948785623E0
3.161761672E0,9.941879272E0,-1.600200087E-1,3.161516786E-1,9.948191884E0
3.164205995E0,9.953843117E0,-1.552343667E-1,3.329014480E-1,9.960618147E0
3.166651099E0,9.946664810E0,-1.648056656E-1,3.376871049E-1,9.953759809E0
3.169095266E0,9.961021423E0,-1.552343667E-1,3.472583890E-1,9.968281391E0
3.171538755E0,9.951450348E0,-1.480558962E-1,3.448655605E-1,9.958524832E0
3.173983078E0,9.951450348E0,-1.552343667E-1,3.257229924E-1,9.957989617E0
3.176428130E0,9.951450348E0,-1.695913076E-1,3.400799036E-1,9.958703710E0
3.178872349E0,9.929914474E0,-1.671984792E-1,3.233301640E-1,9.936583880E0
3.181315839E0,9.949057579E0,-1.504487246E-1,3.161516786E-1,9.955216392E0
3.183760162E0,9.968199730E0,-1.453639716E-1,3.281157911E-1,9.974657714E0
3.186205214E0,9.929914474E0,-1.528415531E-1,3.496512175E-1,9.937243983E0
3.188649433E0,9.944272041E0,-1.504487246E-1,3.520440459E-1,9.951638873E0
3.191092922E0,9.944272041E0,-1.480558962E-1,3.424727321E-1,9.951268992E0
3.193537141E0,9.956235886E0,-1.480558962E-1,3.065803945E-1,9.962055265E0
3.195982297E0,9.956235886E0,-1.405783296E-1,3.305086195E-1,9.962712042E0
3.198426516E0,9.946664810E0,-1.480558962E-1,3.257229924E-1,9.953097853E0
3.200869953E0,9.953843117E0,-1.504487246E-1,3.352942765E-1,9.960624974E0
3.203314276E0,9.951450348E0,-1.528415531E-1,3.400799036E-1,9.958432553E0
3.205759328E0,9.939486504E0,-1.671984792E-1,3.520440459E-1,9.947124323E0
3.208203547E0,9.961021423E0,-1.695913076E-1,3.329014480E-1,9.968025501E0
3.210647037E0,9.941879272E0,-1.429711580E-1,3.281157911E-1,9.948319667E0
3.213091360E0,9.934700966E0,-1.310070455E-1,3.376871049E-1,9.941301661E0
3.215536412E0,9.941879272E0,-1.504487246E-1,3.520440459E-1,9.949247876E0
3.217980630E0,9.956235886E0,-1.528415531E-1,3.448655605E-1,9.963379236E0
3.220424120E0,9.941879272E0,-1.600200087E-1,3.424727321E-1,9.949063144E0
3.222868443E0,9.944272041E0,-1.528415531E-1,3.161516786E-1,9.950470283E0
3.225313495E0,9.941879272E0,-1.695913076E-1,3.568296731E-1,9.949726232E0
3.227757714E0,9.934700966E0,-1.600200087E-1,3.448655605E-1,9.941972739E0
3.230201151E0,9.934700966E0,-1.671984792E-1,3.352942765E-1,9.941763469E0
3.232645474E0,9.917950630E0,-1.911267042E-1,3.352942765E-1,9.925456986E0
3.235090578E0,9.941879272E0,-1.648056656E-1,3.400799036E-1,9.949059188E0
3.237534745E0,9.934700966E0,-1.671984792E-1,3.448655605E-1,9.942090870E0
3.239978235E0,9.941879272E0,-1.743769497E-1,3.496512175E-1,9.949554099E0
3.242422558E0,9.927521706E0,-1.719841212E-1,3.352942765E-1,9.934671006E0
3.244867610E0,9.941879272E0,-1.552343667E-1,3.568296731E-1,9.949491876E0
3.247311828E0,9.939486504E0,-1.719841212E-1,3.376871049E-1,9.946708153E0
3.249755318E0,9.941879272E0,-1.552343667E-1,3.568296731E-1,9.949491876E0
3.252199641E0,9.944272041E0,-1.528415531E-1,3.305086195E-1,9.950936786E0
3.254644693E0,9.963414192E0,-1.552343667E-1,3.376871049E-1,9.970343658E0
3.257088912E0,9.934700966E0,-1.504487246E-1,3.400799036E-1,9.941658435E0
3.259532401E0,9.922736168E0,-1.528415531E-1,3.161516786E-1,9.928947854E0
3.261976724E0,9.939486504E0,-1.504487246E-1,3.400799036E-1,9.946440625E0
3.264421776E0,9.934700966E0,-1.695913076E-1,3.376871049E-1,9.941884986E0
3.266865995E0,9.946664810E0,-1.576271951E-1,3.472583890E-1,9.953972853E0
3.269309433E0,9.949057579E0,-1.528415531E-1,3.376871049E-1,9.955960016E0
3.271753755E0,9.953843117E0,-1.576271951E-1,3.520440459E-1,9.961313876E0
3.274198860E0,9.939486504E0,-1.552343667E-1,3.281157911E-1,9.946112288E0
3.276643026E0,9.937093735E0,-1.480558962E-1,3.209373355E-1,9.943377355E0
3.279086516E0,9.934700966E0,-1.453639716E-1,3.424727321E-1,9.941664928E0
3.281530839E0,9.946664810E0,-1.453639716E-1,3.376871049E-1,9.953456893E0
3.283975891E0,9.949057579E0,-1.648056656E-1,3.448655605E-1,9.956396932E0
3.286420110E0,9.944272041E0,-1.552343667E-1,3.329014480E-1,9.951053588E0
3.288863599E0,9.961021423E0,-1.624128371E-1,3.592225015E-1,9.968819716E0
3.291307922E0,9.946664810E0,-1.719841212E-1,3.352942765E-1,9.953800361E0
3.293752974E0,9.937093735E0,-1.600200087E-1,3.329014480E-1,9.943956037E0
3.296197193E0,9.965806961E0,-1.576271951E-1,3.568296731E-1,9.973438832E0
3.298640683E0,9.949057579E0,-1.767697781E-1,3.448655605E-1,9.956602157E0
3.301084901E0,9.949057579E0,-1.624128371E-1,3.496512175E-1,9.956524525E0
3.303530058E0,9.932307243E0,-1.453639716E-1,3.448655605E-1,9.939355619E0
3.305974276E0,9.946664810E0,-1.453639716E-1,3.376871049E-1,9.953456893E0
3.308417714E0,9.968199730E0,-1.528415531E-1,3.664009571E-1,9.976102248E0
3.310862037E0,9.941879272E0,-1.552343667E-1,3.544368446E-1,9.949406347E0
3.313307089E0,9.939486504E0,-1.504487246E-1,3.424727321E-1,9.946522726E0
3.315751308E0,9.937093735E0,-1.453639716E-1,3.257229924E-1,9.943493252E0
3.318194797E0,9.951450348E0,-1.624128371E-1,3.352942765E-1,9.958421773E0
3.320639120E0,9.937093735E0,-1.504487246E-1,3.448655605E-1,9.944214346E0
3.323084172E0,9.934700966E0,-1.504487246E-1,3.257229924E-1,9.941177675E0
3.325528391E0,9.951450348E0,-1.576271951E-1,3.281157911E-1,9.958105760E0
3.327971880E0,9.951450348E0,-1.600200087E-1,3.209373355E-1,9.957909982E0
3.330416203E0,9.951450348E0,-1.671984792E-1,3.257229924E-1,9.958183310E0
3.332861255E0,9.941879272E0,-1.624128371E-1,3.400799036E-1,9.949019838E0
3.335305474E0,9.956235886E0,-1.453639716E-1,3.472583890E-1,9.963350445E0
3.337748912E0,9.941879272E0,-1.480558962E-1,3.520440459E-1,9.949211980E0
3.340193235E0,9.937093735E0,-1.480558962E-1,3.400799036E-1,9.944013615E0
3.342638339E0,9.951450348E0,-1.671984792E-1,3.496512175E-1,9.958994695E0
3.345082558E0,9.939486504E0,-1.648056656E-1,3.496512175E-1,9.946999992E0
3.347525995E0,9.944272041E0,-1.552343667E-1,3.424727321E-1,9.951378383E0
3.349970318E0,9.956235886E0,-1.552343667E-1,3.352942765E-1,9.963089529E0
3.352415370E0,9.956235886E0,-1.528415531E-1,3.352942765E-1,9.963052534E0
3.354859589E0,9.939486504E0,-1.429711580E-1,3.376871049E-1,9.946248805E0
3.357303078E0,9.958628654E0,-1.600200087E-1,3.568296731E-1,9.966304154E0
3.359747401E0,9.941879272E0,-1.576271951E-1,3.448655605E-1,9.949107601E0
3.362192453E0,9.946664810E0,-1.624128371E-1,3.376871049E-1,9.953720478E0
3.364636672E0,9.946664810E0,-1.429711580E-1,3.472583890E-1,9.953751553E0
3.367080162E0,9.920343399E0,-1.600200087E-1,3.400799036E-1,9.927460597E0
3.369524485E0,9.941879272E0,-1.767697781E-1,3.305086195E-1,9.948942003E0
3.371969537E0,9.958628654E0,-1.671984792E-1,3.376871049E-1,9.965754993E0
3.374413755E0,9.958628654E0,-1.600200087E-1,3.305086195E-1,9.965396481E0
3.376857193E0,9.927521706E0,-1.453639716E-1,3.424727321E-1,9.934490700E0
3.379301516E0,9.951450348E0,-1.576271951E-1,3.281157911E-1,9.958105760E0
3.381746568E0,9.937093735E0,-1.624128371E-1,3.352942765E-1,9.944075225E0
3.384190787E0,9.951450348E0,-1.528415531E-1,3.376871049E-1,9.958351126E0
3.386634276E0,9.949057579E0,-1.552343667E-1,3.592225015E-1,9.956750736E0
3.389078599E0,9.937093735E0,-1.648056656E-1,3.281157911E-1,9.943875139E0
3.391523651E0,9.932307243E0,-1.671984792E-1,3.209373355E-1,9.938897488E0
3.393967870E0,9.927521706E0,-1.504487246E-1,3.305086195E-1,9.934161161E0
3.396411360E0,9.939486504E0,-1.357926875E-1,3.329014480E-1,9.945986878E0
3.398855683E0,9.951450348E0,-1.552343667E-1,3.472583890E-1,9.958717293E0
3.401300735E0,9.951450348E0,-1.576271951E-1,3.089732230E-1,9.957493400E0
3.403744953E0,9.946664810E0,-1.576271951E-1,3.257229924E-1,9.953244830E0
3.406188443E0,9.956235886E0,-1.695913076E-1,3.472583890E-1,9.963733367E0
3.408632662E0,9.941879272E0,-1.528415531E-1,3.472583890E-1,9.949116162E0
3.411077818E0,9.941879272E0,-1.504487246E-1,3.472583890E-1,9.949079690E0
3.413522037E0,9.949057579E0,-1.480558962E-1,3.233301640E-1,9.955411074E0
3.415965474E0,9.939486504E0,-1.719841212E-1,3.281157911E-1,9.946387810E0
3.418409797E0,9.961021423E0,-1.453639716E-1,3.424727321E-1,9.967966997E0
3.420854849E0,9.956235886E0,-1.504487246E-1,3.448655605E-1,9.963342817E0
3.423299068E0,9.963414192E0,-1.576271951E-1,3.592225015E-1,9.971133812E0
3.425742558E0,9.922736168E0,-1.480558962E-1,3.257229924E-1,9.929184713E0
3.428186880E0,9.939486504E0,-1.624128371E-1,3.305086195E-1,9.946306140E0
3.430631933E0,9.949057579E0,-1.528415531E-1,3.209373355E-1,9.955405970E0
3.433076151E0,9.932307243E0,-1.695913076E-1,3.329014480E-1,9.939331555E0
3.435519641E0,9.934700966E0,-1.743769497E-1,3.352942765E-1,9.941886785E0
3.437963964E0,9.934700966E0,-1.671984792E-1,3.520440459E-1,9.942342462E0
3.440409016E0,9.925128937E0,-1.767697781E-1,3.496512175E-1,9.932859001E0
3.442853235E0,9.922736168E0,-1.624128371E-1,3.233301640E-1,9.929330963E0
3.445296672E0,9.932307243E0,-1.429711580E-1,3.185445070E-1,9.938442460E0
3.447740995E0,9.929914474E0,-1.381855011E-1,3.257229924E-1,9.936216190E0
3.450186099E0,9.953843117E0,-1.552343667E-1,3.400799036E-1,9.960860648E0
3.452630318E0,9.946664810E0,-1.624128371E-1,3.496512175E-1,9.954133551E0
3.455073755E0,9.949057579E0,-1.528415531E-1,3.592225015E-1,9.956713718E0
3.457518078E0,9.946664810E0,-1.600200087E-1,3.305086195E-1,9.953440772E0
3.459963130E0,9.934700966E0,-1.719841212E-1,3.209373355E-1,9.941371263E0
3.462407349E0,9.951450348E0,-1.576271951E-1,3.472583890E-1,9.958754879E0
3.464850839E0,9.961021423E0,-1.528415531E-1,3.352942765E-1,9.967834799E0
3.467295162E0,9.958628654E0,-1.576271951E-1,3.329014480E-1,9.965437993E0
3.469740214E0,9.941879272E0,-1.480558962E-1,3.329014480E-1,9.948553030E0
3.472184433E0,9.939486504E0,-1.552343667E-1,3.448655605E-1,9.946678939E0
3.474627922E0,9.941879272E0,-1.552343667E-1,3.329014480E-1,9.948662450E0
3.477072245E0,9.951450348E0,-1.648056656E-1,3.352942765E-1,9.958461085E0
3.479517297E0,9.956235886E0,-1.405783296E-1,3.424727321E-1,9.963116121E0
3.481961516E0,9.970592499E0,-1.648056656E-1,3.448655605E-1,9.977916012E0
3.484404953E0,9.937093735E0,-1.719841212E-1,3.472583890E-1,9.944646742E0
3.486849276E0,9.961021423E0,-1.453639716E-1,3.472583890E-1,9.968132567E0
3.489294380E0,9.925128937E0,-1.528415531E-1,3.520440459E-1,9.932546499E0
3.491738547E0,9.925128937E0,-1.453639716E-1,3.329014480E-1,9.931774185E0
3.494182037E0,9.937093735E0,-1.429711580E-1,3.233301640E-1,9.943380463E0
3.496626360E0,9.937093735E0,-1.552343667E-1,3.305086195E-1,9.943800357E0
3.499071412E0,9.953843117E0,-1.528415531E-1,3.448655605E-1,9.960988183E0
3.501515630E0,9.941879272E0,-1.453639716E-1,3.496512175E-1,9.949087904E0
3.503959120E0,9.949057579E0,-1.695913076E-1,3.281157911E-1,9.955911204E0
3.506403443E0,9.951450348E0,-1.624128371E-1,3.329014480E-1,9.958341495E0
3.508848495E0,9.946664810E0,-1.576271951E-1,3.305086195E-1,9.953402590E0
3.511292714E0,9.949057579E0,-1.671984792E-1,3.281157911E-1,9.955870731E0
3.513736203E0,9.946664810E0,-1.504487246E-1,3.496512175E-1,9.953945531E0
3.516180526E0,9.929914474E0,-1.429711580E-1,3.424727321E-1,9.936847075E0
3.518625578E0,9.917950630E0,-1.695913076E-1,3.520440459E-1,9.925645618E0
3.521069797E0,9.939486504E0,-1.357926875E-1,3.400799036E-1,9.946229735E0
3.523513235E0,9.949057579E0,-1.552343667E-1,3.400799036E-1,9.956078483E0
3.525957558E0,9.946664810E0,-1.743769497E-1,3.424727321E-1,9.954086384E0
3.528402662E0,9.932307243E0,-1.504487246E-1,3.448655605E-1,9.939431284E0
3.530846828E0,9.946664810E0,-1.695913076E-1,3.496512175E-1,9.954253263E0
3.533290318E0,9.937093735E0,-1.648056656E-1,3.352942765E-1,9.944114594E0
3.535734641E0,9.944272041E0,-1.552343667E-1,3.496512175E-1,9.951628013E0
3.538179693E0,9.934700966E0,-1.405783296E-1,3.209373355E-1,9.940877543E0
3.540623912E0,9.956235886E0,-1.504487246E-1,3.400799036E-1,9.963178317E0
3.543067401E0,9.944272041E0,-1.552343667E-1,3.281157911E-1,9.950894639E0
3.545511724E0,9.944272041E0,-1.480558962E-1,3.448655605E-1,9.951351629E0
3.547956776E0,9.937093735E0,-1.695913076E-1,3.424727321E-1,9.944439686E0
3.550400995E0,9.929914474E0,-1.576271951E-1,3.329014480E-1,9.936743490E0
3.552844433E0,9.946664810E0,-1.624128371E-1,3.496512175E-1,9.954133551E0
3.555288755E0,9.939486504E0,-1.552343667E-1,3.209373355E-1,9.945878063E0
3.557733860E0,9.939486504E0,-1.671984792E-1,3.209373355E-1,9.946071991E0
3.560178078E0,9.946664810E0,-1.504487246E-1,3.329014480E-1,9.953371240E0
3.562621516E0,9.944272041E0,-1.286142170E-1,3.161516786E-1,9.950127634E0
3.565065839E0,9.920343399E0,-1.453639716E-1,3.257229924E-1,9.926753714E0
3.567510891E0,9.937093735E0,-1.600200087E-1,3.352942765E-1,9.944036431E0
3.569955110E0,9.944272041E0,-1.671984792E-1,3.352942765E-1,9.951327751E0
3.572398599E0,9.941879272E0,-1.600200087E-1,3.281157911E-1,9.948579288E0
3.574842922E0,9.946664810E0,-1.405783296E-1,3.305086195E-1,9.953147194E0
3.577287974E0,9.953843117E0,-1.671984792E-1,3.329014480E-1,9.960811789E0
3.579732193E0,9.944272041E0,-1.504487246E-1,3.496512175E-1,9.951554513E0
3.582175683E0,9.951450348E0,-1.552343667E-1,3.400799036E-1,9.958469565E0
3.584620005E0,9.927521706E0,-1.648056656E-1,3.520440459E-1,9.935128743E0
3.587065058E0,9.925128937E0,-1.480558962E-1,3.496512175E-1,9.932389488E0
3.589509276E0,9.944272041E0,-1.648056656E-1,3.281157911E-1,9.951048553E0
3.591952714E0,9.939486504E0,-1.600200087E-1,3.400799036E-1,9.946590004E0
3.594397037E0,9.939486504E0,-1.453639716E-1,3.329014480E-1,9.946122160E0
3.596842141E0,9.939486504E0,-1.528415531E-1,3.496512175E-1,9.946808959E0
3.599286308E0,9.953843117E0,-1.405783296E-1,3.472583890E-1,9.960890696E0
3.601729797E0,9.946664810E0,-1.480558962E-1,3.520440459E-1,9.953993993E0
3.604174120E0,9.934700966E0,-1.671984792E-1,3.329014480E-1,9.941683056E0
3.606619172E0,9.953843117E0,-1.600200087E-1,3.352942765E-1,9.960774139E0
3.609063391E0,9.949057579E0,-1.624128371E-1,3.424727321E-1,9.956275017E0
3.611506880E0,9.937093735E0,-1.504487246E-1,3.305086195E-1,9.943726799E0
3.613951203E0,9.956235886E0,-1.528415531E-1,3.616153300E-1,9.963973063E0
3.616396255E0,9.961021423E0,-1.648056656E-1,3.281157911E-1,9.967786548E0
3.618840474E0,9.946664810E0,-1.453639716E-1,3.544368446E-1,9.954039231E0
3.621283964E0,9.961021423E0,-1.671984792E-1,3.209373355E-1,9.967592683E0
3.623728287E0,9.953843117E0,-1.600200087E-1,3.520440459E-1,9.961352027E0
3.626173339E0,9.939486504E0,-1.576271951E-1,3.376871049E-1,9.946470272E0
3.628617558E0,9.958628654E0,-1.648056656E-1,3.472583890E-1,9.966044048E0
3.631060995E0,9.961021423E0,-1.528415531E-1,3.448655605E-1,9.968161345E0
3.633505318E0,9.949057579E0,-1.600200087E-1,3.352942765E-1,9.955991933E0
3.635950370E0,9.920343399E0,-1.695913076E-1,3.448655605E-1,9.927784578E0
3.638394589E0,9.941879272E0,-1.576271951E-1,3.496512175E-1,9.949274636E0
3.640838078E0,9.927521706E0,-1.429711580E-1,3.424727321E-1,9.934455976E0
3.643282401E0,9.934700966E0,-1.429711580E-1,3.257229924E-1,9.941067322E0
3.645727453E0,9.958628654E0,-1.719841212E-1,3.424727321E-1,9.965999739E0
3.648171672E0,9.941879272E0,-1.648056656E-1,3.568296731E-1,9.949645812E0
3.650615162E0,9.949057579E0,-1.767697781E-1,3.448655605E-1,9.956602157E0
3.653059485E0,9.946664810E0,-1.576271951E-1,3.305086195E-1,9.953402590E0
3.655504537E0,9.944272041E0,-1.357926875E-1,3.376871049E-1,9.950930543E0
3.657948755E0,9.934700966E0,-1.552343667E-1,3.448655605E-1,9.941896864E0
3.660392245E0,9.925128937E0,-1.552343667E-1,3.592225015E-1,9.932840627E0
3.662836464E0,9.922736168E0,-1.671984792E-1,3.305086195E-1,9.929646738E0
3.665281620E0,9.934700966E0,-1.528415531E-1,3.496512175E-1,9.942026946E0
3.667725839E0,9.937093735E0,-1.528415531E-1,3.400799036E-1,9.944086020E0
3.670169276E0,9.939486504E0,-1.600200087E-1,3.281157911E-1,9.946188131E0
3.672613599E0,9.941879272E0,-1.405783296E-1,3.281157911E-1,9.948285566E0
3.675058651E0,9.958628654E0,-1.695913076E-1,3.520440459E-1,9.966292234E0
3.677502870E0,9.963414192E0,-1.671984792E-1,3.472583890E-1,9.970865864E0
3.679946360E0,9.934700966E0,-1.648056656E-1,3.305086195E-1,9.941563264E0
3.682390683E0,9.946664810E0,-1.405783296E-1,3.424727321E-1,9.953551662E0
3.684835735E0,9.937093735E0,-1.528415531E-1,3.352942765E-1,9.943923506E0
3.687279953E0,9.927521706E0,-1.552343667E-1,3.281157911E-1,9.934155470E0
3.689723443E0,9.946664810E0,-1.552343667E-1,3.329014480E-1,9.953444727E0
3.692167766E0,9.941879272E0,-1.576271951E-1,3.305086195E-1,9.948620294E0
3.694612818E0,9.929914474E0,-1.504487246E-1,3.233301640E-1,9.936316153E0
3.697057037E0,9.958628654E0,-1.624128371E-1,3.376871049E-1,9.965675852E0
3.699500474E0,9.956235886E0,-1.429711580E-1,3.352942765E-1,9.962906002E0
3.701944797E0,9.934700966E0,-1.576271951E-1,3.209373355E-1,9.941133255E0
3.704389901E0,9.953843117E0,-1.767697781E-1,3.592225015E-1,9.961891445E0
3.706834120E0,9.929914474E0,-1.624128371E-1,3.424727321E-1,9.937145816E0
3.709277558E0,9.946664810E0,-1.429711580E-1,3.305086195E-1,9.953181278E0
3.711721880E0,9.956235886E0,-1.552343667E-1,3.400799036E-1,9.963251731E0
3.714166933E0,9.944272041E0,-1.429711580E-1,3.520440459E-1,9.951528636E0
3.716611151E0,9.963414192E0,-1.600200087E-1,3.496512175E-1,9.970831698E0
3.719054641E0,9.937093735E0,-1.405783296E-1,3.352942765E-1,9.943742576E0
3.721498964E0,9.958628654E0,-1.671984792E-1,3.305086195E-1,9.965514335E0
3.723944016E0,9.949057579E0,-1.504487246E-1,3.257229924E-1,9.955524948E0
3.726388235E0,9.946664810E0,-1.480558962E-1,3.424727321E-1,9.953660079E0
3.728831724E0,9.944272041E0,-1.429711580E-1,3.257229924E-1,9.950632274E0
3.731275943E0,9.939486504E0,-1.453639716E-1,3.448655605E-1,9.946529792E0
3.733721099E0,9.939486504E0,-1.600200087E-1,3.520440459E-1,9.947006252E0
3.736165318E0,9.915557861E0,-1.552343667E-1,3.257229924E-1,9.922120785E0
3.738608755E0,9.953843117E0,-1.600200087E-1,3.257229924E-1,9.960456549E0
3.741053078E0,9.944272041E0,-1.648056656E-1,3.496512175E-1,9.951781916E0
3.743498130E0,9.939486504E0,-1.695913076E-1,3.376871049E-1,9.946667067E0
3.745942349E0,9.929914474E0,-1.767697781E-1,3.209373355E-1,9.936671968E0
3.748385839E0,9.937093735E0,-1.552343667E-1,3.329014480E-1,9.943880177E0
3.750830162E0,9.934700966E0,-1.839482337E-1,3.400799036E-1,9.942221813E0
3.753275214E0,9.944272041E0,-1.695913076E-1,3.329014480E-1,9.951287907E0
3.755719433E0,9.946664810E0,-1.695913076E-1,3.520440459E-1,9.954337601E0
3.758162922E0,9.951450348E0,-1.552343667E-1,3.424727321E-1,9.958551567E0
3.760607245E0,9.949057579E0,-1.624128371E-1,3.424727321E-1,9.956275017E0
3.763052297E0,9.956235886E0,-1.624128371E-1,3.257229924E-1,9.962886450E0
3.765496516E0,9.934700966E0,-1.504487246E-1,3.448655605E-1,9.941823291E0
3.767939953E0,9.941879272E0,-1.624128371E-1,3.400799036E-1,9.949019838E0
3.770384276E0,9.932307243E0,-1.480558962E-1,3.400799036E-1,9.939230456E0
3.772829380E0,9.941879272E0,-1.480558962E-1,3.472583890E-1,9.949043794E0
3.775273599E0,9.944272041E0,-1.671984792E-1,3.257229924E-1,9.951009860E0
3.777717037E0,9.939486504E0,-1.695913076E-1,3.496512175E-1,9.947080433E0
3.780161360E0,9.927521706E0,-1.453639716E-1,3.305086195E-1,9.934085456E0
3.782606412E0,9.941879272E0,-1.767697781E-1,3.520440459E-1,9.949680700E0
3.785050630E0,9.941879272E0,-1.719841212E-1,3.400799036E-1,9.949180687E0
3.787494120E0,9.939486504E0,-1.719841212E-1,3.113660514E-1,9.945849351E0
3.789938443E0,9.956235886E0,-1.405783296E-1,3.376871049E-1,9.962952768E0
3.792383495E0,9.934700966E0,-1.576271951E-1,3.424727321E-1,9.941851799E0
3.794827714E0,9.941879272E0,-1.671984792E-1,3.376871049E-1,9.949017609E0
3.797271203E0,9.934700966E0,-1.600200087E-1,3.376871049E-1,9.941726322E0
3.799715526E0,9.961021423E0,-1.671984792E-1,3.329014480E-1,9.967985077E0
3.802160578E0,9.951450348E0,-1.648056656E-1,3.544368446E-1,9.959123978E0
3.804604797E0,9.946664810E0,-1.453639716E-1,3.329014480E-1,9.953295681E0
3.807048235E0,9.949057579E0,-1.719841212E-1,3.376871049E-1,9.956272286E0
3.809492558E0,9.937093735E0,-1.695913076E-1,3.352942765E-1,9.944195058E0
3.811937662E0,9.927521706E0,-1.600200087E-1,3.185445070E-1,9.933919882E0
3.814381880E0,9.956235886E0,-1.528415531E-1,3.352942765E-1,9.963052534E0
3.816825318E0,9.951450348E0,-1.480558962E-1,3.376871049E-1,9.958278825E0
3.819269641E0,9.958628654E0,-1.429711580E-1,3.544368446E-1,9.965959608E0
3.821714693E0,9.958628654E0,-1.405783296E-1,3.400799036E-1,9.965425294E0
3.824158912E0,9.937093735E0,-1.600200087E-1,3.376871049E-1,9.944117401E0
3.826602401E0,9.944272041E0,-1.600200087E-1,3.759722710E-1,9.952663361E0
3.829046724E0,9.958628654E0,-1.600200087E-1,3.329014480E-1,9.965476128E0
3.831491776E0,9.946664810E0,-1.576271951E-1,3.352942765E-1,9.953562650E0
3.833935995E0,9.953843117E0,-1.576271951E-1,3.640081584E-1,9.961743877E0
3.836379485E0,9.949057579E0,-1.671984792E-1,3.448655605E-1,9.956436827E0
3.838823808E0,9.932307243E0,-1.624128371E-1,3.281157911E-1,9.939052524E0
3.841268860E0,9.929914474E0,-1.552343667E-1,3.329014480E-1,9.936705820E0
3.843713078E0,9.915557861E0,-1.528415531E-1,3.400799036E-1,9.922565323E0
3.846156516E0,9.939486504E0,-1.576271951E-1,3.281157911E-1,9.946149921E0
3.848600839E0,9.956235886E0,-1.695913076E-1,3.376871049E-1,9.963404378E0
3.851045891E0,9.932307243E0,-1.600200087E-1,3.472583890E-1,9.939664077E0
3.853490110E0,9.953843117E0,-1.552343667E-1,3.424727321E-1,9.960942630E0
3.855933599E0,9.961021423E0,-1.600200087E-1,3.352942765E-1,9.967947454E0
3.858377922E0,9.965806961E0,-1.333998591E-1,3.329014480E-1,9.972257883E0
3.860822974E0,9.951450348E0,-1.528415531E-1,3.496512175E-1,9.958764007E0
3.863267193E0,9.944272041E0,-1.429711580E-1,3.352942765E-1,9.950950178E0
3.865710683E0,9.949057579E0,-1.648056656E-1,3.209373355E-1,9.955596838E0
3.868155005E0,9.951450348E0,-1.552343667E-1,3.257229924E-1,9.957989617E0
3.870600058E0,9.937093735E0,-1.624128371E-1,3.400799036E-1,9.944237737E0
3.873044276E0,9.929914474E0,-1.528415531E-1,3.448655605E-1,9.937076746E0
3.875487714E0,9.932307243E0,-1.671984792E-1,3.640081584E-1,9.940381504E0
3.877932037E0,9.958628654E0,-1.624128371E-1,3.400799036E-1,9.965757219E0
3.880377141E0,9.937093735E0,-1.429711580E-1,3.472583890E-1,9.944187299E0
3.882821360E0,9.941879272E0,-1.480558962E-1,3.352942765E-1,9.948633387E0
3.885264797E0,9.934700966E0,-1.480558962E-1,3.424727321E-1,9.941704653E0
3.887709120E0,9.944272041E0,-1.600200087E-1,3.448655605E-1,9.951536821E0
3.890154172E0,9.956235886E0,-1.624128371E-1,3.352942765E-1,9.963203962E0
3.892598391E0,9.958628654E0,-1.600200087E-1,3.233301640E-1,9.965160986E0
3.895041880E0,9.944272041E0,-1.624128371E-1,3.305086195E-1,9.951088398E0
3.897486203E0,9.932307243E0,-1.528415531E-1,3.257229924E-1,9.938822022E0
3.899931255E0,9.939486504E0,-1.576271951E-1,3.233301640E-1,9.945993197E0
3.902375474E0,9.925128937E0,-1.429711580E-1,3.257229924E-1,9.931501429E0
3.904818964E0,9.929914474E0,-1.576271951E-1,3.352942765E-1,9.936823942E0
3.907263287E0,9.937093735E0,-1.552343667E-1,3.305086195E-1,9.943800357E0
3.909708339E0,9.929914474E0,-1.528415531E-1,3.448655605E-1,9.937076746E0
3.912152558E0,9.953843117E0,-1.576271951E-1,3.400799036E-1,9.960898226E0
3.914595995E0,9.946664810E0,-1.648056656E-1,3.424727321E-1,9.953923313E0
3.917040318E0,9.929914474E0,-1.600200087E-1,3.257229924E-1,9.936543833E0
3.919485422E0,9.944272041E0,-1.552343667E-1,3.329014480E-1,9.951053588E0
3.921929641E0,9.961021423E0,-1.480558962E-1,3.376871049E-1,9.967843344E0
3.924373078E0,9.934700966E0,-1.600200087E-1,3.400799036E-1,9.941807885E0
3.926817401E0,9.944272041E0,-1.576271951E-1,3.424727321E-1,9.951415997E0
3.929262453E0,9.944272041E0,-1.453639716E-1,3.496512175E-1,9.951478940E0
3.931706672E0,9.949057579E0,-1.695913076E-1,3.448655605E-1,9.956477298E0
3.934150162E0,9.944272041E0,-1.552343667E-1,3.544368446E-1,9.951797306E0
3.936594485E0,9.961021423E0,-1.429711580E-1,3.448655605E-1,9.968014888E0
3.939039537E0,9.941879272E0,-1.429711580E-1,3.544368446E-1,9.949222567E0
3.941483755E0,9.927521706E0,-1.552343667E-1,3.448655605E-1,9.934722803E0
3.943927245E0,9.937093735E0,-1.600200087E-1,3.400799036E-1,9.944198944E0
3.946371568E0,9.920343399E0,-1.357926875E-1,3.592225015E-1,9.927773850E0
3.948816620E0,9.920343399E0,-1.333998591E-1,3.305086195E-1,9.926743909E0
3.951260839E0,9.946664810E0,-1.671984792E-1,3.472583890E-1,9.954129021E0
3.953704276E0,9.932307243E0,-1.695913076E-1,3.520440459E-1,9.939991117E0
3.956148599E0,9.944272041E0,-1.429711580E-1,3.185445070E-1,9.950399881E0
3.958593703E0,9.953843117E0,-1.552343667E-1,3.281157911E-1,9.960459351E0
3.961037922E0,9.961021423E0,-1.576271951E-1,3.496512175E-1,9.968402585E0
3.963481360E0,9.937093735E0,-1.600200087E-1,3.568296731E-1,9.944785856E0
3.965925683E0,9.949057579E0,-1.504487246E-1,3.496512175E-1,9.956336550E0
3.968370735E0,9.961021423E0,-1.600200087E-1,3.400799036E-1,9.968109577E0
3.970814953E0,9.941879272E0,-1.576271951E-1,3.472583890E-1,9.949190831E0
3.973258443E0,9.939486504E0,-1.600200087E-1,3.496512175E-1,9.946921852E0
3.975702766E0,9.956235886E0,-1.576271951E-1,3.329014480E-1,9.963046859E0
3.978147818E0,9.951450348E0,-1.600200087E-1,3.305086195E-1,9.958223053E0
3.980592037E0,9.956235886E0,-1.381855011E-1,3.352942765E-1,9.962838476E0
3.983035526E0,9.937093735E0,-1.695913076E-1,3.352942765E-1,9.944195058E0
3.985479849E0,9.939486504E0,-1.381855011E-1,3.185445070E-1,9.945549648E0
3.987924901E0,9.922736168E0,-1.695913076E-1,3.520440459E-1,9.930427447E0
3.990369120E0,9.932307243E0,-1.719841212E-1,3.520440459E-1,9.940032230E0
3.992812558E0,9.939486504E0,-1.671984792E-1,3.424727321E-1,9.946790179E0
3.995256880E0,9.953843117E0,-1.767697781E-1,3.496512175E-1,9.961550899E0
3.997701933E0,9.953843117E0,-1.624128371E-1,3.281157911E-1,9.960573814E0
4.000146151E0,9.939486504E0,-1.528415531E-1,3.305086195E-1,9.946154455E0
4.002589641E0,9.937093735E0,-1.624128371E-1,3.448655605E-1,9.944402550E0
4.005033964E0,9.932307243E0,-1.600200087E-1,3.185445070E-1,9.938702339E0
4.007479016E0,9.956235886E0,-1.600200087E-1,3.400799036E-1,9.963327444E0
4.009923235E0,9.956235886E0,-1.719841212E-1,3.305086195E-1,9.963204680E0
4.012366724E0,9.932307243E0,-1.405783296E-1,3.352942765E-1,9.938959286E0
4.014811047E0,9.961021423E0,-1.429711580E-1,3.400799036E-1,9.967850465E0
4.017256099E0,9.944272041E0,-1.504487246E-1,3.352942765E-1,9.951060421E0
4.019700318E0,9.953843117E0,-1.480558962E-1,3.424727321E-1,9.960833344E0
4.022143808E0,9.944272041E0,-1.576271951E-1,3.448655605E-1,9.951498632E0
