"Time (s)","Acceleration x (m/s^2)","Acceleration y (m/s^2)","Acceleration z (m/s^2)","Absolute acceleration (m/s^2)"
2.412443500E-2,5.443671346E-2,-1.262213886E-1,9.832706451E0,9.833667238E0
2.656808100E-2,5.204389244E-2,-1.286142170E-1,9.854242325E0,9.855219022E0
2.901256000E-2,5.204389244E-2,-1.214357466E-1,9.892526627E0,9.893408829E0
3.145704000E-2,6.400800496E-2,-1.357926875E-1,9.861420631E0,9.862563234E0
3.390141500E-2,6.161518395E-2,-1.333998591E-1,9.856635094E0,9.857730333E0
3.634672700E-2,6.640082598E-2,-1.576271951E-1,9.885348320E0,9.886827945E0
3.879037300E-2,7.118647546E-2,-1.357926875E-1,9.868598938E0,9.869789875E0
4.123485200E-2,7.357929647E-2,-1.166501045E-1,9.854242325E0,9.855207403E0
4.368011200E-2,7.836493850E-2,-1.046859920E-1,9.859027863E0,9.859895061E0
4.612370600E-2,8.793623000E-2,-1.333998591E-1,9.890133858E0,9.891424368E0
4.856823700E-2,9.511470050E-2,-9.750752151E-2,9.863813400E0,9.864753890E0
5.101271700E-2,7.357929647E-2,-1.094716340E-1,9.856635094E0,9.857517604E0
5.345709200E-2,8.315058798E-2,-9.990034252E-2,9.875777245E0,9.876632538E0
5.590240400E-2,9.990034252E-2,-9.750752151E-2,9.880562782E0,9.881548901E0
5.834599800E-2,8.554340899E-2,-9.511470050E-2,9.906884193E0,9.907710074E0
6.079052900E-2,9.990034252E-2,-8.075776696E-2,9.880562782E0,9.881397816E0
6.323579000E-2,9.272187948E-2,-8.315058798E-2,9.923633575E0,9.924415081E0
6.567938300E-2,8.554340899E-2,-7.357929647E-2,9.885348320E0,9.885992262E0
6.812391500E-2,8.793623000E-2,-8.793623000E-2,9.880562782E0,9.881345377E0
7.056829000E-2,8.075776696E-2,-9.990034252E-2,9.906884193E0,9.907717008E0
7.301282100E-2,9.990034252E-2,-5.682953820E-2,9.863813400E0,9.864482980E0
7.545808100E-2,8.075776696E-2,-7.597211748E-2,9.897313118E0,9.897934155E0
7.790167500E-2,9.032905847E-2,-7.118647546E-2,9.873384476E0,9.874054277E0
8.034620600E-2,8.075776696E-2,-8.315058798E-2,9.835099220E0,9.835782252E0
8.279146700E-2,5.922235921E-2,-8.793623000E-2,9.863813400E0,9.864383147E0
8.523506000E-2,6.640082598E-2,-1.022931710E-1,9.873384476E0,9.874137632E0
8.767959200E-2,6.400800496E-2,-9.990034252E-2,9.859027863E0,9.859741756E0
9.012396700E-2,8.075776696E-2,-1.046859920E-1,9.844670296E0,9.845558095E0
9.256849800E-2,6.400800496E-2,-1.142572835E-1,9.885348320E0,9.886215816E0
9.501375800E-2,6.400800496E-2,-1.238285750E-1,9.885348320E0,9.886331066E0
9.745735200E-2,6.400800496E-2,-1.190429255E-1,9.856635094E0,9.857561748E0
9.990183100E-2,6.640082598E-2,-1.214357466E-1,9.882955551E0,9.883924632E0
1.023470920E-1,7.118647546E-2,-1.310070455E-1,9.873384476E0,9.874510184E0
1.047907370E-1,6.640082598E-2,-1.118644550E-1,9.854242325E0,9.855100939E0
1.072352170E-1,5.204389244E-2,-1.310070455E-1,9.878170013E0,9.879175787E0
1.096796960E-1,5.922235921E-2,-1.286142170E-1,9.882955551E0,9.883969816E0
1.121241750E-1,6.400800496E-2,-1.333998591E-1,9.859027863E0,9.860138079E0
1.145693830E-1,4.247260094E-2,-1.118644550E-1,9.854242325E0,9.854968766E0
1.170130290E-1,6.400800496E-2,-1.214357466E-1,9.878170013E0,9.879123771E0
1.194575080E-1,6.161518395E-2,-9.990034252E-2,9.890133858E0,9.890830311E0
1.219027690E-1,6.400800496E-2,-9.990034252E-2,9.887741089E0,9.888452910E0
1.243464150E-1,6.161518395E-2,-8.075776696E-2,9.870991707E0,9.871514348E0
1.267908940E-1,6.400800496E-2,-8.315058798E-2,9.899705887E0,9.900262001E0
1.292353730E-1,7.357929647E-2,-8.315058798E-2,9.885348320E0,9.885971846E0
1.316797480E-1,7.118647546E-2,-7.597211748E-2,9.899705887E0,9.900253326E0
1.341250600E-1,5.682953820E-2,-8.075776696E-2,9.899705887E0,9.900198385E0
1.365686540E-1,7.597211748E-2,-9.272187948E-2,9.875777245E0,9.876504710E0
1.390131850E-1,7.357929647E-2,-8.793623000E-2,9.882955551E0,9.883620648E0
1.414584460E-1,5.922235921E-2,-9.032905847E-2,9.892526627E0,9.893116278E0
1.439020400E-1,5.204389244E-2,-9.511470050E-2,9.904491425E0,9.905084843E0
1.463465710E-1,9.032905847E-2,-8.075776696E-2,9.875777245E0,9.876520508E0
1.487909460E-1,6.640082598E-2,-8.315058798E-2,9.885348320E0,9.885921024E0
1.512354770E-1,8.075776696E-2,-9.511470050E-2,9.885348320E0,9.886135748E0
1.536807370E-1,7.597211748E-2,-1.118644550E-1,9.875777245E0,9.876702972E0
1.561243310E-1,6.640082598E-2,-8.554340899E-2,9.887741089E0,9.888334065E0
1.585688620E-1,6.879365444E-2,-1.094716340E-1,9.854242325E0,9.855090482E0
1.610141230E-1,8.075776696E-2,-9.511470050E-2,9.880562782E0,9.881350592E0
1.634577170E-1,6.879365444E-2,-1.094716340E-1,9.873384476E0,9.874230988E0
1.659022480E-1,5.922235921E-2,-1.022931710E-1,9.870991707E0,9.871699370E0
1.683466230E-1,5.922235921E-2,-9.272187948E-2,9.894919395E0,9.895531036E0
1.707911540E-1,7.597211748E-2,-1.094716340E-1,9.875777245E0,9.876676161E0
1.732364150E-1,7.118647546E-2,-1.357926875E-1,9.863813400E0,9.865004915E0
1.756800080E-1,6.400800496E-2,-1.262213886E-1,9.844670296E0,9.845687487E0
1.781245400E-1,8.315058798E-2,-1.142572835E-1,9.880562782E0,9.881573237E0
1.805697480E-1,7.836493850E-2,-1.310070455E-1,9.882955551E0,9.884134476E0
1.830133940E-1,7.597211748E-2,-1.238285750E-1,9.873384476E0,9.874453214E0
1.854578730E-1,6.879365444E-2,-1.046859920E-1,9.861420631E0,9.862216211E0
1.879023520E-1,5.922235921E-2,-1.118644550E-1,9.868598938E0,9.869410618E0
1.903468310E-1,6.400800496E-2,-1.142572835E-1,9.887741089E0,9.888608375E0
1.927920400E-1,7.118647546E-2,-1.142572835E-1,9.875777245E0,9.876694712E0
1.952356850E-1,8.075776696E-2,-8.793623000E-2,9.887741089E0,9.888461884E0
1.976801650E-1,8.554340899E-2,-9.272187948E-2,9.861420631E0,9.862227532E0
2.001254250E-1,6.879365444E-2,-1.022931710E-1,9.866206169E0,9.866976266E0
2.025690710E-1,6.161518395E-2,-1.118644550E-1,9.870991707E0,9.871817835E0
2.050135500E-1,5.922235921E-2,-9.032905847E-2,9.873384476E0,9.873975270E0
2.074580290E-1,5.682953820E-2,-8.793623000E-2,9.859027863E0,9.859583803E0
2.099024040E-1,5.682953820E-2,-1.046859920E-1,9.885348320E0,9.886065960E0
2.123477170E-1,5.443671346E-2,-8.793623000E-2,9.899705887E0,9.900246097E0
2.147913100E-1,9.272187948E-2,-8.793623000E-2,9.887741089E0,9.888566831E0
2.172358420E-1,6.640082598E-2,-9.272187948E-2,9.875777245E0,9.876435724E0
2.196811020E-1,6.400800496E-2,-9.511470050E-2,9.885348320E0,9.886013111E0
2.221246960E-1,8.075776696E-2,-1.022931710E-1,9.892526627E0,9.893385102E0
2.245692270E-1,9.511470050E-2,-8.315058798E-2,9.863813400E0,9.864622427E0
2.270136020E-1,7.357929647E-2,-1.118644550E-1,9.875777245E0,9.876684856E0
2.294581330E-1,8.075776696E-2,-8.554340899E-2,9.870991707E0,9.871692700E0
2.319033940E-1,7.118647546E-2,-9.750752151E-2,9.878170013E0,9.878907735E0
2.343469870E-1,9.272187948E-2,-9.032905847E-2,9.878170013E0,9.879018145E0
2.367915190E-1,9.032905847E-2,-9.750752151E-2,9.880562782E0,9.881456773E0
2.392367790E-1,8.793623000E-2,-9.990034252E-2,9.873384476E0,9.874281435E0
2.416803730E-1,7.597211748E-2,-9.272187948E-2,9.880562782E0,9.881289896E0
2.441249040E-1,7.118647546E-2,-1.118644550E-1,9.873384476E0,9.874274767E0
2.465692790E-1,8.075776696E-2,-1.142572835E-1,9.880562782E0,9.881553392E0
2.490138100E-1,7.357929647E-2,-1.094716340E-1,9.878170013E0,9.879050600E0
2.514590710E-1,7.118647546E-2,-1.118644550E-1,9.890133858E0,9.891022641E0
2.539026650E-1,7.118647546E-2,-1.070788130E-1,9.887741089E0,9.888577108E0
2.563471960E-1,8.554340899E-2,-1.166501045E-1,9.861420631E0,9.862481523E0
2.587924560E-1,7.118647546E-2,-1.070788130E-1,9.875777245E0,9.876614277E0
2.612360500E-1,9.032905847E-2,-1.238285750E-1,9.849455833E0,9.850648358E0
2.636805290E-1,6.879365444E-2,-1.070788130E-1,9.885348320E0,9.886167602E0
2.661250080E-1,8.554340899E-2,-1.214357466E-1,9.873384476E0,9.874501776E0
2.685694870E-1,6.879365444E-2,-9.990034252E-2,9.870991707E0,9.871736925E0
2.710147480E-1,7.597211748E-2,-1.046859920E-1,9.878170013E0,9.879016840E0
2.734583420E-1,6.640082598E-2,-1.166501045E-1,9.870991707E0,9.871904254E0
2.759028210E-1,5.682953820E-2,-9.032905847E-2,9.890133858E0,9.890709614E0
2.783480810E-1,7.836493850E-2,-9.511470050E-2,9.866206169E0,9.866975831E0
2.807917270E-1,8.315058798E-2,-9.750752151E-2,9.878170013E0,9.879001192E0
2.832362060E-1,6.879365444E-2,-1.046859920E-1,9.885348320E0,9.886141974E0
2.856806850E-1,6.640082598E-2,-9.511470050E-2,9.878170013E0,9.878851081E0
2.881250600E-1,4.965107143E-2,-8.315058798E-2,9.870991707E0,9.871466787E0
2.905703730E-1,8.075776696E-2,-9.990034252E-2,9.866206169E0,9.867042417E0
2.930140190E-1,7.118647546E-2,-9.990034252E-2,9.890133858E0,9.890894566E0
2.954584980E-1,6.640082598E-2,-9.032905847E-2,9.878170013E0,9.878806164E0
2.979037580E-1,6.400800496E-2,-7.357929647E-2,9.890133858E0,9.890614676E0
3.003473520E-1,8.793623000E-2,-1.046859920E-1,9.875777245E0,9.876723552E0
3.027918830E-1,8.315058798E-2,-9.032905847E-2,9.902098656E0,9.902859746E0
3.052363620E-1,4.247260094E-2,-1.022931710E-1,9.875777245E0,9.876398331E0
3.076807370E-1,5.682953820E-2,-1.166501045E-1,9.887741089E0,9.888592452E0
3.101260500E-1,4.965107143E-2,-1.166501045E-1,9.866206169E0,9.867020657E0
3.125696440E-1,5.922235921E-2,-9.511470050E-2,9.873384476E0,9.874020210E0
3.150141750E-1,6.640082598E-2,-1.238285750E-1,9.863813400E0,9.864814108E0
3.174594350E-1,8.315058798E-2,-1.094716340E-1,9.863813400E0,9.864771303E0
3.199030290E-1,4.725824669E-2,-1.142572835E-1,9.856635094E0,9.857410585E0
3.223475600E-1,4.725824669E-2,-1.070788130E-1,9.849455833E0,9.850151239E0
3.247919350E-1,5.922235921E-2,-1.046859920E-1,9.868598938E0,9.869331864E0
3.272364670E-1,7.118647546E-2,-1.190429255E-1,9.873384476E0,9.874358700E0
3.296817270E-1,6.640082598E-2,-8.793623000E-2,9.859027863E0,9.859643617E0
3.321253210E-1,7.597211748E-2,-1.022931710E-1,9.880562782E0,9.881384344E0
3.345698520E-1,7.836493850E-2,-1.118644550E-1,9.882955551E0,9.883899289E0
3.370151120E-1,7.357929647E-2,-1.022931710E-1,9.880562782E0,9.881366237E0
3.394587060E-1,8.075776696E-2,-9.990034252E-2,9.868598938E0,9.869434984E0
3.419032370E-1,8.075776696E-2,-9.750752151E-2,9.887741089E0,9.888551632E0
3.443476120E-1,7.836493850E-2,-1.118644550E-1,9.863813400E0,9.864758969E0
3.467921440E-1,6.640082598E-2,-9.990034252E-2,9.880562782E0,9.881290910E0
3.492374040E-1,8.315058798E-2,-9.032905847E-2,9.873384476E0,9.874147779E0
3.516809980E-1,7.118647546E-2,-1.238285750E-1,9.878170013E0,9.879202592E0
3.541254770E-1,5.443671346E-2,-8.793623000E-2,9.890133858E0,9.890674591E0
3.565707370E-1,6.400800496E-2,-6.879365444E-2,9.904491425E0,9.904937151E0
3.590143830E-1,7.597211748E-2,-9.272187948E-2,9.897313118E0,9.898039001E0
3.614588620E-1,7.597211748E-2,-8.793623000E-2,9.878170013E0,9.878853545E0
3.639033420E-1,8.315058798E-2,-8.554340899E-2,9.878170013E0,9.878890348E0
3.663477170E-1,8.315058798E-2,-1.022931710E-1,9.882955551E0,9.883834698E0
3.687930290E-1,8.075776696E-2,-9.990034252E-2,9.866206169E0,9.867042417E0
3.712366750E-1,7.836493850E-2,-1.046859920E-1,9.892526627E0,9.893390889E0
3.736811540E-1,5.682953820E-2,-1.046859920E-1,9.878170013E0,9.878888175E0
3.761264150E-1,7.118647546E-2,-9.750752151E-2,9.870991707E0,9.871729965E0
3.785700600E-1,8.554340899E-2,-1.094716340E-1,9.870991707E0,9.871969357E0
3.810145400E-1,6.640082598E-2,-8.554340899E-2,9.870991707E0,9.871585689E0
3.834590190E-1,7.836493850E-2,-1.070788130E-1,9.878170013E0,9.879061178E0
3.859033940E-1,8.075776696E-2,-1.022931710E-1,9.868598938E0,9.869459494E0
3.883487060E-1,8.554340899E-2,-1.118644550E-1,9.868598938E0,9.869603656E0
3.907923000E-1,6.161518395E-2,-1.142572835E-1,9.873384476E0,9.874237802E0
3.932368310E-1,5.682953820E-2,-9.511470050E-2,9.890133858E0,9.890754477E0
3.956820920E-1,9.511470050E-2,-8.554340899E-2,9.878170013E0,9.878998294E0
3.981256850E-1,7.118647546E-2,-1.190429255E-1,9.887741089E0,9.888713899E0
4.005702170E-1,5.922235921E-2,-9.990034252E-2,9.878170013E0,9.878852675E0
4.030145920E-1,8.075776696E-2,-1.262213886E-1,9.882955551E0,9.884091465E0
4.054591230E-1,7.836493850E-2,-9.750752151E-2,9.894919395E0,9.895710112E0
4.079043830E-1,4.965107143E-2,-1.142572835E-1,9.873384476E0,9.874170394E0
4.103479770E-1,4.247260094E-2,-1.118644550E-1,9.863813400E0,9.864539136E0
4.127925080E-1,5.922235921E-2,-8.793623000E-2,9.866206169E0,9.866775777E0
4.152377690E-1,6.879365444E-2,-1.094716340E-1,9.902098656E0,9.902942714E0
4.176813620E-1,7.118647546E-2,-1.022931710E-1,9.870991707E0,9.871778395E0
4.201258940E-1,4.965107143E-2,-1.118644550E-1,9.873384476E0,9.874142995E0
4.225702690E-1,5.682953820E-2,-1.070788130E-1,9.892526627E0,9.893269355E0
4.250148000E-1,6.640082598E-2,-9.032905847E-2,9.863813400E0,9.864450477E0
4.274600600E-1,6.161518395E-2,-1.022931710E-1,9.866206169E0,9.866928828E0
4.299036540E-1,7.357929647E-2,-1.094716340E-1,9.880562782E0,9.881443156E0
4.323481850E-1,5.922235921E-2,-9.990034252E-2,9.882955551E0,9.883637882E0
4.347933940E-1,7.357929647E-2,-9.272187948E-2,9.897313118E0,9.898020924E0
4.372370400E-1,8.793623000E-2,-1.118644550E-1,9.878170013E0,9.879194767E0
4.396815190E-1,9.032905847E-2,-9.511470050E-2,9.897313118E0,9.898182313E0
4.421259980E-1,7.118647546E-2,-1.118644550E-1,9.873384476E0,9.874274767E0
4.445704770E-1,6.161518395E-2,-1.118644550E-1,9.870991707E0,9.871817835E0
4.470156850E-1,7.597211748E-2,-8.315058798E-2,9.875777245E0,9.876419491E0
4.494593310E-1,8.315058798E-2,-9.750752151E-2,9.866206169E0,9.867038355E0
4.519038100E-1,9.032905847E-2,-1.046859920E-1,9.859027863E0,9.859997408E0
4.543490710E-1,8.075776696E-2,-9.032905847E-2,9.866206169E0,9.866950153E0
4.567927170E-1,5.682953820E-2,-1.022931710E-1,9.902098656E0,9.902790075E0
4.592371960E-1,7.836493850E-2,-1.046859920E-1,9.892526627E0,9.893390889E0
4.616816750E-1,5.682953820E-2,-1.094716340E-1,9.885348320E0,9.886117794E0
4.641260500E-1,8.315058798E-2,-9.990034252E-2,9.882955551E0,9.883810223E0
4.665713620E-1,7.836493850E-2,-9.511470050E-2,9.878170013E0,9.878938743E0
4.690149560E-1,6.400800496E-2,-1.118644550E-1,9.861420631E0,9.862262801E0
4.714594870E-1,7.836493850E-2,-9.990034252E-2,9.875777245E0,9.876593407E0
4.739047480E-1,6.400800496E-2,-1.118644550E-1,9.880562782E0,9.881403320E0
4.763483420E-1,5.204389244E-2,-7.597211748E-2,9.885348320E0,9.885777245E0
4.787928730E-1,7.836493850E-2,-1.142572835E-1,9.870991707E0,9.871963992E0
4.812372480E-1,7.597211748E-2,-9.990034252E-2,9.870991707E0,9.871789560E0
4.836817790E-1,8.315058798E-2,-1.022931710E-1,9.868598938E0,9.869479364E0
4.861270400E-1,7.118647546E-2,-1.118644550E-1,9.856635094E0,9.857526898E0
4.885706330E-1,7.357929647E-2,-1.070788130E-1,9.863813400E0,9.864669005E0
4.910151650E-1,5.682953820E-2,-1.166501045E-1,9.885348320E0,9.886199889E0
4.934604250E-1,6.640082598E-2,-1.118644550E-1,9.875777245E0,9.876633987E0
4.959040190E-1,5.922235921E-2,-9.990034252E-2,9.868598938E0,9.869282262E0
4.983485500E-1,4.965107143E-2,-9.750752151E-2,9.887741089E0,9.888346514E0
5.007929250E-1,5.922235921E-2,-1.118644550E-1,9.897313118E0,9.898122443E0
5.032374560E-1,6.879365444E-2,-1.094716340E-1,9.868598938E0,9.869445861E0
5.056827170E-1,8.793623000E-2,-1.022931710E-1,9.885348320E0,9.886268663E0
5.081263100E-1,6.879365444E-2,-9.990034252E-2,9.882955551E0,9.883699868E0
5.105708420E-1,6.640082598E-2,-1.118644550E-1,9.887741089E0,9.888596795E0
5.130160500E-1,9.272187948E-2,-8.315058798E-2,9.882955551E0,9.883740273E0
5.154596960E-1,5.443671346E-2,-9.511470050E-2,9.861420631E0,9.862029559E0
5.179041750E-1,5.922235921E-2,-8.075776696E-2,9.880562782E0,9.881070286E0
5.203486540E-1,6.400800496E-2,-8.554340899E-2,9.866206169E0,9.866784627E0
5.227931330E-1,9.032905847E-2,-1.094716340E-1,9.878170013E0,9.879189551E0
5.252383940E-1,5.922235921E-2,-1.118644550E-1,9.875777245E0,9.876588334E0
5.276819870E-1,7.357929647E-2,-9.750752151E-2,9.875777245E0,9.876532682E0
5.301264670E-1,7.357929647E-2,-1.022931710E-1,9.863813400E0,9.864618219E0
5.325717270E-1,8.315058798E-2,-9.511470050E-2,9.859027863E0,9.859837282E0
5.350153730E-1,9.032905847E-2,-1.046859920E-1,9.868598938E0,9.869567543E0
5.374598520E-1,9.272187948E-2,-9.272187948E-2,9.880562782E0,9.881432871E0
5.399043310E-1,6.640082598E-2,-9.990034252E-2,9.873384476E0,9.874113132E0
5.423487060E-1,7.118647546E-2,-8.793623000E-2,9.899705887E0,9.900352364E0
5.447940190E-1,7.118647546E-2,-1.094716340E-1,9.892526627E0,9.893388429E0
5.472376650E-1,9.990034252E-2,-1.046859920E-1,9.882955551E0,9.884014855E0
5.496821440E-1,8.075776696E-2,-1.070788130E-1,9.904491425E0,9.905399440E0
5.521274040E-1,7.836493850E-2,-1.070788130E-1,9.870991707E0,9.871883519E0
5.545709980E-1,6.161518395E-2,-9.511470050E-2,9.882955551E0,9.883605297E0
5.570155290E-1,6.879365444E-2,-9.511470050E-2,9.866206169E0,9.866904456E0
5.594600080E-1,8.075776696E-2,-9.032905847E-2,9.880562782E0,9.881305686E0
5.619043830E-1,6.640082598E-2,-1.118644550E-1,9.887741089E0,9.888596795E0
5.643496960E-1,6.879365444E-2,-9.750752151E-2,9.880562782E0,9.881283377E0
5.667932900E-1,4.725824669E-2,-9.750752151E-2,9.878170013E0,9.878764289E0
5.692378210E-1,8.075776696E-2,-9.032905847E-2,9.882955551E0,9.883698275E0
5.716830810E-1,6.640082598E-2,-9.750752151E-2,9.880562782E0,9.881267008E0
5.741266750E-1,6.161518395E-2,-9.750752151E-2,9.875777245E0,9.876450796E0
5.765712060E-1,6.879365444E-2,-9.511470050E-2,9.870991707E0,9.871689655E0
5.790155810E-1,6.161518395E-2,-1.022931710E-1,9.894919395E0,9.895639957E0
5.814601120E-1,8.315058798E-2,-9.032905847E-2,9.873384476E0,9.874147779E0
5.839053730E-1,6.640082598E-2,-9.032905847E-2,9.878170013E0,9.878806164E0
5.863489670E-1,5.682953820E-2,-9.750752151E-2,9.885348320E0,9.885992551E0
5.887934980E-1,6.640082598E-2,-1.094716340E-1,9.885348320E0,9.886177447E0
5.912387060E-1,8.075776696E-2,-1.118644550E-1,9.868598938E0,9.869563337E0
5.936823520E-1,6.640082598E-2,-1.046859920E-1,9.878170013E0,9.878947871E0
5.961268830E-1,6.640082598E-2,-1.022931710E-1,9.866206169E0,9.866959873E0
5.985712580E-1,9.032905847E-2,-1.094716340E-1,9.868598938E0,9.869619465E0
6.010157900E-1,6.640082598E-2,-9.272187948E-2,9.863813400E0,9.864472678E0
6.034609980E-1,5.204389244E-2,-1.046859920E-1,9.887741089E0,9.888432210E0
6.059046440E-1,7.357929647E-2,-1.070788130E-1,9.878170013E0,9.879024375E0
6.083491230E-1,6.879365444E-2,-9.990034252E-2,9.887741089E0,9.888485045E0
6.107943830E-1,7.357929647E-2,-1.022931710E-1,9.880562782E0,9.881366237E0
6.132380290E-1,8.075776696E-2,-1.046859920E-1,9.880562782E0,9.881447357E0
6.156825080E-1,7.597211748E-2,-9.511470050E-2,9.861420631E0,9.862171943E0
6.181269870E-1,8.075776696E-2,-9.750752151E-2,9.878170013E0,9.878981342E0
6.205714670E-1,7.357929647E-2,-1.070788130E-1,9.885348320E0,9.886202061E0
6.230166750E-1,9.511470050E-2,-9.750752151E-2,9.894919395E0,9.895856929E0
6.254603210E-1,8.554340899E-2,-7.597211748E-2,9.887741089E0,9.888402969E0
6.279048000E-1,7.836493850E-2,-1.022931710E-1,9.887741089E0,9.888580727E0
6.303500600E-1,7.836493850E-2,-1.046859920E-1,9.863813400E0,9.864680178E0
6.327936540E-1,7.836493850E-2,-9.990034252E-2,9.866206169E0,9.867023123E0
6.352381850E-1,8.554340899E-2,-9.272187948E-2,9.854242325E0,9.855049813E0
6.376826650E-1,8.075776696E-2,-1.190429255E-1,9.873384476E0,9.874432340E0
6.401270400E-1,6.161518395E-2,-9.990034252E-2,9.866206169E0,9.866904311E0
6.425723520E-1,4.965107143E-2,-1.046859920E-1,9.854242325E0,9.854923449E0
6.450159460E-1,6.640082598E-2,-1.046859920E-1,9.863813400E0,9.864592390E0
6.474604770E-1,6.879365444E-2,-1.094716340E-1,9.868598938E0,9.869445861E0
6.499057370E-1,7.597211748E-2,-8.793623000E-2,9.882955551E0,9.883638751E0
6.523493310E-1,7.597211748E-2,-1.046859920E-1,9.880562782E0,9.881409404E0
6.547938620E-1,5.682953820E-2,-8.793623000E-2,9.851848602E0,9.852404948E0
6.572382370E-1,8.075776696E-2,-1.046859920E-1,9.882955551E0,9.883839912E0
6.596827690E-1,7.597211748E-2,-1.022931710E-1,9.885348320E0,9.886169484E0
6.621280290E-1,6.161518395E-2,-9.750752151E-2,9.885348320E0,9.886021220E0
6.645716230E-1,7.597211748E-2,-1.094716340E-1,9.873384476E0,9.874283610E0
6.670161540E-1,7.118647546E-2,-9.272187948E-2,9.892526627E0,9.893217268E0
6.694614150E-1,6.879365444E-2,-9.750752151E-2,9.892526627E0,9.893246350E0
6.719050080E-1,8.075776696E-2,-9.272187948E-2,9.868598938E0,9.869364932E0
6.743494870E-1,6.640082598E-2,-7.836493850E-2,9.887741089E0,9.888274570E0
6.767939670E-1,7.836493850E-2,-9.272187948E-2,9.875777245E0,9.876523406E0
6.792384460E-1,9.272187948E-2,-9.511470050E-2,9.899705887E0,9.900596992E0
6.816837060E-1,8.075776696E-2,-8.315058798E-2,9.897313118E0,9.897991857E0
6.841273000E-1,6.400800496E-2,-9.272187948E-2,9.861420631E0,9.862064248E0
6.865717790E-1,7.118647546E-2,-1.046859920E-1,9.887741089E0,9.888551487E0
6.890170920E-1,7.836493850E-2,-9.990034252E-2,9.861420631E0,9.862237982E0
6.914606850E-1,9.272187948E-2,-1.046859920E-1,9.868598938E0,9.869589733E0
6.939051650E-1,6.400800496E-2,-1.046859920E-1,9.875777245E0,9.876539493E0
6.963496440E-1,7.597211748E-2,-9.272187948E-2,9.863813400E0,9.864541748E0
6.987940190E-1,6.400800496E-2,-1.022931710E-1,9.878170013E0,9.878907011E0
7.012393310E-1,5.922235921E-2,-9.032905847E-2,9.890133858E0,9.890723652E0
7.036829770E-1,6.879365444E-2,-1.070788130E-1,9.870991707E0,9.871812180E0
7.061274560E-1,5.922235921E-2,-1.094716340E-1,9.894919395E0,9.895702156E0
7.085727170E-1,7.118647546E-2,-1.094716340E-1,9.863813400E0,9.864677711E0
7.110163620E-1,6.400800496E-2,-1.118644550E-1,9.868598938E0,9.869440495E0
7.134608420E-1,7.118647546E-2,-9.272187948E-2,9.863813400E0,9.864506052E0
7.159053210E-1,6.640082598E-2,-8.554340899E-2,9.863813400E0,9.864407815E0
7.183496960E-1,8.793623000E-2,-8.075776696E-2,9.882955551E0,9.883676696E0
7.207950080E-1,6.400800496E-2,-1.118644550E-1,9.894919395E0,9.895758714E0
7.232386020E-1,4.965107143E-2,-1.094716340E-1,9.875777245E0,9.876508768E0
7.256831330E-1,9.032905847E-2,-1.022931710E-1,9.887741089E0,9.888682777E0
7.281283940E-1,7.357929647E-2,-1.166501045E-1,9.859027863E0,9.859992472E0
7.305719870E-1,7.597211748E-2,-1.094716340E-1,9.882955551E0,9.883853815E0
7.330165190E-1,6.161518395E-2,-1.238285750E-1,9.868598938E0,9.869568124E0
7.354609980E-1,6.161518395E-2,-9.750752151E-2,9.882955551E0,9.883628614E0
7.379053730E-1,7.118647546E-2,-9.750752151E-2,9.868598938E0,9.869337375E0
7.403506850E-1,7.836493850E-2,-8.315058798E-2,9.878170013E0,9.878830796E0
7.427942790E-1,7.597211748E-2,-1.118644550E-1,9.875777245E0,9.876702972E0
7.452388100E-1,6.161518395E-2,-9.272187948E-2,9.873384476E0,9.874012091E0
7.476840710E-1,8.554340899E-2,-8.315058798E-2,9.882955551E0,9.883675537E0
7.501276650E-1,5.922235921E-2,-8.315058798E-2,9.868598938E0,9.869126927E0
7.525721960E-1,6.400800496E-2,-1.094716340E-1,9.904491425E0,9.905303198E0
7.550165710E-1,5.682953820E-2,-1.190429255E-1,9.882955551E0,9.883835857E0
7.574611020E-1,7.357929647E-2,-1.022931710E-1,9.892526627E0,9.893329109E0
7.599063620E-1,7.836493850E-2,-1.166501045E-1,9.890133858E0,9.891132192E0
7.623499560E-1,6.161518395E-2,-1.214357466E-1,9.887741089E0,9.888678724E0
7.647944870E-1,5.682953820E-2,-1.094716340E-1,9.885348320E0,9.886117794E0
7.672396960E-1,8.315058798E-2,-1.046859920E-1,9.856635094E0,9.857541709E0
7.696833420E-1,8.075776696E-2,-1.142572835E-1,9.861420631E0,9.862413164E0
7.721278210E-1,7.357929647E-2,-9.750752151E-2,9.873384476E0,9.874140096E0
7.745723000E-1,6.640082598E-2,-9.990034252E-2,9.885348320E0,9.886076095E0
7.770167790E-1,7.118647546E-2,-1.022931710E-1,9.870991707E0,9.871778395E0
7.794619870E-1,7.118647546E-2,-9.511470050E-2,9.861420631E0,9.862136239E0
7.819056330E-1,8.554340899E-2,-9.032905847E-2,9.868598938E0,9.869383061E0
7.843501120E-1,7.118647546E-2,-9.990034252E-2,9.890133858E0,9.890894566E0
7.867953730E-1,9.990034252E-2,-1.070788130E-1,9.870991707E0,9.872077959E0
7.892389670E-1,6.879365444E-2,-1.094716340E-1,9.856635094E0,9.857483045E0
7.916834980E-1,8.075776696E-2,-1.190429255E-1,9.882955551E0,9.884002401E0
7.941279770E-1,8.315058798E-2,-1.046859920E-1,9.923633575E0,9.924534071E0
7.965723520E-1,8.075776696E-2,-9.750752151E-2,9.899705887E0,9.900515450E0
7.990176650E-1,7.118647546E-2,-9.032905847E-2,9.875777245E0,9.876446883E0
8.014612580E-1,9.032905847E-2,-9.750752151E-2,9.899705887E0,9.900598149E0
8.039057900E-1,8.554340899E-2,-1.118644550E-1,9.868598938E0,9.869603656E0
8.063510500E-1,7.357929647E-2,-1.046859920E-1,9.885348320E0,9.886176434E0
8.087946440E-1,7.597211748E-2,-9.750752151E-2,9.904491425E0,9.905262735E0
8.112391750E-1,8.554340899E-2,-9.511470050E-2,9.885348320E0,9.886175999E0
8.136835500E-1,7.357929647E-2,-1.118644550E-1,9.887741089E0,9.888647603E0
8.161280810E-1,7.357929647E-2,-9.511470050E-2,9.863813400E0,9.864546392E0
8.185733420E-1,7.597211748E-2,-1.094716340E-1,9.866206169E0,9.867105957E0
8.210169350E-1,7.118647546E-2,-1.046859920E-1,9.880562782E0,9.881373769E0
8.234614670E-1,6.161518395E-2,-9.032905847E-2,9.882955551E0,9.883560401E0
8.259067270E-1,7.597211748E-2,-1.046859920E-1,9.882955551E0,9.883801968E0
8.283503210E-1,7.836493850E-2,-1.118644550E-1,9.885348320E0,9.886291829E0
8.307948520E-1,5.922235921E-2,-9.032905847E-2,9.882955551E0,9.883545773E0
8.332392270E-1,6.161518395E-2,-1.118644550E-1,9.875777245E0,9.876602972E0
8.356837580E-1,8.315058798E-2,-1.022931710E-1,9.861420631E0,9.862301698E0
8.381290190E-1,7.118647546E-2,-9.750752151E-2,9.873384476E0,9.874122555E0
8.405726120E-1,5.682953820E-2,-1.022931710E-1,9.859027863E0,9.859722303E0
8.430171440E-1,7.118647546E-2,-1.070788130E-1,9.868598938E0,9.869436579E0
8.454623520E-1,7.357929647E-2,-1.118644550E-1,9.870991707E0,9.871899759E0
8.479059980E-1,4.965107143E-2,-8.793623000E-2,9.878170013E0,9.878686189E0
8.503504770E-1,5.204389244E-2,-9.750752151E-2,9.854242325E0,9.854862154E0
8.527949560E-1,7.836493850E-2,-9.272187948E-2,9.873384476E0,9.874130818E0
8.552394350E-1,6.879365444E-2,-9.990034252E-2,9.887741089E0,9.888485045E0
8.576846440E-1,8.075776696E-2,-1.070788130E-1,9.856635094E0,9.857547517E0
8.601282900E-1,5.204389244E-2,-1.022931710E-1,9.868598938E0,9.869266308E0
8.625727690E-1,8.315058798E-2,-1.046859920E-1,9.875777245E0,9.876682103E0
8.650180290E-1,5.682953820E-2,-8.075776696E-2,9.885348320E0,9.885841533E0
8.674616750E-1,6.400800496E-2,-9.750752151E-2,9.870991707E0,9.871680810E0
8.699061540E-1,6.400800496E-2,-1.046859920E-1,9.890133858E0,9.890895000E0
8.723506330E-1,5.682953820E-2,-9.272187948E-2,9.878170013E0,9.878768636E0
8.747950080E-1,7.836493850E-2,-9.750752151E-2,9.863813400E0,9.864606610E0
8.772403210E-1,6.400800496E-2,-8.554340899E-2,9.863813400E0,9.864391998E0
8.796839670E-1,7.836493850E-2,-8.793623000E-2,9.863813400E0,9.864516645E0
8.821284460E-1,8.315058798E-2,-7.597211748E-2,9.880562782E0,9.881204718E0
8.845737060E-1,5.682953820E-2,-9.272187948E-2,9.880562782E0,9.881161260E0
8.870173000E-1,7.836493850E-2,-8.793623000E-2,9.873384476E0,9.874087039E0
8.894618310E-1,6.400800496E-2,-1.190429255E-1,9.890133858E0,9.891057374E0
8.919063100E-1,8.793623000E-2,-9.990034252E-2,9.875777245E0,9.876673987E0
8.943506850E-1,6.161518395E-2,-9.511470050E-2,9.892526627E0,9.893175744E0
8.967959980E-1,8.554340899E-2,-9.032905847E-2,9.875777245E0,9.876560798E0
8.992395920E-1,7.118647546E-2,-8.793623000E-2,9.863813400E0,9.864462230E0
9.016841230E-1,8.793623000E-2,-1.333998591E-1,9.873384476E0,9.874677175E0
9.041293830E-1,8.315058798E-2,-9.511470050E-2,9.878170013E0,9.878977864E0
9.065729770E-1,8.315058798E-2,-9.750752151E-2,9.892526627E0,9.893356599E0
9.090175080E-1,5.922235921E-2,-9.750752151E-2,9.851848602E0,9.852509116E0
9.114618830E-1,8.793623000E-2,-1.094716340E-1,9.861420631E0,9.862420275E0
9.139064150E-1,6.161518395E-2,-9.990034252E-2,9.868598938E0,9.869296911E0
9.163516750E-1,6.161518395E-2,-8.315058798E-2,9.885348320E0,9.885890039E0
9.187952690E-1,6.640082598E-2,-9.990034252E-2,9.887741089E0,9.888468688E0
9.212398000E-1,8.793623000E-2,-1.166501045E-1,9.885348320E0,9.886427638E0
9.236850600E-1,9.511470050E-2,-1.022931710E-1,9.870991707E0,9.871979942E0
9.261286540E-1,8.075776696E-2,-1.046859920E-1,9.870991707E0,9.871877139E0
9.285731330E-1,7.357929647E-2,-8.554340899E-2,9.878170013E0,9.878814423E0
9.310176120E-1,7.597211748E-2,-1.142572835E-1,9.866206169E0,9.867160213E0
9.334620920E-1,7.118647546E-2,-9.511470050E-2,9.892526627E0,9.893239984E0
9.359073000E-1,7.357929647E-2,-9.272187948E-2,9.878170013E0,9.878879191E0
9.383509460E-1,6.161518395E-2,-1.214357466E-1,9.870991707E0,9.871930933E0
9.407954250E-1,7.118647546E-2,-1.022931710E-1,9.870991707E0,9.871778395E0
9.432406850E-1,8.315058798E-2,-1.142572835E-1,9.870991707E0,9.872003141E0
9.456843310E-1,5.443671346E-2,-9.511470050E-2,9.880562782E0,9.881170531E0
9.481288100E-1,8.793623000E-2,-1.070788130E-1,9.902098656E0,9.903068032E0
9.505732900E-1,9.032905847E-2,-1.070788130E-1,9.875777245E0,9.876770798E0
9.530176650E-1,8.315058798E-2,-9.990034252E-2,9.894919395E0,9.895773034E0
9.554629770E-1,6.879365444E-2,-9.032905847E-2,9.873384476E0,9.874037316E0
9.579066230E-1,6.161518395E-2,-1.022931710E-1,9.887741089E0,9.888462174E0
9.603511020E-1,7.357929647E-2,-9.511470050E-2,9.859027863E0,9.859761210E0
9.627963620E-1,5.443671346E-2,-1.022931710E-1,9.878170013E0,9.878849633E0
9.652399560E-1,9.032905847E-2,-1.022931710E-1,9.866206169E0,9.867149913E0
9.676844870E-1,6.879365444E-2,-7.836493850E-2,9.861420631E0,9.861971938E0
9.701289670E-1,6.161518395E-2,-1.094716340E-1,9.866206169E0,9.867005860E0
9.725733420E-1,7.357929647E-2,-1.022931710E-1,9.882955551E0,9.883758811E0
9.750186540E-1,8.554340899E-2,-1.046859920E-1,9.866206169E0,9.867132360E0
9.774622480E-1,7.118647546E-2,-1.166501045E-1,9.870991707E0,9.871937603E0
9.799067790E-1,6.640082598E-2,-1.046859920E-1,9.861420631E0,9.862199810E0
9.823520400E-1,6.879365444E-2,-9.750752151E-2,9.894919395E0,9.895638945E0
9.847956330E-1,7.597211748E-2,-9.511470050E-2,9.890133858E0,9.890882989E0
9.872401650E-1,7.597211748E-2,-1.118644550E-1,9.890133858E0,9.891058242E0
9.896845400E-1,8.793623000E-2,-1.094716340E-1,9.897313118E0,9.898309137E0
9.921290710E-1,8.075776696E-2,-1.022931710E-1,9.894919395E0,9.895777663E0
9.945743310E-1,6.640082598E-2,-1.022931710E-1,9.890133858E0,9.890885738E0
9.970179250E-1,8.793623000E-2,-7.836493850E-2,9.844670296E0,9.845374908E0
9.994624560E-1,7.836493850E-2,-8.793623000E-2,9.868598938E0,9.869301842E0
1.001907717E0,8.075776696E-2,-9.750752151E-2,9.873384476E0,9.874196197E0
1.004351310E0,9.032905847E-2,-9.511470050E-2,9.880562782E0,9.881433451E0
1.006795842E0,7.836493850E-2,-9.032905847E-2,9.873384476E0,9.874108639E0
1.009240217E0,6.640082598E-2,-9.990034252E-2,9.866206169E0,9.866935356E0
1.011684748E0,7.597211748E-2,-1.190429255E-1,9.866206169E0,9.867216789E0
1.014130008E0,6.400800496E-2,-1.022931710E-1,9.849455833E0,9.850194979E0
1.016573602E0,5.922235921E-2,-1.094716340E-1,9.873384476E0,9.874168944E0
1.019018133E0,4.486542568E-2,-1.046859920E-1,9.878170013E0,9.878826594E0
1.021463342E0,8.075776696E-2,-9.511470050E-2,9.859027863E0,9.859817393E0
1.023906987E0,7.357929647E-2,-1.094716340E-1,9.887741089E0,9.888620824E0
1.026351467E0,7.836493850E-2,-1.022931710E-1,9.875777245E0,9.876617900E0
1.028795946E0,6.161518395E-2,-9.990034252E-2,9.887741089E0,9.888437710E0
1.031240321E0,6.161518395E-2,-9.990034252E-2,9.868598938E0,9.869296911E0
1.033685633E0,5.922235921E-2,-1.022931710E-1,9.861420631E0,9.862128982E0
1.036129279E0,6.161518395E-2,-1.118644550E-1,9.870991707E0,9.871817835E0
1.038573758E0,6.400800496E-2,-9.272187948E-2,9.899705887E0,9.900347015E0
1.041019019E0,5.682953820E-2,-1.118644550E-1,9.885348320E0,9.886144580E0
1.043462612E0,6.161518395E-2,-9.511470050E-2,9.868598938E0,9.869249629E0
1.045907144E0,7.357929647E-2,-9.032905847E-2,9.882955551E0,9.883642227E0
1.048351623E0,6.640082598E-2,-9.511470050E-2,9.863813400E0,9.864495460E0
1.050795998E0,7.357929647E-2,-8.793623000E-2,9.870991707E0,9.871657610E0
1.053241310E0,7.597211748E-2,-1.022931710E-1,9.880562782E0,9.881384344E0
1.055684904E0,7.357929647E-2,-9.272187948E-2,9.868598938E0,9.869308803E0
1.058129435E0,5.922235921E-2,-9.272187948E-2,9.897313118E0,9.897924610E0
1.060574696E0,7.357929647E-2,-9.032905847E-2,9.892526627E0,9.893212638E0
1.063018290E0,6.400800496E-2,-9.750752151E-2,9.882955551E0,9.883643820E0
1.065462821E0,7.357929647E-2,-1.094716340E-1,9.885348320E0,9.886228268E0
1.067907196E0,8.315058798E-2,-1.070788130E-1,9.882955551E0,9.883885386E0
1.070351727E0,7.597211748E-2,-8.793623000E-2,9.868598938E0,9.869283132E0
1.072796987E0,6.400800496E-2,-9.990034252E-2,9.878170013E0,9.878882524E0
1.075240581E0,6.640082598E-2,-1.070788130E-1,9.870991707E0,9.871795795E0
1.077685112E0,8.075776696E-2,-1.118644550E-1,9.859027863E0,9.859993198E0
1.080130373E0,8.315058798E-2,-9.032905847E-2,9.892526627E0,9.893288453E0
1.082573967E0,8.315058798E-2,-1.094716340E-1,9.878170013E0,9.879126524E0
1.085018498E0,8.075776696E-2,-1.094716340E-1,9.859027863E0,9.859966341E0
1.087462873E0,8.554340899E-2,-1.238285750E-1,9.870991707E0,9.872139002E0
1.089907404E0,7.357929647E-2,-9.511470050E-2,9.856635094E0,9.857368619E0
1.092352665E0,6.879365444E-2,-9.750752151E-2,9.863813400E0,9.864535219E0
1.094796258E0,9.750752151E-2,-9.511470050E-2,9.885348320E0,9.886286762E0
1.097240790E0,7.118647546E-2,-1.166501045E-1,9.880562782E0,9.881507762E0
1.099685998E0,6.640082598E-2,-9.511470050E-2,9.875777245E0,9.876458478E0
1.102129644E0,7.357929647E-2,-1.070788130E-1,9.897313118E0,9.898165827E0
1.104574123E0,8.075776696E-2,-9.032905847E-2,9.875777245E0,9.876520508E0
1.107018602E0,6.400800496E-2,-1.022931710E-1,9.875777245E0,9.876514421E0
1.109463081E0,6.161518395E-2,-1.022931710E-1,9.875777245E0,9.876499203E0
1.111908290E0,6.400800496E-2,-8.315058798E-2,9.866206169E0,9.866764172E0
1.114351935E0,7.836493850E-2,-1.070788130E-1,9.875777245E0,9.876668625E0
1.116796415E0,6.640082598E-2,-1.070788130E-1,9.880562782E0,9.881366092E0
1.119241675E0,6.640082598E-2,-1.118644550E-1,9.873384476E0,9.874241426E0
1.121685269E0,5.922235921E-2,-1.022931710E-1,9.887741089E0,9.888447554E0
1.124129800E0,4.247260094E-2,-9.511470050E-2,9.892526627E0,9.893075042E0
1.126574279E0,6.400800496E-2,-9.990034252E-2,9.885348320E0,9.886060313E0
1.129018654E0,6.879365444E-2,-9.750752151E-2,9.866206169E0,9.866927812E0
1.131463967E0,7.357929647E-2,-8.793623000E-2,9.882955551E0,9.883620648E0
1.133907560E0,8.075776696E-2,-1.046859920E-1,9.870991707E0,9.871877139E0
1.136352092E0,7.597211748E-2,-8.554340899E-2,9.885348320E0,9.886010360E0
1.138797352E0,7.357929647E-2,-1.094716340E-1,9.861420631E0,9.862302714E0
1.141240946E0,7.597211748E-2,-1.022931710E-1,9.882955551E0,9.883776914E0
1.143685477E0,6.161518395E-2,-9.750752151E-2,9.890133858E0,9.890806432E0
1.146129852E0,5.204389244E-2,-9.032905847E-2,9.887741089E0,9.888290638E0
1.148574383E0,4.725824669E-2,-1.094716340E-1,9.878170013E0,9.878889624E0
1.151019644E0,7.597211748E-2,-1.142572835E-1,9.875777245E0,9.876730364E0
1.153463237E0,5.682953820E-2,-9.272187948E-2,9.870991707E0,9.871590764E0
1.155907769E0,7.836493850E-2,-1.094716340E-1,9.859027863E0,9.859947033E0
1.158353029E0,6.879365444E-2,-9.990034252E-2,9.851848602E0,9.852595269E0
1.160796623E0,7.357929647E-2,-9.990034252E-2,9.866206169E0,9.866986276E0
1.163241154E0,7.357929647E-2,-1.142572835E-1,9.882955551E0,9.883889875E0
1.165685529E0,6.400800496E-2,-1.190429255E-1,9.902098656E0,9.903021056E0
1.168130060E0,5.443671346E-2,-1.118644550E-1,9.870991707E0,9.871775640E0
1.170575321E0,6.640082598E-2,-1.118644550E-1,9.863813400E0,9.864671182E0
1.173018915E0,6.640082598E-2,-8.554340899E-2,9.885348320E0,9.885941440E0
1.175463446E0,6.640082598E-2,-9.272187948E-2,9.866206169E0,9.866865287E0
1.177908654E0,6.161518395E-2,-9.272187948E-2,9.880562782E0,9.881189942E0
1.180352300E0,6.400800496E-2,-1.022931710E-1,9.856635094E0,9.857373701E0
1.182796779E0,8.075776696E-2,-9.750752151E-2,9.880562782E0,9.881373914E0
1.185241258E0,5.443671346E-2,-1.118644550E-1,9.873384476E0,9.874168219E0
1.187685633E0,6.400800496E-2,-1.142572835E-1,9.847063065E0,9.847933933E0
1.190130946E0,7.357929647E-2,-9.990034252E-2,9.885348320E0,9.886126916E0
1.192574592E0,7.118647546E-2,-9.272187948E-2,9.875777245E0,9.876469058E0
1.195019071E0,8.075776696E-2,-9.032905847E-2,9.894919395E0,9.895661221E0
1.197464331E0,8.075776696E-2,-9.032905847E-2,9.885348320E0,9.886090864E0
1.199907977E0,7.118647546E-2,-9.750752151E-2,9.894919395E0,9.895655869E0
1.202352456E0,6.400800496E-2,-8.075776696E-2,9.880562782E0,9.881100128E0
1.204796935E0,7.597211748E-2,-9.272187948E-2,9.866206169E0,9.866934341E0
1.207241310E0,7.118647546E-2,-9.032905847E-2,9.899705887E0,9.900373907E0
1.209686623E0,5.682953820E-2,-6.879365444E-2,9.880562782E0,9.880965695E0
1.212130269E0,8.075776696E-2,-9.990034252E-2,9.851848602E0,9.852686069E0
1.214574748E0,6.161518395E-2,-8.554340899E-2,9.854242325E0,9.854806234E0
1.217020008E0,5.204389244E-2,-9.990034252E-2,9.859027863E0,9.859671345E0
1.219463602E0,7.597211748E-2,-8.793623000E-2,9.882955551E0,9.883638751E0
1.221908133E0,8.075776696E-2,-1.094716340E-1,9.863813400E0,9.864751424E0
1.224352508E0,8.554340899E-2,-9.511470050E-2,9.894919395E0,9.895746274E0
1.226797040E0,8.554340899E-2,-1.046859920E-1,9.899705887E0,9.900628944E0
1.229242300E0,7.597211748E-2,-1.022931710E-1,9.870991707E0,9.871814065E0
1.231685894E0,6.161518395E-2,-1.046859920E-1,9.863813400E0,9.864561338E0
1.234130425E0,7.118647546E-2,-9.990034252E-2,9.851848602E0,9.852612267E0
1.236575685E0,8.793623000E-2,-1.094716340E-1,9.866206169E0,9.867205328E0
1.239019279E0,7.836493850E-2,-9.272187948E-2,9.866206169E0,9.866953055E0
1.241463810E0,6.400800496E-2,-1.118644550E-1,9.870991707E0,9.871833060E0
1.243908185E0,7.357929647E-2,-9.750752151E-2,9.873384476E0,9.874140096E0
1.246352717E0,8.554340899E-2,-1.046859920E-1,9.882955551E0,9.883880172E0
1.248797977E0,5.443671346E-2,-1.070788130E-1,9.892526627E0,9.893255899E0
1.251241571E0,7.118647546E-2,-1.022931710E-1,9.873384476E0,9.874170973E0
1.253686102E0,6.161518395E-2,-1.118644550E-1,9.870991707E0,9.871817835E0
1.256131310E0,9.032905847E-2,-1.070788130E-1,9.885348320E0,9.886340912E0
1.258574956E0,6.640082598E-2,-1.022931710E-1,9.875777245E0,9.876530218E0
1.261019435E0,6.640082598E-2,-1.166501045E-1,9.861420631E0,9.862334064E0
1.263463915E0,7.118647546E-2,-9.990034252E-2,9.868598938E0,9.869361306E0
1.265908394E0,8.554340899E-2,-1.094716340E-1,9.890133858E0,9.891109616E0
1.268353602E0,7.118647546E-2,-1.214357466E-1,9.859027863E0,9.860032685E0
1.270797248E0,8.075776696E-2,-1.142572835E-1,9.882955551E0,9.883945921E0
1.273241727E0,7.118647546E-2,-9.272187948E-2,9.882955551E0,9.883646862E0
1.275686987E0,7.118647546E-2,-1.070788130E-1,9.868598938E0,9.869436579E0
1.278130633E0,7.597211748E-2,-9.750752151E-2,9.861420631E0,9.862195311E0
1.280575112E0,7.357929647E-2,-1.070788130E-1,9.859027863E0,9.859883883E0
1.283019592E0,5.922235921E-2,-9.750752151E-2,9.866206169E0,9.866865722E0
1.285463967E0,6.400800496E-2,-1.094716340E-1,9.890133858E0,9.890946809E0
1.287909279E0,6.879365444E-2,-9.511470050E-2,9.894919395E0,9.895615656E0
1.290352925E0,7.118647546E-2,-9.032905847E-2,9.878170013E0,9.878839490E0
1.292797404E0,6.879365444E-2,-1.046859920E-1,9.859027863E0,9.859823635E0
1.295242665E0,5.922235921E-2,-9.750752151E-2,9.885348320E0,9.886006596E0
1.297686258E0,6.400800496E-2,-8.554340899E-2,9.873384476E0,9.873962513E0
1.300130790E0,7.836493850E-2,-9.990034252E-2,9.873384476E0,9.874200836E0
1.302575269E0,6.161518395E-2,-1.070788130E-1,9.866206169E0,9.866979602E0
1.305019644E0,9.032905847E-2,-1.094716340E-1,9.882955551E0,9.883974595E0
1.307464956E0,6.879365444E-2,-1.022931710E-1,9.863813400E0,9.864583684E0
1.309908550E0,7.836493850E-2,-9.750752151E-2,9.875777245E0,9.876569494E0
1.312353081E0,7.836493850E-2,-1.118644550E-1,9.868598938E0,9.869544048E0
1.314798342E0,7.357929647E-2,-1.022931710E-1,9.868598938E0,9.869403366E0
1.317241935E0,6.161518395E-2,-1.094716340E-1,9.873384476E0,9.874183585E0
1.319686467E0,7.357929647E-2,-1.094716340E-1,9.868598938E0,9.869480379E0
1.322130842E0,9.032905847E-2,-9.750752151E-2,9.870991707E0,9.871886564E0
1.324575373E0,8.315058798E-2,-1.022931710E-1,9.897313118E0,9.898190990E0
1.327020633E0,7.836493850E-2,-1.094716340E-1,9.868598938E0,9.869517217E0
1.329464227E0,6.640082598E-2,-9.750752151E-2,9.887741089E0,9.888444803E0
1.331908758E0,7.836493850E-2,-7.357929647E-2,9.870991707E0,9.871576989E0
1.334353967E0,7.357929647E-2,-1.070788130E-1,9.873384476E0,9.874239251E0
1.336797612E0,8.554340899E-2,-9.511470050E-2,9.868598938E0,9.869428022E0
1.339242092E0,7.597211748E-2,-9.750752151E-2,9.878170013E0,9.878943379E0
1.341686571E0,6.879365444E-2,-9.032905847E-2,9.880562782E0,9.881215148E0
1.344131050E0,7.118647546E-2,-1.118644550E-1,9.870991707E0,9.871882214E0
1.346576310E0,6.400800496E-2,-1.238285750E-1,9.863813400E0,9.864798292E0
1.349019904E0,5.204389244E-2,-9.272187948E-2,9.866206169E0,9.866779114E0
1.351464383E0,7.836493850E-2,-8.793623000E-2,9.870991707E0,9.871694440E0
1.353909644E0,7.357929647E-2,-8.315058798E-2,9.868598938E0,9.869223522E0
1.356353290E0,9.032905847E-2,-1.046859920E-1,9.887741089E0,9.888707819E0
1.358797769E0,7.118647546E-2,-9.750752151E-2,9.873384476E0,9.874122555E0
1.361242248E0,8.554340899E-2,-1.214357466E-1,9.878170013E0,9.879286772E0
1.363686623E0,7.836493850E-2,-9.990034252E-2,9.882955551E0,9.883771121E0
1.366131935E0,7.836493850E-2,-1.118644550E-1,9.856635094E0,9.857581351E0
1.368575581E0,8.075776696E-2,-1.022931710E-1,9.892526627E0,9.893385102E0
1.371020060E0,9.990034252E-2,-1.022931710E-1,9.875777245E0,9.876812247E0
1.373465321E0,6.400800496E-2,-1.022931710E-1,9.878170013E0,9.878907011E0
1.375908915E0,5.443671346E-2,-9.990034252E-2,9.890133858E0,9.890788197E0
1.378353446E0,6.161518395E-2,-9.272187948E-2,9.878170013E0,9.878797325E0
1.380797925E0,7.597211748E-2,-1.166501045E-1,9.882955551E0,9.883935928E0
1.383242300E0,5.204389244E-2,-1.046859920E-1,9.880562782E0,9.881254405E0
1.385687612E0,7.357929647E-2,-1.046859920E-1,9.870991707E0,9.871821025E0
1.388131206E0,7.836493850E-2,-1.094716340E-1,9.882955551E0,9.883872497E0
1.390575737E0,6.879365444E-2,-1.094716340E-1,9.894919395E0,9.895764066E0
1.393020998E0,6.400800496E-2,-1.046859920E-1,9.887741089E0,9.888502416E0
1.395464592E0,9.032905847E-2,-9.272187948E-2,9.880562782E0,9.881410708E0
1.397909123E0,7.118647546E-2,-1.022931710E-1,9.878170013E0,9.878956130E0
1.400353498E0,6.400800496E-2,-1.046859920E-1,9.894919395E0,9.895680170E0
1.402798029E0,7.357929647E-2,-1.022931710E-1,9.878170013E0,9.878973662E0
1.405243290E0,6.400800496E-2,-1.022931710E-1,9.878170013E0,9.878907011E0
1.407686883E0,6.879365444E-2,-9.750752151E-2,9.868598938E0,9.869320406E0
1.410131415E0,7.597211748E-2,-1.022931710E-1,9.870991707E0,9.871814065E0
1.412576675E0,8.793623000E-2,-7.357929647E-2,9.878170013E0,9.878835433E0
1.415020269E0,7.836493850E-2,-1.070788130E-1,9.856635094E0,9.857528205E0
1.417464748E0,7.118647546E-2,-1.022931710E-1,9.866206169E0,9.866993239E0
1.419909227E0,7.118647546E-2,-1.022931710E-1,9.859027863E0,9.859815505E0
1.422353706E0,6.879365444E-2,-1.142572835E-1,9.870991707E0,9.871892654E0
1.424798967E0,5.682953820E-2,-1.046859920E-1,9.887741089E0,9.888458555E0
1.427242560E0,5.682953820E-2,-9.990034252E-2,9.875777245E0,9.876446014E0
1.429687092E0,4.965107143E-2,-1.118644550E-1,9.890133858E0,9.890891093E0
1.432132300E0,6.161518395E-2,-1.142572835E-1,9.863813400E0,9.864667554E0
1.434575946E0,6.640082598E-2,-9.990034252E-2,9.887741089E0,9.888468688E0
1.437020425E0,6.879365444E-2,-1.166501045E-1,9.882955551E0,9.883883358E0
1.439464904E0,6.640082598E-2,-8.793623000E-2,9.866206169E0,9.866821475E0
1.441909279E0,6.640082598E-2,-9.272187948E-2,9.866206169E0,9.866865287E0
1.444354592E0,5.682953820E-2,-8.075776696E-2,9.880562782E0,9.881056234E0
1.446798237E0,7.118647546E-2,-9.511470050E-2,9.890133858E0,9.890847388E0
1.449242717E0,8.315058798E-2,-9.032905847E-2,9.885348320E0,9.886110700E0
1.451687977E0,6.879365444E-2,-1.022931710E-1,9.887741089E0,9.888509509E0
1.454131623E0,8.554340899E-2,-9.750752151E-2,9.868598938E0,9.869451372E0
1.456576102E0,6.879365444E-2,-1.094716340E-1,9.870991707E0,9.871838425E0
1.459020581E0,5.922235921E-2,-1.118644550E-1,9.878170013E0,9.878980907E0
1.461464956E0,6.640082598E-2,-1.118644550E-1,9.878170013E0,9.879026548E0
1.463910269E0,7.118647546E-2,-1.046859920E-1,9.861420631E0,9.862233192E0
1.466353862E0,7.597211748E-2,-9.511470050E-2,9.856635094E0,9.857386770E0
1.468798394E0,7.597211748E-2,-1.094716340E-1,9.868598938E0,9.869498508E0
1.471243654E0,8.075776696E-2,-1.046859920E-1,9.861420631E0,9.862306923E0
1.473687248E0,8.315058798E-2,-1.070788130E-1,9.892526627E0,9.893455562E0
1.476131779E0,8.554340899E-2,-1.046859920E-1,9.870991707E0,9.871917448E0
1.478576154E0,6.400800496E-2,-9.272187948E-2,9.880562782E0,9.881205153E0
1.481020685E0,8.315058798E-2,-1.166501045E-1,9.887741089E0,9.888778747E0
1.483465946E0,7.118647546E-2,-1.190429255E-1,9.894919395E0,9.895891500E0
1.485909540E0,6.161518395E-2,-1.190429255E-1,9.906884193E0,9.907790978E0
1.488354071E0,4.965107143E-2,-9.750752151E-2,9.870991707E0,9.871598159E0
1.490799331E0,5.443671346E-2,-8.554340899E-2,9.866206169E0,9.866727178E0
1.493242925E0,7.597211748E-2,-8.554340899E-2,9.870991707E0,9.871654710E0
1.495687456E0,7.597211748E-2,-9.750752151E-2,9.878170013E0,9.878943379E0
1.498131831E0,8.793623000E-2,-1.046859920E-1,9.899705887E0,9.900649907E0
1.500576362E0,6.161518395E-2,-9.750752151E-2,9.870991707E0,9.871665585E0
1.503021623E0,7.118647546E-2,-1.118644550E-1,9.873384476E0,9.874274767E0
1.505465217E0,8.554340899E-2,-1.166501045E-1,9.887741089E0,9.888799157E0
1.507909748E0,6.879365444E-2,-9.750752151E-2,9.894919395E0,9.895638945E0
1.510354956E0,7.118647546E-2,-9.511470050E-2,9.899705887E0,9.900418727E0
1.512798602E0,7.357929647E-2,-1.142572835E-1,9.892526627E0,9.893460047E0
1.515243081E0,5.922235921E-2,-1.070788130E-1,9.882955551E0,9.883713047E0
1.517687560E0,7.597211748E-2,-9.511470050E-2,9.911669731E0,9.912417234E0
1.520131935E0,7.357929647E-2,-9.272187948E-2,9.885348320E0,9.886056983E0
1.522577248E0,8.075776696E-2,-9.990034252E-2,9.868598938E0,9.869434984E0
1.525020894E0,7.118647546E-2,-1.070788130E-1,9.868598938E0,9.869436579E0
1.527465373E0,9.032905847E-2,-1.046859920E-1,9.859027863E0,9.859997408E0
1.529910633E0,5.922235921E-2,-1.022931710E-1,9.892526627E0,9.893232750E0
1.532354279E0,8.315058798E-2,-9.032905847E-2,9.887741089E0,9.888503284E0
1.534798758E0,9.272187948E-2,-1.046859920E-1,9.885348320E0,9.886337437E0
1.537243237E0,7.836493850E-2,-9.990034252E-2,9.844670296E0,9.845489037E0
1.539687612E0,7.118647546E-2,-8.793623000E-2,9.861420631E0,9.862069619E0
1.542132925E0,8.793623000E-2,-1.238285750E-1,9.875777245E0,9.876944997E0
1.544576571E0,8.554340899E-2,-1.094716340E-1,9.875777245E0,9.876754421E0
1.547021050E0,7.118647546E-2,-1.118644550E-1,9.859027863E0,9.859919450E0
1.549466310E0,9.272187948E-2,-9.032905847E-2,9.866206169E0,9.867055329E0
1.551909904E0,7.118647546E-2,-1.094716340E-1,9.878170013E0,9.879033068E0
1.554354435E0,8.554340899E-2,-1.190429255E-1,9.894919395E0,9.896005191E0
1.556798810E0,5.922235921E-2,-9.750752151E-2,9.868598938E0,9.869258331E0
1.559243342E0,7.597211748E-2,-9.750752151E-2,9.870991707E0,9.871765635E0
1.561688602E0,7.836493850E-2,-8.315058798E-2,9.899705887E0,9.900365232E0
1.564132196E0,6.640082598E-2,-9.511470050E-2,9.885348320E0,9.886028894E0
1.566576727E0,5.204389244E-2,-1.070788130E-1,9.894919395E0,9.895635618E0
1.569021987E0,6.640082598E-2,-8.793623000E-2,9.882955551E0,9.883569814E0
1.571465581E0,6.879365444E-2,-9.032905847E-2,9.880562782E0,9.881215148E0
1.573910112E0,6.640082598E-2,-8.793623000E-2,9.909276962E0,9.909889594E0
1.576354487E0,8.075776696E-2,-9.750752151E-2,9.890133858E0,9.890944205E0
1.578799019E0,7.836493850E-2,-1.118644550E-1,9.861420631E0,9.862366429E0
1.581244279E0,8.315058798E-2,-8.315058798E-2,9.873384476E0,9.874084719E0
1.583687873E0,8.315058798E-2,-8.315058798E-2,9.863813400E0,9.864514323E0
1.586132404E0,6.879365444E-2,-8.075776696E-2,9.878170013E0,9.878739656E0
1.588577612E0,5.922235921E-2,-1.070788130E-1,9.875777245E0,9.876535290E0
1.591021258E0,5.204389244E-2,-1.142572835E-1,9.875777245E0,9.876575291E0
1.593465737E0,7.357929647E-2,-1.070788130E-1,9.880562782E0,9.881416937E0
1.595910217E0,8.793623000E-2,-9.990034252E-2,9.892526627E0,9.893421851E0
1.598354696E0,6.879365444E-2,-9.990034252E-2,9.875777245E0,9.876522102E0
1.600799904E0,7.836493850E-2,-9.272187948E-2,9.882955551E0,9.883701171E0
1.603243550E0,6.161518395E-2,-1.046859920E-1,9.882955551E0,9.883702040E0
1.605688029E0,7.836493850E-2,-1.022931710E-1,9.866206169E0,9.867047640E0
1.608133290E0,9.511470050E-2,-9.272187948E-2,9.854242325E0,9.855137541E0
1.610576935E0,6.400800496E-2,-1.166501045E-1,9.904491425E0,9.905385134E0
1.613021415E0,6.640082598E-2,-1.022931710E-1,9.863813400E0,9.864567287E0
1.615465894E0,6.879365444E-2,-1.070788130E-1,9.894919395E0,9.895737885E0
1.617910269E0,8.554340899E-2,-1.118644550E-1,9.859027863E0,9.860033556E0
1.620355581E0,7.118647546E-2,-1.094716340E-1,9.873384476E0,9.874247949E0
1.622799227E0,6.640082598E-2,-1.046859920E-1,9.906884193E0,9.907659797E0
1.625243706E0,7.118647546E-2,-9.990034252E-2,9.880562782E0,9.881324227E0
1.627688967E0,8.315058798E-2,-9.750752151E-2,9.892526627E0,9.893356599E0
1.630132560E0,8.075776696E-2,-9.750752151E-2,9.875777245E0,9.876588769E0
1.632577092E0,9.511470050E-2,-1.022931710E-1,9.866206169E0,9.867194884E0
1.635021571E0,6.400800496E-2,-1.166501045E-1,9.868598938E0,9.869495897E0
1.637465946E0,7.836493850E-2,-1.190429255E-1,9.878170013E0,9.879198100E0
1.639911258E0,5.204389244E-2,-9.032905847E-2,9.882955551E0,9.883505367E0
1.642354852E0,7.597211748E-2,-9.511470050E-2,9.885348320E0,9.886097813E0
1.644799383E0,7.118647546E-2,-1.214357466E-1,9.875777245E0,9.876780363E0
1.647244644E0,8.315058798E-2,-8.793623000E-2,9.899705887E0,9.900445619E0
1.649688237E0,6.161518395E-2,-1.142572835E-1,9.870991707E0,9.871845240E0
1.652132769E0,8.075776696E-2,-9.750752151E-2,9.859027863E0,9.859840766E0
1.654577144E0,5.922235921E-2,-8.793623000E-2,9.887741089E0,9.888309457E0
1.657021675E0,7.597211748E-2,-9.750752151E-2,9.878170013E0,9.878943379E0
1.659466935E0,4.965107143E-2,-1.142572835E-1,9.856635094E0,9.857422347E0
1.661910529E0,7.597211748E-2,-9.272187948E-2,9.870991707E0,9.871719525E0
1.664355060E0,5.443671346E-2,-1.094716340E-1,9.870991707E0,9.871748815E0
1.666800321E0,6.400800496E-2,-1.022931710E-1,9.882955551E0,9.883692192E0
1.669243915E0,7.836493850E-2,-1.166501045E-1,9.878170013E0,9.879169556E0
1.671688394E0,7.597211748E-2,-9.750752151E-2,9.887741089E0,9.888513706E0
1.674132873E0,6.161518395E-2,-1.238285750E-1,9.887741089E0,9.888708398E0
1.676577352E0,7.118647546E-2,-8.315058798E-2,9.861420631E0,9.862028108E0
1.679022560E0,6.879365444E-2,-9.511470050E-2,9.875777245E0,9.876474855E0
1.681466206E0,8.075776696E-2,-9.511470050E-2,9.894919395E0,9.895706062E0
1.683910685E0,5.443671346E-2,-1.022931710E-1,9.880562782E0,9.881242237E0
1.686355946E0,6.400800496E-2,-1.094716340E-1,9.885348320E0,9.886161665E0
1.688799592E0,6.400800496E-2,-1.022931710E-1,9.878170013E0,9.878907011E0
1.691244071E0,7.597211748E-2,-9.032905847E-2,9.878170013E0,9.878875134E0
1.693688550E0,6.879365444E-2,-9.032905847E-2,9.880562782E0,9.881215148E0
1.696132925E0,7.836493850E-2,-9.272187948E-2,9.892526627E0,9.893271525E0
1.698578237E0,5.443671346E-2,-9.511470050E-2,9.868598938E0,9.869207423E0
1.701021883E0,7.836493850E-2,-1.046859920E-1,9.880562782E0,9.881428091E0
1.703466362E0,7.597211748E-2,-1.070788130E-1,9.878170013E0,9.879042486E0
1.705911623E0,5.922235921E-2,-9.272187948E-2,9.894919395E0,9.895531036E0
1.708355217E0,5.443671346E-2,-8.315058798E-2,9.861420631E0,9.861921428E0
1.710799748E0,7.836493850E-2,-9.750752151E-2,9.870991707E0,9.871784340E0
1.713244227E0,7.118647546E-2,-8.554340899E-2,9.880562782E0,9.881189508E0
1.715688602E0,7.357929647E-2,-1.022931710E-1,9.902098656E0,9.902900363E0
1.718133915E0,7.357929647E-2,-9.511470050E-2,9.892526627E0,9.893257491E0
1.720577508E0,6.161518395E-2,-1.070788130E-1,9.885348320E0,9.886120256E0
1.723022040E0,7.357929647E-2,-9.032905847E-2,9.875777245E0,9.876464420E0
1.725467300E0,6.879365444E-2,-8.315058798E-2,9.866206169E0,9.866796378E0
1.727910894E0,7.836493850E-2,-9.990034252E-2,9.849455833E0,9.850274177E0
1.730355425E0,7.597211748E-2,-1.046859920E-1,9.878170013E0,9.879016840E0
1.732799800E0,6.640082598E-2,-1.046859920E-1,9.851848602E0,9.852628538E0
1.735244331E0,8.793623000E-2,-9.750752151E-2,9.863813400E0,9.864687288E0
1.737689592E0,6.879365444E-2,-1.046859920E-1,9.873384476E0,9.874179091E0
1.740133185E0,7.357929647E-2,-9.990034252E-2,9.868598938E0,9.869378855E0
1.742577717E0,9.032905847E-2,-1.094716340E-1,9.882955551E0,9.883974595E0
1.745022977E0,7.357929647E-2,-1.046859920E-1,9.873384476E0,9.874213593E0
1.747466571E0,8.554340899E-2,-1.070788130E-1,9.880562782E0,9.881513267E0
1.749911050E0,8.793623000E-2,-1.262213886E-1,9.887741089E0,9.888937681E0
1.752355529E0,7.597211748E-2,-8.315058798E-2,9.892526627E0,9.893167786E0
1.754800008E0,6.879365444E-2,-9.750752151E-2,9.866206169E0,9.866927812E0
1.757245217E0,7.357929647E-2,-9.511470050E-2,9.866206169E0,9.866938983E0
1.759688862E0,1.094716340E-1,-1.046859920E-1,9.882955551E0,9.884116229E0
1.762133342E0,6.640082598E-2,-9.511470050E-2,9.906884193E0,9.907563288E0
1.764578602E0,7.357929647E-2,-7.836493850E-2,9.873384476E0,9.873969616E0
1.767022248E0,8.075776696E-2,-1.022931710E-1,9.878170013E0,9.879029736E0
1.769466727E0,5.443671346E-2,-1.142572835E-1,9.897313118E0,9.898122299E0
1.771911206E0,6.161518395E-2,-1.070788130E-1,9.878170013E0,9.878942510E0
1.774355581E0,7.597211748E-2,-8.793623000E-2,9.880562782E0,9.881246148E0
1.776800894E0,6.161518395E-2,-9.750752151E-2,9.880562782E0,9.881236008E0
1.779244540E0,6.640082598E-2,-1.094716340E-1,9.880562782E0,9.881392311E0
1.781689019E0,7.357929647E-2,-1.118644550E-1,9.870991707E0,9.871899759E0
1.784134279E0,6.879365444E-2,-8.554340899E-2,9.878170013E0,9.878779938E0
1.786577873E0,8.075776696E-2,-1.070788130E-1,9.856635094E0,9.857547517E0
1.789022404E0,7.836493850E-2,-9.272187948E-2,9.870991707E0,9.871738230E0
1.791466883E0,8.315058798E-2,-1.238285750E-1,9.882955551E0,9.884081038E0
1.793911258E0,7.597211748E-2,-1.142572835E-1,9.868598938E0,9.869552750E0
1.796356571E0,8.075776696E-2,-9.990034252E-2,9.868598938E0,9.869434984E0
1.798800165E0,7.836493850E-2,-1.022931710E-1,9.868598938E0,9.869440205E0
1.801244696E0,6.640082598E-2,-1.046859920E-1,9.880562782E0,9.881340452E0
1.803689956E0,5.682953820E-2,-8.315058798E-2,9.878170013E0,9.878683436E0
1.806133550E0,7.357929647E-2,-7.836493850E-2,9.885348320E0,9.885932752E0
1.808578081E0,7.118647546E-2,-1.094716340E-1,9.870991707E0,9.871855389E0
1.811022456E0,6.879365444E-2,-1.070788130E-1,9.878170013E0,9.878989890E0
1.813466987E0,8.315058798E-2,-1.046859920E-1,9.859027863E0,9.859934258E0
1.815912248E0,9.032905847E-2,-9.511470050E-2,9.892526627E0,9.893396242E0
1.818355842E0,6.879365444E-2,-9.032905847E-2,9.880562782E0,9.881215148E0
1.820800373E0,7.118647546E-2,-9.990034252E-2,9.868598938E0,9.869361306E0
1.823245633E0,7.357929647E-2,-9.511470050E-2,9.863813400E0,9.864546392E0
1.825689227E0,8.554340899E-2,-1.046859920E-1,9.878170013E0,9.879095082E0
1.828133758E0,6.640082598E-2,-9.750752151E-2,9.892526627E0,9.893230001E0
1.830578133E0,6.161518395E-2,-9.750752151E-2,9.880562782E0,9.881236008E0
1.833022665E0,5.204389244E-2,-1.046859920E-1,9.887741089E0,9.888432210E0
1.835467873E0,7.118647546E-2,-1.046859920E-1,9.885348320E0,9.886158914E0
1.837911519E0,7.597211748E-2,-9.511470050E-2,9.870991707E0,9.871742290E0
1.840356050E0,7.357929647E-2,-9.511470050E-2,9.892526627E0,9.893257491E0
1.842801258E0,6.640082598E-2,-1.046859920E-1,9.885348320E0,9.886125613E0
1.845244904E0,5.204389244E-2,-9.990034252E-2,9.892526627E0,9.893167931E0
1.847689383E0,6.400800496E-2,-9.511470050E-2,9.897313118E0,9.897977106E0
1.850133862E0,5.682953820E-2,-1.070788130E-1,9.861420631E0,9.862165702E0
1.852578237E0,6.400800496E-2,-1.166501045E-1,9.870991707E0,9.871888449E0
1.855023550E0,7.597211748E-2,-1.022931710E-1,9.854242325E0,9.855066081E0
1.857467196E0,7.357929647E-2,-1.046859920E-1,9.880562782E0,9.881391297E0
1.859911675E0,8.554340899E-2,-9.750752151E-2,9.866206169E0,9.867058810E0
1.862356935E0,5.443671346E-2,-1.118644550E-1,9.870991707E0,9.871775640E0
1.864800581E0,5.443671346E-2,-8.315058798E-2,9.897313118E0,9.897812098E0
1.867245060E0,7.836493850E-2,-1.046859920E-1,9.892526627E0,9.893390889E0
1.869689540E0,6.879365444E-2,-1.142572835E-1,9.873384476E0,9.874285204E0
1.872133915E0,7.357929647E-2,-9.511470050E-2,9.873384476E0,9.874116757E0
1.874579227E0,6.400800496E-2,-1.142572835E-1,9.897313118E0,9.898179565E0
1.877022821E0,8.793623000E-2,-8.554340899E-2,9.882955551E0,9.883716957E0
1.879467352E0,6.161518395E-2,-9.032905847E-2,9.892526627E0,9.893130891E0
1.881912612E0,7.597211748E-2,-1.046859920E-1,9.868598938E0,9.869446586E0
1.884356206E0,5.443671346E-2,-1.118644550E-1,9.875777245E0,9.876560798E0
1.886800737E0,8.793623000E-2,-9.272187948E-2,9.866206169E0,9.867033713E0
1.889245112E0,7.118647546E-2,-9.511470050E-2,9.870991707E0,9.871706620E0
1.891689644E0,6.640082598E-2,-7.836493850E-2,9.873384476E0,9.873918733E0
1.894134904E0,6.161518395E-2,-8.793623000E-2,9.880562782E0,9.881146194E0
1.896578498E0,7.357929647E-2,-1.046859920E-1,9.894919395E0,9.895746708E0
1.899023029E0,7.357929647E-2,-9.511470050E-2,9.878170013E0,9.878901940E0
1.901468290E0,8.793623000E-2,-8.315058798E-2,9.902098656E0,9.902838209E0
1.903911883E0,8.315058798E-2,-1.046859920E-1,9.885348320E0,9.886252302E0
1.906356415E0,6.161518395E-2,-1.094716340E-1,9.859027863E0,9.859828136E0
1.908800790E0,7.357929647E-2,-9.511470050E-2,9.911669731E0,9.912399184E0
1.911245321E0,7.357929647E-2,-9.272187948E-2,9.887741089E0,9.888449580E0
1.913690581E0,6.640082598E-2,-9.750752151E-2,9.870991707E0,9.871696615E0
1.916134175E0,6.879365444E-2,-1.046859920E-1,9.873384476E0,9.874179091E0
1.918578706E0,6.161518395E-2,-1.022931710E-1,9.875777245E0,9.876499203E0
1.921023915E0,6.640082598E-2,-9.750752151E-2,9.882955551E0,9.883659606E0
1.923467560E0,5.922235921E-2,-9.990034252E-2,9.863813400E0,9.864497056E0
1.925912040E0,6.161518395E-2,-1.070788130E-1,9.861420631E0,9.862194440E0
1.928356519E0,5.922235921E-2,-9.750752151E-2,9.885348320E0,9.886006596E0
1.930800998E0,7.597211748E-2,-1.046859920E-1,9.899705887E0,9.900550872E0
1.933246206E0,9.511470050E-2,-9.272187948E-2,9.875777245E0,9.876670509E0
1.935689852E0,9.511470050E-2,-1.046859920E-1,9.882955551E0,9.883967644E0
1.938134331E0,5.922235921E-2,-1.046859920E-1,9.892526627E0,9.893257780E0
1.940579592E0,9.990034252E-2,-1.166501045E-1,9.880562782E0,9.881756333E0
1.943023237E0,8.554340899E-2,-8.793623000E-2,9.878170013E0,9.878931788E0
1.945467717E0,8.315058798E-2,-1.094716340E-1,9.875777245E0,9.876733987E0
1.947912196E0,7.597211748E-2,-1.046859920E-1,9.882955551E0,9.883801968E0
1.950356571E0,8.793623000E-2,-1.118644550E-1,9.861420631E0,9.862447126E0
1.952801883E0,5.922235921E-2,-9.990034252E-2,9.873384476E0,9.874067468E0
1.955245477E0,9.272187948E-2,-1.070788130E-1,9.875777245E0,9.876792972E0
1.957690008E0,7.357929647E-2,-1.070788130E-1,9.873384476E0,9.874239251E0
1.960135269E0,7.118647546E-2,-9.032905847E-2,9.880562782E0,9.881232097E0
1.962578862E0,6.640082598E-2,-1.022931710E-1,9.894919395E0,9.895670912E0
1.965023394E0,8.793623000E-2,-9.032905847E-2,9.861420631E0,9.862226371E0
1.967467873E0,6.400800496E-2,-9.511470050E-2,9.885348320E0,9.886013111E0
1.969912248E0,7.357929647E-2,-9.750752151E-2,9.873384476E0,9.874140096E0
1.972357560E0,8.075776696E-2,-1.190429255E-1,9.870991707E0,9.872039825E0
1.974801154E0,6.161518395E-2,-8.554340899E-2,9.861420631E0,9.861984130E0
1.977245685E0,6.400800496E-2,-1.070788130E-1,9.875777245E0,9.876565146E0
1.979690946E0,7.836493850E-2,-7.118647546E-2,9.870991707E0,9.871559444E0
1.982134540E0,7.597211748E-2,-9.750752151E-2,9.890133858E0,9.890906288E0
1.984579071E0,8.315058798E-2,-1.070788130E-1,9.866206169E0,9.867137582E0
1.987023446E0,8.315058798E-2,-9.032905847E-2,9.870991707E0,9.871755195E0
1.989467977E0,1.022931710E-1,-1.070788130E-1,9.882955551E0,9.884064963E0
1.991913237E0,6.879365444E-2,-8.554340899E-2,9.890133858E0,9.890743044E0
1.994356831E0,6.879365444E-2,-9.990034252E-2,9.882955551E0,9.883699868E0
1.996801362E0,7.118647546E-2,-1.166501045E-1,9.861420631E0,9.862367446E0
1.999246571E0,4.247260094E-2,-8.554340899E-2,9.870991707E0,9.871453737E0
2.001690217E0,9.272187948E-2,-9.511470050E-2,9.887741089E0,9.888633272E0
2.004134696E0,6.400800496E-2,-9.272187948E-2,9.899705887E0,9.900347015E0
2.006579175E0,9.032905847E-2,-9.750752151E-2,9.880562782E0,9.881456773E0
2.009023654E0,7.118647546E-2,-1.022931710E-1,9.863813400E0,9.864600661E0
2.011468915E0,7.118647546E-2,-9.990034252E-2,9.882955551E0,9.883716812E0
2.013912508E0,7.597211748E-2,-9.511470050E-2,9.863813400E0,9.864564530E0
2.016356987E0,5.204389244E-2,-9.750752151E-2,9.887741089E0,9.888358819E0
2.018802248E0,6.640082598E-2,-1.094716340E-1,9.878170013E0,9.878999743E0
2.021245894E0,7.357929647E-2,-1.022931710E-1,9.887741089E0,9.888543960E0
2.023690373E0,6.161518395E-2,-9.990034252E-2,9.882955551E0,9.883652510E0
2.026134852E0,7.597211748E-2,-8.554340899E-2,9.870991707E0,9.871654710E0
2.028579331E0,8.075776696E-2,-8.554340899E-2,9.875777245E0,9.876477898E0
2.031024540E0,7.118647546E-2,-8.554340899E-2,9.885348320E0,9.885974742E0
2.033468185E0,5.682953820E-2,-1.070788130E-1,9.880562782E0,9.881306410E0
2.035912665E0,5.204389244E-2,-9.750752151E-2,9.885348320E0,9.885966199E0
2.038357925E0,9.032905847E-2,-1.214357466E-1,9.885348320E0,9.886506834E0
2.040801519E0,7.118647546E-2,-1.070788130E-1,9.882955551E0,9.883791975E0
2.043246050E0,5.922235921E-2,-9.511470050E-2,9.878170013E0,9.878805439E0
2.045690529E0,7.836493850E-2,-1.046859920E-1,9.866206169E0,9.867072737E0
2.048134904E0,7.118647546E-2,-1.046859920E-1,9.863813400E0,9.864625764E0
2.050580217E0,6.879365444E-2,-9.750752151E-2,9.882955551E0,9.883675971E0
2.053023810E0,6.640082598E-2,-9.511470050E-2,9.873384476E0,9.874065874E0
2.055468342E0,7.597211748E-2,-9.750752151E-2,9.894919395E0,9.895691452E0
2.057913602E0,7.357929647E-2,-1.070788130E-1,9.870991707E0,9.871846690E0
2.060357196E0,6.400800496E-2,-9.990034252E-2,9.890133858E0,9.890845506E0
2.062801727E0,8.075776696E-2,-9.032905847E-2,9.887741089E0,9.888483453E0
2.065246102E0,7.118647546E-2,-1.022931710E-1,9.875777245E0,9.876563552E0
2.067690633E0,6.640082598E-2,-1.190429255E-1,9.870991707E0,9.871932818E0
2.070135894E0,7.357929647E-2,-9.511470050E-2,9.875777245E0,9.876509348E0
2.072579487E0,8.554340899E-2,-9.750752151E-2,9.882955551E0,9.883806747E0
2.075024019E0,8.793623000E-2,-1.046859920E-1,9.875777245E0,9.876723552E0
2.077469279E0,8.554340899E-2,-9.032905847E-2,9.868598938E0,9.869383061E0
2.079912873E0,6.400800496E-2,-1.022931710E-1,9.866206169E0,9.866944060E0
2.082357404E0,5.682953820E-2,-1.094716340E-1,9.870991707E0,9.871762300E0
2.084801779E0,7.118647546E-2,-9.990034252E-2,9.887741089E0,9.888501981E0
2.087246310E0,8.075776696E-2,-1.190429255E-1,9.887741089E0,9.888787432E0
2.089691571E0,4.725824669E-2,-1.046859920E-1,9.882955551E0,9.883622966E0
2.092135165E0,8.315058798E-2,-1.022931710E-1,9.873384476E0,9.874264475E0
2.094579696E0,8.075776696E-2,-9.990034252E-2,9.870991707E0,9.871827550E0
2.097024904E0,7.597211748E-2,-9.750752151E-2,9.856635094E0,9.857410149E0
2.099468550E0,9.990034252E-2,-1.094716340E-1,9.885348320E0,9.886459201E0
2.101913029E0,7.357929647E-2,-9.750752151E-2,9.882955551E0,9.883710440E0
2.104357508E0,6.640082598E-2,-9.272187948E-2,9.882955551E0,9.883613552E0
2.106801987E0,7.597211748E-2,-7.836493850E-2,9.868598938E0,9.869202492E0
2.109247196E0,7.597211748E-2,-1.070788130E-1,9.868598938E0,9.869472257E0
2.111690842E0,6.879365444E-2,-9.750752151E-2,9.904491425E0,9.905210279E0
2.114135321E0,7.836493850E-2,-1.022931710E-1,9.856635094E0,9.857477381E0
2.116580581E0,6.161518395E-2,-8.554340899E-2,9.873384476E0,9.873947291E0
2.119024227E0,7.597211748E-2,-9.511470050E-2,9.875777245E0,9.876527464E0
2.121468706E0,5.922235921E-2,-9.032905847E-2,9.885348320E0,9.885938399E0
2.123913185E0,7.118647546E-2,-9.272187948E-2,9.878170013E0,9.878861659E0
2.126357560E0,7.118647546E-2,-9.511470050E-2,9.863813400E0,9.864528834E0
2.128802873E0,8.315058798E-2,-9.032905847E-2,9.859027863E0,9.859792277E0
2.131246467E0,8.315058798E-2,-1.070788130E-1,9.870991707E0,9.871922668E0
2.133690998E0,7.357929647E-2,-1.022931710E-1,9.863813400E0,9.864618219E0
2.136136258E0,6.161518395E-2,-9.272187948E-2,9.861420631E0,9.862049009E0
2.138579852E0,7.118647546E-2,-1.046859920E-1,9.878170013E0,9.878981197E0
2.141024383E0,7.836493850E-2,-8.793623000E-2,9.875777245E0,9.876479637E0
2.143468758E0,4.725824669E-2,-9.990034252E-2,9.882955551E0,9.883573435E0
2.145913290E0,4.725824669E-2,-9.511470050E-2,9.863813400E0,9.864385178E0
2.148358550E0,6.879365444E-2,-1.094716340E-1,9.894919395E0,9.895764066E0
2.150802144E0,7.597211748E-2,-9.750752151E-2,9.887741089E0,9.888513706E0
2.153246675E0,6.161518395E-2,-1.118644550E-1,9.885348320E0,9.886173248E0
2.155691935E0,5.682953820E-2,-1.046859920E-1,9.873384476E0,9.874102985E0
2.158135529E0,7.118647546E-2,-1.142572835E-1,9.878170013E0,9.879087258E0
2.160580060E0,7.597211748E-2,-1.118644550E-1,9.866206169E0,9.867132795E0
2.163024435E0,6.640082598E-2,-1.142572835E-1,9.885348320E0,9.886231598E0
2.165468967E0,7.357929647E-2,-1.118644550E-1,9.890133858E0,9.891040152E0
2.167914227E0,6.640082598E-2,-9.990034252E-2,9.880562782E0,9.881290910E0
2.170357821E0,6.400800496E-2,-9.032905847E-2,9.882955551E0,9.883575608E0
2.172802352E0,7.118647546E-2,-8.554340899E-2,9.861420631E0,9.862048573E0
2.175247560E0,7.357929647E-2,-9.272187948E-2,9.854242325E0,9.854953224E0
2.177691206E0,8.554340899E-2,-9.272187948E-2,9.873384476E0,9.874190399E0
2.180135685E0,5.922235921E-2,-1.142572835E-1,9.868598938E0,9.869438029E0
2.182580165E0,7.597211748E-2,-1.214357466E-1,9.873384476E0,9.874423498E0
2.185024644E0,9.032905847E-2,-1.118644550E-1,9.866206169E0,9.867253780E0
2.187469852E0,7.597211748E-2,-9.990034252E-2,9.878170013E0,9.878967287E0
2.189913498E0,7.597211748E-2,-9.750752151E-2,9.890133858E0,9.890906288E0
2.192357977E0,8.793623000E-2,-1.094716340E-1,9.878170013E0,9.879167963E0
2.194803237E0,7.597211748E-2,-9.990034252E-2,9.880562782E0,9.881359863E0
2.197246831E0,5.682953820E-2,-1.022931710E-1,9.861420631E0,9.862114903E0
2.199691362E0,6.640082598E-2,-1.046859920E-1,9.911669731E0,9.912444960E0
2.202135842E0,6.879365444E-2,-1.046859920E-1,9.866206169E0,9.867001363E0
2.204580217E0,8.554340899E-2,-9.511470050E-2,9.899705887E0,9.900532366E0
2.207025529E0,9.272187948E-2,-1.166501045E-1,9.878170013E0,9.879293872E0
2.209469123E0,1.070788130E-1,-9.032905847E-2,9.875777245E0,9.876770798E0
2.211913654E0,5.443671346E-2,-9.032905847E-2,9.878170013E0,9.878732991E0
2.214358915E0,8.554340899E-2,-1.022931710E-1,9.875777245E0,9.876677465E0
2.216802508E0,7.597211748E-2,-1.046859920E-1,9.890133858E0,9.890979660E0
2.219247040E0,6.161518395E-2,-8.554340899E-2,9.875777245E0,9.876339924E0
2.221691519E0,8.315058798E-2,-1.022931710E-1,9.902098656E0,9.902976103E0
2.224135894E0,6.400800496E-2,-1.046859920E-1,9.887741089E0,9.888502416E0
2.226581206E0,7.357929647E-2,-1.022931710E-1,9.854242325E0,9.855047925E0
2.229024800E0,9.272187948E-2,-1.262213886E-1,9.885348320E0,9.886588926E0
2.231469331E0,8.075776696E-2,-9.750752151E-2,9.861420631E0,9.862233337E0
2.233914592E0,5.682953820E-2,-9.272187948E-2,9.880562782E0,9.881161260E0
2.236358185E0,8.793623000E-2,-9.032905847E-2,9.882955551E0,9.883759535E0
2.238802717E0,5.204389244E-2,-1.118644550E-1,9.878170013E0,9.878940482E0
2.241247092E0,5.922235921E-2,-1.094716340E-1,9.873384476E0,9.874168944E0
2.243691623E0,8.075776696E-2,-8.554340899E-2,9.859027863E0,9.859729707E0
2.246136883E0,6.879365444E-2,-9.990034252E-2,9.861420631E0,9.862166573E0
2.248580477E0,5.204389244E-2,-1.070788130E-1,9.870991707E0,9.871709665E0
2.251025008E0,5.922235921E-2,-9.511470050E-2,9.897313118E0,9.897947315E0
2.253470217E0,7.836493850E-2,-9.990034252E-2,9.866206169E0,9.867023123E0
2.255913862E0,7.597211748E-2,-1.190429255E-1,9.885348320E0,9.886356983E0
2.258358342E0,7.836493850E-2,-9.272187948E-2,9.878170013E0,9.878915994E0
2.260802821E0,7.836493850E-2,-9.990034252E-2,9.902098656E0,9.902912649E0
2.263247300E0,7.357929647E-2,-7.597211748E-2,9.894919395E0,9.895484602E0
2.265692508E0,6.640082598E-2,-9.511470050E-2,9.885348320E0,9.886028894E0
2.268136154E0,7.118647546E-2,-9.272187948E-2,9.897313118E0,9.898003426E0
2.270580633E0,6.161518395E-2,-1.022931710E-1,9.897313118E0,9.898033506E0
2.273025894E0,7.357929647E-2,-1.046859920E-1,9.863813400E0,9.864643322E0
2.275469540E0,6.400800496E-2,-1.166501045E-1,9.882955551E0,9.883851208E0
2.277914019E0,4.725824669E-2,-8.315058798E-2,9.868598938E0,9.869062385E0
2.280358498E0,6.400800496E-2,-1.142572835E-1,9.887741089E0,9.888608375E0
2.282802873E0,8.075776696E-2,-9.990034252E-2,9.894919395E0,9.895753217E0
2.285248185E0,7.836493850E-2,-1.262213886E-1,9.897313118E0,9.898428151E0
2.287691831E0,7.357929647E-2,-1.094716340E-1,9.861420631E0,9.862302714E0
2.290136310E0,5.922235921E-2,-9.511470050E-2,9.878170013E0,9.878805439E0
2.292581571E0,8.793623000E-2,-1.118644550E-1,9.880562782E0,9.881587288E0
2.295025165E0,7.118647546E-2,-9.990034252E-2,9.863813400E0,9.864576138E0
2.297469696E0,9.272187948E-2,-1.070788130E-1,9.887741089E0,9.888755587E0
2.299914175E0,7.597211748E-2,-9.272187948E-2,9.870991707E0,9.871719525E0
2.302358550E0,6.879365444E-2,-8.793623000E-2,9.870991707E0,9.871623100E0
2.304803862E0,8.075776696E-2,-1.190429255E-1,9.892526627E0,9.893572464E0
2.307247456E0,6.879365444E-2,-9.750752151E-2,9.882955551E0,9.883675971E0
2.309691987E0,8.315058798E-2,-1.286142170E-1,9.859027863E0,9.860217342E0
2.312137248E0,7.118647546E-2,-9.750752151E-2,9.887741089E0,9.888478097E0
2.314580842E0,9.990034252E-2,-1.118644550E-1,9.885348320E0,9.886485986E0
2.317025373E0,7.118647546E-2,-1.094716340E-1,9.887741089E0,9.888603309E0
2.319469748E0,6.640082598E-2,-9.750752151E-2,9.882955551E0,9.883659606E0
2.321914279E0,8.315058798E-2,-1.094716340E-1,9.873384476E0,9.874341450E0
2.324359540E0,7.118647546E-2,-9.272187948E-2,9.870991707E0,9.871683855E0
2.326803133E0,7.357929647E-2,-1.046859920E-1,9.909276962E0,9.910103076E0
2.329247665E0,8.554340899E-2,-1.070788130E-1,9.890133858E0,9.891083422E0
2.331692873E0,8.554340899E-2,-9.990034252E-2,9.866206169E0,9.867082746E0
2.334136519E0,6.161518395E-2,-9.511470050E-2,9.885348320E0,9.885997908E0
2.336580998E0,5.443671346E-2,-9.272187948E-2,9.870991707E0,9.871577279E0
2.339025477E0,6.161518395E-2,-8.793623000E-2,9.878170013E0,9.878753566E0
2.341469956E0,6.640082598E-2,-9.272187948E-2,9.878170013E0,9.878828333E0
2.343915217E0,6.879365444E-2,-7.357929647E-2,9.859027863E0,9.859542427E0
2.346358810E0,7.118647546E-2,-9.511470050E-2,9.847063065E0,9.847779715E0
2.348803290E0,6.161518395E-2,-9.990034252E-2,9.873384476E0,9.874082110E0
2.351248550E0,6.161518395E-2,-1.046859920E-1,9.866206169E0,9.866953925E0
2.353692196E0,6.640082598E-2,-1.142572835E-1,9.880562782E0,9.881446488E0
2.356136675E0,6.879365444E-2,-1.070788130E-1,9.870991707E0,9.871812180E0
2.358581154E0,5.204389244E-2,-9.990034252E-2,9.873384476E0,9.874027023E0
2.361025529E0,6.161518395E-2,-8.793623000E-2,9.875777245E0,9.876360939E0
2.363470842E0,6.640082598E-2,-9.511470050E-2,9.878170013E0,9.878851081E0
2.365914487E0,6.879365444E-2,-1.022931710E-1,9.870991707E0,9.871761430E0
2.368358967E0,6.879365444E-2,-1.022931710E-1,9.854242325E0,9.855013356E0
2.370804227E0,6.879365444E-2,-1.046859920E-1,9.878170013E0,9.878964244E0
2.373247821E0,6.640082598E-2,-1.046859920E-1,9.880562782E0,9.881340452E0
2.375692352E0,5.443671346E-2,-9.511470050E-2,9.885348320E0,9.885955774E0
2.378136831E0,7.357929647E-2,-1.214357466E-1,9.880562782E0,9.881582942E0
2.380581206E0,7.357929647E-2,-9.990034252E-2,9.873384476E0,9.874164015E0
2.383026519E0,7.357929647E-2,-1.046859920E-1,9.882955551E0,9.883783865E0
2.385470112E0,6.640082598E-2,-7.836493850E-2,9.863813400E0,9.864348176E0
2.387914644E0,7.836493850E-2,-9.032905847E-2,9.892526627E0,9.893249388E0
2.390359904E0,7.357929647E-2,-1.022931710E-1,9.899705887E0,9.900507788E0
2.392803498E0,7.357929647E-2,-1.070788130E-1,9.878170013E0,9.879024375E0
2.395248029E0,7.836493850E-2,-1.166501045E-1,9.885348320E0,9.886347137E0
2.397692404E0,7.357929647E-2,-1.070788130E-1,9.885348320E0,9.886202061E0
2.400136935E0,7.836493850E-2,-9.511470050E-2,9.882955551E0,9.883723908E0
2.402582196E0,7.597211748E-2,-8.075776696E-2,9.890133858E0,9.890755345E0
2.405025790E0,8.554340899E-2,-8.554340899E-2,9.875777245E0,9.876518189E0
2.407470321E0,6.640082598E-2,-8.554340899E-2,9.880562782E0,9.881156189E0
2.409915581E0,6.879365444E-2,-9.511470050E-2,9.880562782E0,9.881260055E0
2.412359175E0,6.400800496E-2,-9.032905847E-2,9.885348320E0,9.885968226E0
2.414803706E0,6.640082598E-2,-8.315058798E-2,9.887741089E0,9.888313655E0
2.417248081E0,8.554340899E-2,-9.750752151E-2,9.878170013E0,9.879021622E0
2.419692612E0,7.836493850E-2,-1.046859920E-1,9.875777245E0,9.876642972E0
2.422137873E0,7.118647546E-2,-9.511470050E-2,9.870991707E0,9.871706620E0
2.424581467E0,5.682953820E-2,-9.990034252E-2,9.880562782E0,9.881231227E0
2.427025946E0,8.554340899E-2,-7.597211748E-2,9.873384476E0,9.874047318E0
2.429471206E0,7.597211748E-2,-1.046859920E-1,9.880562782E0,9.881409404E0
2.431914852E0,7.118647546E-2,-1.022931710E-1,9.878170013E0,9.878956130E0
2.434359331E0,6.879365444E-2,-1.022931710E-1,9.892526627E0,9.893294675E0
2.436803810E0,9.990034252E-2,-7.597211748E-2,9.868598938E0,9.869396985E0
2.439248185E0,8.315058798E-2,-1.166501045E-1,9.890133858E0,9.891171265E0
2.441693498E0,6.879365444E-2,-1.118644550E-1,9.873384476E0,9.874257806E0
2.444137144E0,7.597211748E-2,-1.022931710E-1,9.861420631E0,9.862243788E0
2.446581623E0,8.554340899E-2,-1.046859920E-1,9.875777245E0,9.876702538E0
2.449026883E0,8.793623000E-2,-1.166501045E-1,9.882955551E0,9.884035130E0
2.451470477E0,5.922235921E-2,-1.142572835E-1,9.873384476E0,9.874223160E0
2.453915008E0,7.357929647E-2,-1.046859920E-1,9.890133858E0,9.890961571E0
2.456359487E0,6.879365444E-2,-9.990034252E-2,9.878170013E0,9.878914690E0
2.458803862E0,5.682953820E-2,-7.357929647E-2,9.859027863E0,9.859466208E0
2.461249175E0,6.161518395E-2,-1.190429255E-1,9.868598938E0,9.869509240E0
2.463692769E0,6.161518395E-2,-1.022931710E-1,9.887741089E0,9.888462174E0
2.466137300E0,8.315058798E-2,-8.793623000E-2,9.866206169E0,9.866948412E0
2.468582560E0,7.836493850E-2,-9.272187948E-2,9.873384476E0,9.874130818E0
2.471026154E0,6.879365444E-2,-1.094716340E-1,9.885348320E0,9.886193808E0
2.473470685E0,9.272187948E-2,-1.070788130E-1,9.880562782E0,9.881578017E0
2.475915060E0,5.922235921E-2,-9.750752151E-2,9.878170013E0,9.878828768E0
2.478359592E0,6.879365444E-2,-9.990034252E-2,9.866206169E0,9.866951749E0
2.480804852E0,5.922235921E-2,-1.190429255E-1,9.866206169E0,9.867102041E0
2.483248446E0,6.161518395E-2,-1.094716340E-1,9.870991707E0,9.871791010E0
2.485692977E0,8.793623000E-2,-1.142572835E-1,9.882955551E0,9.884007180E0
2.488138237E0,6.161518395E-2,-9.511470050E-2,9.870991707E0,9.871642240E0
2.490581831E0,9.272187948E-2,-8.315058798E-2,9.856635094E0,9.857421911E0
2.493026362E0,5.922235921E-2,-9.511470050E-2,9.878170013E0,9.878805439E0
2.495470737E0,8.075776696E-2,-9.272187948E-2,9.866206169E0,9.866972349E0
2.497915269E0,7.836493850E-2,-9.511470050E-2,9.870991707E0,9.871760995E0
2.500360529E0,8.793623000E-2,-9.990034252E-2,9.887741089E0,9.888636746E0
2.502804123E0,6.400800496E-2,-9.511470050E-2,9.880562782E0,9.881227896E0
2.505248654E0,8.793623000E-2,-1.118644550E-1,9.880562782E0,9.881587288E0
2.507693862E0,6.640082598E-2,-9.272187948E-2,9.859027863E0,9.859687460E0
2.510137508E0,7.836493850E-2,-1.190429255E-1,9.880562782E0,9.881590620E0
2.512581987E0,6.640082598E-2,-1.094716340E-1,9.882955551E0,9.883784879E0
2.515026467E0,4.965107143E-2,-1.022931710E-1,9.890133858E0,9.890787473E0
2.517470842E0,6.640082598E-2,-8.793623000E-2,9.880562782E0,9.881177194E0
2.519916154E0,7.836493850E-2,-9.272187948E-2,9.873384476E0,9.874130818E0
2.522359800E0,7.597211748E-2,-9.032905847E-2,9.894919395E0,9.895623323E0
2.524804279E0,6.879365444E-2,-1.118644550E-1,9.870991707E0,9.871865249E0
2.527249540E0,6.640082598E-2,-9.272187948E-2,9.880562782E0,9.881220942E0
2.529693133E0,7.836493850E-2,-1.094716340E-1,9.873384476E0,9.874302310E0
2.532137665E0,8.075776696E-2,-9.511470050E-2,9.890133858E0,9.890920905E0
2.534582144E0,8.315058798E-2,-9.990034252E-2,9.887741089E0,9.888595347E0
2.537026519E0,6.640082598E-2,-9.750752151E-2,9.878170013E0,9.878874410E0
2.539471831E0,7.597211748E-2,-9.272187948E-2,9.870991707E0,9.871719525E0
2.541915425E0,8.315058798E-2,-1.022931710E-1,9.887741089E0,9.888619810E0
2.544359956E0,8.793623000E-2,-8.315058798E-2,9.875777245E0,9.876518769E0
2.546805217E0,5.922235921E-2,-8.793623000E-2,9.892526627E0,9.893094719E0
2.549248810E0,7.357929647E-2,-1.118644550E-1,9.875777245E0,9.876684856E0
2.551693342E0,7.597211748E-2,-9.272187948E-2,9.878170013E0,9.878897303E0
2.554137717E0,5.443671346E-2,-9.511470050E-2,9.873384476E0,9.873992666E0
2.556582248E0,8.554340899E-2,-9.511470050E-2,9.892526627E0,9.893353705E0
2.559027508E0,5.922235921E-2,-1.190429255E-1,9.859027863E0,9.859924386E0
2.561471102E0,7.357929647E-2,-9.511470050E-2,9.868598938E0,9.869331574E0
2.563915633E0,7.118647546E-2,-1.142572835E-1,9.906884193E0,9.907798780E0
2.566360894E0,7.118647546E-2,-1.190429255E-1,9.882955551E0,9.883928832E0
2.568804487E0,6.879365444E-2,-1.046859920E-1,9.885348320E0,9.886141974E0
2.571249019E0,8.793623000E-2,-8.554340899E-2,9.868598938E0,9.869361451E0
2.573693394E0,7.836493850E-2,-1.046859920E-1,9.902098656E0,9.902962083E0
2.576137925E0,5.682953820E-2,-8.554340899E-2,9.875777245E0,9.876311227E0
2.578583185E0,6.640082598E-2,-1.070788130E-1,9.861420631E0,9.862225500E0
2.581026779E0,7.597211748E-2,-1.094716340E-1,9.890133858E0,9.891031469E0
2.583471310E0,7.357929647E-2,-9.750752151E-2,9.887741089E0,9.888495612E0
2.585916519E0,9.990034252E-2,-8.554340899E-2,9.880562782E0,9.881438086E0
2.588360165E0,9.032905847E-2,-8.554340899E-2,9.897313118E0,9.898094967E0
2.590804644E0,7.357929647E-2,-1.190429255E-1,9.878170013E0,9.879161298E0
2.593249123E0,6.640082598E-2,-1.022931710E-1,9.880562782E0,9.881315391E0
2.595693602E0,8.793623000E-2,-9.990034252E-2,9.863813400E0,9.864711230E0
2.598138810E0,5.922235921E-2,-8.315058798E-2,9.875777245E0,9.876304850E0
2.600582456E0,6.161518395E-2,-9.032905847E-2,9.882955551E0,9.883560401E0
2.603026935E0,9.032905847E-2,-9.990034252E-2,9.863813400E0,9.864732851E0
2.605472196E0,6.400800496E-2,-9.032905847E-2,9.887741089E0,9.888360845E0
2.607915842E0,6.400800496E-2,-8.554340899E-2,9.878170013E0,9.878747771E0
2.610360321E0,7.118647546E-2,-9.750752151E-2,9.875777245E0,9.876515145E0
2.612804800E0,5.682953820E-2,-1.214357466E-1,9.875777245E0,9.876687320E0
2.615249175E0,7.597211748E-2,-9.750752151E-2,9.878170013E0,9.878943379E0
2.617694487E0,7.597211748E-2,-9.990034252E-2,9.894919395E0,9.895715319E0
2.620138133E0,5.682953820E-2,-9.032905847E-2,9.902098656E0,9.902673716E0
2.622582612E0,6.161518395E-2,-9.511470050E-2,9.887741089E0,9.888390520E0
2.625027873E0,6.879365444E-2,-9.272187948E-2,9.897313118E0,9.897986506E0
2.627471467E0,4.965107143E-2,-9.750752151E-2,9.873384476E0,9.873990781E0
2.629915998E0,6.879365444E-2,-1.046859920E-1,9.880562782E0,9.881356821E0
2.632360477E0,6.161518395E-2,-9.750752151E-2,9.866206169E0,9.866880374E0
2.634804852E0,8.793623000E-2,-1.046859920E-1,9.868598938E0,9.869545934E0
2.637250165E0,6.879365444E-2,-9.272187948E-2,9.873384476E0,9.874059495E0
2.639693758E0,6.400800496E-2,-1.022931710E-1,9.873384476E0,9.874121830E0
2.642138290E0,7.597211748E-2,-1.046859920E-1,9.861420631E0,9.862268897E0
2.644583550E0,5.922235921E-2,-1.022931710E-1,9.878170013E0,9.878877163E0
2.647027144E0,8.315058798E-2,-9.511470050E-2,9.866206169E0,9.867014999E0
2.649471675E0,8.315058798E-2,-9.272187948E-2,9.873384476E0,9.874169959E0
2.651916050E0,5.922235921E-2,-1.190429255E-1,9.875777245E0,9.876672248E0
2.654360581E0,5.443671346E-2,-9.990034252E-2,9.882955551E0,9.883610366E0
2.656805842E0,8.554340899E-2,-1.022931710E-1,9.866206169E0,9.867107263E0
2.659249435E0,6.640082598E-2,-1.070788130E-1,9.866206169E0,9.867010647E0
2.661693967E0,6.640082598E-2,-1.046859920E-1,9.870991707E0,9.871770130E0
2.664139175E0,5.682953820E-2,-1.070788130E-1,9.880562782E0,9.881306410E0
2.666582821E0,6.879365444E-2,-1.046859920E-1,9.887741089E0,9.888534551E0
2.669027300E0,9.272187948E-2,-9.272187948E-2,9.866206169E0,9.867077524E0
2.671471779E0,8.075776696E-2,-7.836493850E-2,9.868598938E0,9.869240492E0
2.673916258E0,8.315058798E-2,-9.750752151E-2,9.887741089E0,9.888571463E0
2.676361519E0,7.357929647E-2,-8.554340899E-2,9.892526627E0,9.893170101E0
2.678805112E0,7.118647546E-2,-9.750752151E-2,9.870991707E0,9.871729965E0
2.681249592E0,8.793623000E-2,-1.166501045E-1,9.882955551E0,9.884035130E0
2.683694852E0,7.836493850E-2,-1.022931710E-1,9.870991707E0,9.871832770E0
2.686138498E0,9.032905847E-2,-9.511470050E-2,9.885348320E0,9.886218567E0
2.688582977E0,7.836493850E-2,-9.750752151E-2,9.906884193E0,9.907673955E0
2.691027456E0,7.836493850E-2,-1.118644550E-1,9.885348320E0,9.886291829E0
2.693471831E0,8.075776696E-2,-1.070788130E-1,9.894919395E0,9.895828289E0
2.695917144E0,8.793623000E-2,-9.272187948E-2,9.854242325E0,9.855070874E0
2.698360790E0,8.793623000E-2,-9.272187948E-2,9.882955551E0,9.883781693E0
2.700805269E0,1.022931710E-1,-1.190429255E-1,9.863813400E0,9.865062083E0
2.703250529E0,8.554340899E-2,-1.070788130E-1,9.873384476E0,9.874335651E0
2.705694123E0,6.640082598E-2,-8.554340899E-2,9.863813400E0,9.864407815E0
2.708138654E0,8.075776696E-2,-9.990034252E-2,9.873384476E0,9.874220116E0
2.710583133E0,6.879365444E-2,-1.094716340E-1,9.880562782E0,9.881408680E0
2.713027508E0,8.075776696E-2,-1.022931710E-1,9.899705887E0,9.900563739E0
2.715472821E0,9.511470050E-2,-1.022931710E-1,9.863813400E0,9.864802355E0
2.717916415E0,6.879365444E-2,-7.357929647E-2,9.878170013E0,9.878683581E0
2.720360946E0,8.075776696E-2,-1.142572835E-1,9.911669731E0,9.912657232E0
2.722806206E0,6.400800496E-2,-1.022931710E-1,9.873384476E0,9.874121830E0
2.725249800E0,8.075776696E-2,-7.836493850E-2,9.866206169E0,9.866847878E0
2.727694331E0,6.640082598E-2,-8.554340899E-2,9.873384476E0,9.873978314E0
2.730138706E0,6.879365444E-2,-1.118644550E-1,9.873384476E0,9.874257806E0
2.732583237E0,6.161518395E-2,-1.118644550E-1,9.878170013E0,9.878995541E0
2.735028498E0,5.682953820E-2,-9.272187948E-2,9.870991707E0,9.871590764E0
2.737472092E0,5.682953820E-2,-1.094716340E-1,9.873384476E0,9.874154882E0
2.739916623E0,7.836493850E-2,-8.554340899E-2,9.890133858E0,9.890814247E0
2.742361883E0,8.793623000E-2,-9.511470050E-2,9.873384476E0,9.874234177E0
2.744805477E0,8.315058798E-2,-1.070788130E-1,9.863813400E0,9.864745039E0
2.747250008E0,8.793623000E-2,-1.094716340E-1,9.863813400E0,9.864812802E0
2.749694383E0,8.554340899E-2,-9.990034252E-2,9.868598938E0,9.869475303E0
2.752138915E0,8.554340899E-2,-8.554340899E-2,9.849455833E0,9.850198758E0
2.754584175E0,8.554340899E-2,-8.315058798E-2,9.873384476E0,9.874105159E0
2.757027769E0,5.682953820E-2,-9.272187948E-2,9.861420631E0,9.862020270E0
2.759472248E0,8.315058798E-2,-1.094716340E-1,9.892526627E0,9.893481749E0
2.761917508E0,7.836493850E-2,-9.750752151E-2,9.878170013E0,9.878962071E0
2.764361154E0,8.075776696E-2,-9.511470050E-2,9.880562782E0,9.881350592E0
2.766805633E0,6.879365444E-2,-1.070788130E-1,9.873384476E0,9.874204750E0
2.769250112E0,8.315058798E-2,-9.511470050E-2,9.866206169E0,9.867014999E0
2.771694487E0,7.836493850E-2,-9.272187948E-2,9.892526627E0,9.893271525E0
2.774139800E0,7.118647546E-2,-9.032905847E-2,9.880562782E0,9.881232097E0
2.776583446E0,8.075776696E-2,-1.046859920E-1,9.854242325E0,9.855129262E0
2.779027925E0,8.793623000E-2,-1.022931710E-1,9.882955551E0,9.883876117E0
2.781473185E0,6.640082598E-2,-1.022931710E-1,9.878170013E0,9.878922804E0
2.783916779E0,6.640082598E-2,-9.032905847E-2,9.878170013E0,9.878806164E0
2.786361310E0,8.315058798E-2,-9.511470050E-2,9.894919395E0,9.895725879E0
2.788805790E0,9.511470050E-2,-9.990034252E-2,9.870991707E0,9.871955438E0
2.791250165E0,6.879365444E-2,-9.272187948E-2,9.861420631E0,9.862096470E0
2.793695477E0,6.640082598E-2,-9.990034252E-2,9.885348320E0,9.886076095E0
2.796139071E0,7.357929647E-2,-7.836493850E-2,9.854242325E0,9.854828602E0
2.798583602E0,5.922235921E-2,-1.118644550E-1,9.875777245E0,9.876588334E0
2.801028862E0,9.272187948E-2,-9.990034252E-2,9.870991707E0,9.871932673E0
2.803472456E0,6.879365444E-2,-1.022931710E-1,9.870991707E0,9.871761430E0
2.805916987E0,9.032905847E-2,-1.262213886E-1,9.875777245E0,9.876996880E0
2.808361362E0,7.118647546E-2,-9.032905847E-2,9.875777245E0,9.876446883E0
2.810805894E0,7.836493850E-2,-9.032905847E-2,9.870991707E0,9.871716045E0
2.813251154E0,7.118647546E-2,-1.070788130E-1,9.866206169E0,9.867044013E0
2.815694748E0,6.879365444E-2,-1.094716340E-1,9.880562782E0,9.881408680E0
2.818139279E0,8.315058798E-2,-9.511470050E-2,9.880562782E0,9.881370437E0
2.820584540E0,6.640082598E-2,-1.190429255E-1,9.885348320E0,9.886288065E0
2.823028133E0,5.443671346E-2,-1.022931710E-1,9.863813400E0,9.864494009E0
2.825472665E0,6.161518395E-2,-8.075776696E-2,9.890133858E0,9.890655487E0
2.827917040E0,7.597211748E-2,-9.272187948E-2,9.899705887E0,9.900431594E0
2.830361571E0,7.357929647E-2,-9.750752151E-2,9.894919395E0,9.895673371E0
2.832806831E0,7.118647546E-2,-9.990034252E-2,9.870991707E0,9.871753890E0
2.835250425E0,7.357929647E-2,-9.750752151E-2,9.866206169E0,9.866962339E0
2.837694956E0,7.357929647E-2,-7.357929647E-2,9.870991707E0,9.871540159E0
2.840140165E0,5.922235921E-2,-1.046859920E-1,9.892526627E0,9.893257780E0
2.842583810E0,8.075776696E-2,-9.272187948E-2,9.894919395E0,9.895683352E0
2.845028290E0,8.075776696E-2,-9.032905847E-2,9.873384476E0,9.874127919E0
2.847472769E0,5.922235921E-2,-9.032905847E-2,9.873384476E0,9.873975270E0
2.849917144E0,9.032905847E-2,-1.022931710E-1,9.870991707E0,9.871934993E0
2.852362456E0,7.597211748E-2,-1.046859920E-1,9.875777245E0,9.876624277E0
2.854806102E0,7.357929647E-2,-1.022931710E-1,9.894919395E0,9.895721684E0
2.857250581E0,7.597211748E-2,-1.166501045E-1,9.887741089E0,9.888720992E0
2.859695842E0,9.032905847E-2,-1.094716340E-1,9.878170013E0,9.879189551E0
2.862139435E0,8.075776696E-2,-1.118644550E-1,9.878170013E0,9.879133479E0
2.864583967E0,8.075776696E-2,-9.750752151E-2,9.875777245E0,9.876588769E0
2.867028446E0,6.879365444E-2,-1.094716340E-1,9.863813400E0,9.864660734E0
2.869472821E0,8.315058798E-2,-1.022931710E-1,9.880562782E0,9.881442142E0
2.871918133E0,9.272187948E-2,-1.070788130E-1,9.866206169E0,9.867222881E0
2.874361727E0,6.640082598E-2,-9.511470050E-2,9.875777245E0,9.876458478E0
2.876806258E0,7.357929647E-2,-1.022931710E-1,9.880562782E0,9.881366237E0
2.879251519E0,8.793623000E-2,-9.272187948E-2,9.854242325E0,9.855070874E0
2.881695112E0,7.836493850E-2,-1.022931710E-1,9.866206169E0,9.867047640E0
2.884139644E0,6.879365444E-2,-1.046859920E-1,9.875777245E0,9.876571668E0
2.886584019E0,7.836493850E-2,-8.315058798E-2,9.890133858E0,9.890793841E0
2.889028550E0,7.357929647E-2,-9.990034252E-2,9.875777245E0,9.876556595E0
2.891473810E0,6.879365444E-2,-9.750752151E-2,9.878170013E0,9.878890783E0
2.893917404E0,4.725824669E-2,-9.272187948E-2,9.878170013E0,9.878718212E0
2.896361935E0,7.118647546E-2,-1.166501045E-1,9.861420631E0,9.862367446E0
2.898807196E0,6.640082598E-2,-1.046859920E-1,9.866206169E0,9.866984970E0
2.901250790E0,5.922235921E-2,-8.075776696E-2,9.885348320E0,9.885855578E0
2.903695321E0,7.357929647E-2,-1.118644550E-1,9.878170013E0,9.879077405E0
2.906139696E0,7.357929647E-2,-1.094716340E-1,9.859027863E0,9.859910159E0
2.908584227E0,8.075776696E-2,-1.022931710E-1,9.878170013E0,9.879029736E0
2.911029487E0,8.554340899E-2,-9.990034252E-2,9.875777245E0,9.876652972E0
2.913473081E0,6.161518395E-2,-9.990034252E-2,9.878170013E0,9.878867310E0
2.915917612E0,6.161518395E-2,-9.990034252E-2,9.897313118E0,9.898009066E0
2.918362821E0,7.836493850E-2,-1.142572835E-1,9.887741089E0,9.888711728E0
2.920806467E0,7.597211748E-2,-9.032905847E-2,9.882955551E0,9.883660330E0
2.923250946E0,6.879365444E-2,-9.272187948E-2,9.873384476E0,9.874059495E0
2.925695425E0,7.118647546E-2,-1.046859920E-1,9.880562782E0,9.881373769E0
2.928139904E0,6.879365444E-2,-1.070788130E-1,9.873384476E0,9.874204750E0
2.930585112E0,8.075776696E-2,-8.315058798E-2,9.875777245E0,9.876457463E0
2.933028758E0,7.836493850E-2,-1.046859920E-1,9.870991707E0,9.871857854E0
2.935473237E0,7.357929647E-2,-1.094716340E-1,9.882955551E0,9.883835712E0
2.937918498E0,5.443671346E-2,-9.272187948E-2,9.873384476E0,9.873969906E0
2.940362144E0,8.315058798E-2,-1.070788130E-1,9.887741089E0,9.888670473E0
2.942806623E0,6.400800496E-2,-9.511470050E-2,9.885348320E0,9.886013111E0
2.945251102E0,7.357929647E-2,-1.046859920E-1,9.870991707E0,9.871821025E0
2.947695477E0,8.315058798E-2,-9.990034252E-2,9.885348320E0,9.886202785E0
2.950140790E0,8.793623000E-2,-1.190429255E-1,9.873384476E0,9.874493658E0
2.952584435E0,7.836493850E-2,-1.070788130E-1,9.885348320E0,9.886238837E0
2.955028915E0,5.204389244E-2,-1.046859920E-1,9.890133858E0,9.890824811E0
2.957474175E0,6.161518395E-2,-1.166501045E-1,9.882955551E0,9.883836001E0
2.959917769E0,6.640082598E-2,-9.272187948E-2,9.887741089E0,9.888398771E0
2.962362300E0,7.597211748E-2,-9.750752151E-2,9.870991707E0,9.871765635E0
2.964806779E0,6.161518395E-2,-9.990034252E-2,9.902098656E0,9.902794267E0
2.967251154E0,7.836493850E-2,-8.793623000E-2,9.866206169E0,9.866909243E0
2.969696467E0,8.315058798E-2,-9.272187948E-2,9.861420631E0,9.862207067E0
2.972140060E0,7.597211748E-2,-8.554340899E-2,9.880562782E0,9.881225143E0
2.974584592E0,8.075776696E-2,-8.315058798E-2,9.873384476E0,9.874064859E0
2.977029852E0,8.793623000E-2,-1.070788130E-1,9.882955551E0,9.883926805E0
2.979473446E0,7.357929647E-2,-1.046859920E-1,9.873384476E0,9.874213593E0
2.981917977E0,7.118647546E-2,-9.032905847E-2,9.873384476E0,9.874054277E0
2.984362352E0,5.443671346E-2,-9.272187948E-2,9.870991707E0,9.871577279E0
2.986806883E0,7.357929647E-2,-9.750752151E-2,9.897313118E0,9.898066912E0
2.989252144E0,7.597211748E-2,-8.793623000E-2,9.875777245E0,9.876460941E0
2.991695737E0,7.118647546E-2,-1.022931710E-1,9.894919395E0,9.895704182E0
2.994140269E0,9.032905847E-2,-9.750752151E-2,9.897313118E0,9.898205596E0
2.996585529E0,7.597211748E-2,-8.315058798E-2,9.887741089E0,9.888382559E0
2.999029123E0,7.118647546E-2,-1.046859920E-1,9.902098656E0,9.902907879E0
3.001473602E0,7.118647546E-2,-1.118644550E-1,9.863813400E0,9.864704555E0
3.003918081E0,7.118647546E-2,-1.094716340E-1,9.863813400E0,9.864677711E0
3.006362560E0,8.075776696E-2,-1.118644550E-1,9.868598938E0,9.869563337E0
3.008807769E0,6.640082598E-2,-1.070788130E-1,9.875777245E0,9.876580943E0
3.011251415E0,6.400800496E-2,-1.238285750E-1,9.890133858E0,9.891116128E0
3.013695894E0,6.879365444E-2,-1.094716340E-1,9.892526627E0,9.893371501E0
3.016141154E0,5.682953820E-2,-1.190429255E-1,9.878170013E0,9.879050745E0
3.018584800E0,7.836493850E-2,-1.142572835E-1,9.887741089E0,9.888711728E0
3.021029279E0,7.836493850E-2,-1.262213886E-1,9.868598938E0,9.869717215E0
3.023473758E0,8.554340899E-2,-1.310070455E-1,9.868598938E0,9.869839184E0
3.025918133E0,6.161518395E-2,-1.022931710E-1,9.868598938E0,9.869321422E0
3.028363446E0,6.400800496E-2,-1.142572835E-1,9.859027863E0,9.859897674E0
3.030807092E0,6.879365444E-2,-9.511470050E-2,9.887741089E0,9.888437855E0
3.033251571E0,7.118647546E-2,-9.511470050E-2,9.868598938E0,9.869314025E0
3.035696831E0,6.879365444E-2,-9.272187948E-2,9.875777245E0,9.876452101E0
3.038140425E0,8.315058798E-2,-9.511470050E-2,9.882955551E0,9.883763011E0
3.040584956E0,7.357929647E-2,-9.990034252E-2,9.887741089E0,9.888519496E0
3.043029435E0,8.315058798E-2,-1.046859920E-1,9.873384476E0,9.874289553E0
3.045473810E0,5.922235921E-2,-9.511470050E-2,9.887741089E0,9.888375900E0
3.047919123E0,7.118647546E-2,-8.075776696E-2,9.861420631E0,9.862008224E0
3.050362717E0,5.922235921E-2,-1.022931710E-1,9.863813400E0,9.864521579E0
3.052807248E0,8.075776696E-2,-1.214357466E-1,9.880562782E0,9.881639001E0
3.055252508E0,6.640082598E-2,-1.070788130E-1,9.878170013E0,9.878973517E0
3.057696102E0,8.075776696E-2,-1.142572835E-1,9.861420631E0,9.862413164E0
3.060140633E0,6.640082598E-2,-9.272187948E-2,9.880562782E0,9.881220942E0
3.062585008E0,6.640082598E-2,-1.094716340E-1,9.873384476E0,9.874214607E0
3.065029540E0,7.118647546E-2,-8.554340899E-2,9.854242325E0,9.854870724E0
3.067474800E0,7.597211748E-2,-9.750752151E-2,9.868598938E0,9.869373054E0
3.069918394E0,7.357929647E-2,-1.070788130E-1,9.897313118E0,9.898165827E0
3.072362925E0,7.836493850E-2,-1.046859920E-1,9.878170013E0,9.879035532E0
3.074808185E0,6.640082598E-2,-9.750752151E-2,9.887741089E0,9.888444803E0
3.077251779E0,7.836493850E-2,-8.315058798E-2,9.856635094E0,9.857297320E0
3.079696310E0,8.315058798E-2,-9.990034252E-2,9.870991707E0,9.871847415E0
3.082140685E0,6.879365444E-2,-9.511470050E-2,9.882955551E0,9.883652655E0
3.084585217E0,7.836493850E-2,-9.750752151E-2,9.863813400E0,9.864606610E0
3.087030477E0,5.682953820E-2,-1.022931710E-1,9.892526627E0,9.893218715E0
3.089474071E0,5.922235921E-2,-8.793623000E-2,9.875777245E0,9.876346301E0
3.091918550E0,4.247260094E-2,-1.046859920E-1,9.868598938E0,9.869245568E0
3.094363810E0,7.118647546E-2,-1.094716340E-1,9.859027863E0,9.859892593E0
3.096807456E0,8.793623000E-2,-1.022931710E-1,9.868598938E0,9.869520843E0
3.099251935E0,6.640082598E-2,-1.238285750E-1,9.875777245E0,9.876776740E0
3.101696415E0,7.597211748E-2,-1.190429255E-1,9.890133858E0,9.891142032E0
3.104140790E0,7.357929647E-2,-9.990034252E-2,9.887741089E0,9.888519496E0
3.106586102E0,5.922235921E-2,-9.750752151E-2,9.897313118E0,9.897970598E0
3.109029748E0,8.315058798E-2,-9.032905847E-2,9.875777245E0,9.876540363E0
3.111474227E0,7.836493850E-2,-9.272187948E-2,9.880562782E0,9.881308583E0
3.113919487E0,6.879365444E-2,-1.142572835E-1,9.892526627E0,9.893425613E0
3.116363081E0,8.315058798E-2,-1.022931710E-1,9.894919395E0,9.895797480E0
3.118807612E0,7.357929647E-2,-1.046859920E-1,9.906884193E0,9.907710507E0
3.121252092E0,7.118647546E-2,-1.166501045E-1,9.868598938E0,9.869545063E0
3.123696467E0,7.836493850E-2,-9.511470050E-2,9.894919395E0,9.895686824E0
3.126141779E0,8.793623000E-2,-1.118644550E-1,9.875777245E0,9.876802247E0
3.128585373E0,7.357929647E-2,-1.022931710E-1,9.873384476E0,9.874188514E0
3.131029904E0,9.750752151E-2,-1.070788130E-1,9.875777245E0,9.876839058E0
3.133475165E0,7.118647546E-2,-1.166501045E-1,9.861420631E0,9.862367446E0
3.135918758E0,7.357929647E-2,-8.554340899E-2,9.887741089E0,9.888384875E0
3.138363290E0,8.315058798E-2,-1.070788130E-1,9.859027863E0,9.859959954E0
3.140807665E0,7.597211748E-2,-1.142572835E-1,9.892526627E0,9.893478132E0
3.143252196E0,7.836493850E-2,-9.750752151E-2,9.909276962E0,9.910066533E0
3.145697456E0,7.357929647E-2,-9.750752151E-2,9.875777245E0,9.876532682E0
3.148141050E0,7.357929647E-2,-9.272187948E-2,9.890133858E0,9.890842178E0
3.150585581E0,7.357929647E-2,-1.118644550E-1,9.861420631E0,9.862329564E0
3.153030842E0,7.836493850E-2,-9.750752151E-2,9.880562782E0,9.881354648E0
3.155474435E0,7.836493850E-2,-1.094716340E-1,9.866206169E0,9.867124671E0
3.157918967E0,7.118647546E-2,-9.272187948E-2,9.873384476E0,9.874076456E0
3.160363342E0,6.161518395E-2,-1.046859920E-1,9.890133858E0,9.890879805E0
3.162807873E0,7.118647546E-2,-9.272187948E-2,9.870991707E0,9.871683855E0
3.165253133E0,5.922235921E-2,-9.750752151E-2,9.875777245E0,9.876436158E0
3.167696727E0,8.554340899E-2,-9.990034252E-2,9.861420631E0,9.862297634E0
3.170141206E0,6.879365444E-2,-9.511470050E-2,9.882955551E0,9.883652655E0
3.172586467E0,8.075776696E-2,-9.750752151E-2,9.885348320E0,9.886159059E0
3.175030112E0,7.836493850E-2,-9.511470050E-2,9.878170013E0,9.878938743E0
3.177474592E0,6.879365444E-2,-1.142572835E-1,9.870991707E0,9.871892654E0
3.179919071E0,4.725824669E-2,-1.118644550E-1,9.878170013E0,9.878916429E0
3.182363550E0,7.836493850E-2,-1.166501045E-1,9.868598938E0,9.869599450E0
3.184808758E0,7.597211748E-2,-9.990034252E-2,9.887741089E0,9.888537591E0
3.187252404E0,7.357929647E-2,-9.272187948E-2,9.878170013E0,9.878879191E0
3.189696883E0,6.640082598E-2,-9.032905847E-2,9.878170013E0,9.878806164E0
3.192142144E0,8.554340899E-2,-9.272187948E-2,9.885348320E0,9.886153268E0
3.194585790E0,6.879365444E-2,-9.032905847E-2,9.866206169E0,9.866859484E0
3.197030269E0,8.793623000E-2,-9.990034252E-2,9.868598938E0,9.869496333E0
3.199474748E0,7.836493850E-2,-8.075776696E-2,9.873384476E0,9.874025718E0
3.201919123E0,5.682953820E-2,-1.166501045E-1,9.854242325E0,9.855096582E0
3.204364435E0,6.161518395E-2,-8.793623000E-2,9.873384476E0,9.873968312E0
3.206808029E0,6.400800496E-2,-8.315058798E-2,9.894919395E0,9.895475779E0
3.209252560E0,7.118647546E-2,-1.214357466E-1,9.878170013E0,9.879172889E0
3.211697821E0,7.597211748E-2,-1.070788130E-1,9.866206169E0,9.867079700E0
3.214141415E0,6.879365444E-2,-1.118644550E-1,9.861420631E0,9.862295022E0
3.216585946E0,7.597211748E-2,-1.118644550E-1,9.863813400E0,9.864740251E0
3.219030321E0,7.118647546E-2,-1.022931710E-1,9.890133858E0,9.890919024E0
3.221474852E0,5.922235921E-2,-1.070788130E-1,9.887741089E0,9.888498218E0
3.223920112E0,7.118647546E-2,-9.750752151E-2,9.880562782E0,9.881300326E0
3.226363706E0,8.315058798E-2,-1.142572835E-1,9.863813400E0,9.864825571E0
3.228808237E0,6.400800496E-2,-1.118644550E-1,9.887741089E0,9.888581017E0
3.231253498E0,6.161518395E-2,-9.750752151E-2,9.866206169E0,9.866880374E0
3.233697092E0,7.836493850E-2,-9.990034252E-2,9.875777245E0,9.876593407E0
3.236141623E0,6.161518395E-2,-1.022931710E-1,9.856635094E0,9.857358454E0
3.238585998E0,5.443671346E-2,-1.070788130E-1,9.868598938E0,9.869329979E0
3.241030529E0,6.640082598E-2,-9.990034252E-2,9.878170013E0,9.878898317E0
3.243475790E0,6.879365444E-2,-1.118644550E-1,9.894919395E0,9.895790826E0
3.245919383E0,7.118647546E-2,-1.214357466E-1,9.887741089E0,9.888742994E0
3.248363915E0,6.879365444E-2,-1.022931710E-1,9.897313118E0,9.898080795E0
3.250809175E0,7.357929647E-2,-9.990034252E-2,9.866206169E0,9.866986276E0
3.253252769E0,6.879365444E-2,-1.046859920E-1,9.875777245E0,9.876571668E0
3.255697248E0,7.357929647E-2,-9.750752151E-2,9.870991707E0,9.871747510E0
3.258141727E0,9.032905847E-2,-9.990034252E-2,9.873384476E0,9.874303035E0
3.260586206E0,7.118647546E-2,-1.166501045E-1,9.902098656E0,9.903041581E0
3.263031415E0,6.400800496E-2,-1.046859920E-1,9.868598938E0,9.869361741E0
3.265475060E0,8.315058798E-2,-9.511470050E-2,9.887741089E0,9.888548158E0
3.267919540E0,8.075776696E-2,-8.554340899E-2,9.859027863E0,9.859729707E0
3.270364800E0,5.443671346E-2,-9.750752151E-2,9.887741089E0,9.888371702E0
3.272808446E0,7.118647546E-2,-8.793623000E-2,9.859027863E0,9.859677007E0
3.275252925E0,8.075776696E-2,-8.554340899E-2,9.885348320E0,9.886048295E0
3.277697404E0,6.640082598E-2,-9.272187948E-2,9.866206169E0,9.866865287E0
3.280141779E0,7.597211748E-2,-1.070788130E-1,9.859027863E0,9.859902029E0
3.282587092E0,8.793623000E-2,-9.750752151E-2,9.880562782E0,9.881435189E0
3.285030737E0,8.075776696E-2,-8.554340899E-2,9.866206169E0,9.866907503E0
3.287475217E0,6.161518395E-2,-9.750752151E-2,9.863813400E0,9.864487769E0
3.289920477E0,6.879365444E-2,-1.046859920E-1,9.870991707E0,9.871786515E0
3.292364071E0,7.836493850E-2,-1.094716340E-1,9.870991707E0,9.871909764E0
3.294808602E0,6.879365444E-2,-9.750752151E-2,9.870991707E0,9.871713000E0
3.297253081E0,9.511470050E-2,-9.511470050E-2,9.887741089E0,9.888655998E0
3.299697456E0,5.922235921E-2,-8.554340899E-2,9.882955551E0,9.883503194E0
3.302142769E0,7.357929647E-2,-1.022931710E-1,9.873384476E0,9.874188514E0
3.304586362E0,7.118647546E-2,-1.118644550E-1,9.868598938E0,9.869489661E0
3.307030894E0,8.315058798E-2,-7.836493850E-2,9.854242325E0,9.854904712E0
3.309476154E0,5.922235921E-2,-1.094716340E-1,9.854242325E0,9.855028317E0
3.311919748E0,7.836493850E-2,-9.990034252E-2,9.880562782E0,9.881378549E0
3.314364279E0,6.879365444E-2,-9.750752151E-2,9.863813400E0,9.864535219E0
3.316808654E0,7.836493850E-2,-9.990034252E-2,9.873384476E0,9.874200836E0
3.319253185E0,7.118647546E-2,-1.286142170E-1,9.887741089E0,9.888833752E0
3.321698446E0,7.118647546E-2,-1.046859920E-1,9.882955551E0,9.883766342E0
3.324142040E0,8.315058798E-2,-1.094716340E-1,9.882955551E0,9.883911598E0
3.326586571E0,6.161518395E-2,-1.094716340E-1,9.875777245E0,9.876576160E0
3.329031831E0,9.750752151E-2,-1.142572835E-1,9.880562782E0,9.881704475E0
3.331475425E0,7.118647546E-2,-1.094716340E-1,9.875777245E0,9.876640509E0
3.333919956E0,6.161518395E-2,-9.032905847E-2,9.902098656E0,9.902702336E0
3.336364331E0,7.357929647E-2,-9.511470050E-2,9.878170013E0,9.878901940E0
3.338808862E0,8.075776696E-2,-9.511470050E-2,9.863813400E0,9.864602547E0
3.341254071E0,7.118647546E-2,-9.511470050E-2,9.890133858E0,9.890847388E0
3.343697717E0,7.597211748E-2,-1.022931710E-1,9.861420631E0,9.862243788E0
3.346142248E0,6.879365444E-2,-1.094716340E-1,9.873384476E0,9.874230988E0
3.348587456E0,7.357929647E-2,-1.094716340E-1,9.868598938E0,9.869480379E0
3.351031102E0,8.793623000E-2,-1.070788130E-1,9.863813400E0,9.864786538E0
3.353475581E0,6.640082598E-2,-1.070788130E-1,9.887741089E0,9.888543815E0
3.355920060E0,5.922235921E-2,-1.142572835E-1,9.861420631E0,9.862260333E0
3.358364540E0,8.315058798E-2,-1.118644550E-1,9.897313118E0,9.898294531E0
3.360809748E0,6.161518395E-2,-9.750752151E-2,9.873384476E0,9.874058191E0
3.363253394E0,7.357929647E-2,-9.511470050E-2,9.873384476E0,9.874116757E0
3.365697873E0,7.357929647E-2,-1.022931710E-1,9.880562782E0,9.881366237E0
3.368143133E0,7.118647546E-2,-9.750752151E-2,9.902098656E0,9.902834595E0
3.370586727E0,8.554340899E-2,-1.142572835E-1,9.870991707E0,9.872023586E0
3.373031258E0,8.315058798E-2,-9.990034252E-2,9.866206169E0,9.867062292E0
3.375475737E0,9.032905847E-2,-1.046859920E-1,9.866206169E0,9.867175009E0
3.377920112E0,6.879365444E-2,-1.118644550E-1,9.902098656E0,9.902969454E0
3.380365425E0,8.075776696E-2,-1.022931710E-1,9.847063065E0,9.847925503E0
3.382809019E0,6.640082598E-2,-1.070788130E-1,9.880562782E0,9.881366092E0
3.385253550E0,6.400800496E-2,-1.070788130E-1,9.878170013E0,9.878957724E0
3.387698810E0,6.879365444E-2,-9.511470050E-2,9.859027863E0,9.859726658E0
3.390142404E0,6.640082598E-2,-1.214357466E-1,9.873384476E0,9.874354496E0
3.392586935E0,6.640082598E-2,-1.046859920E-1,9.880562782E0,9.881340452E0
3.395031310E0,7.118647546E-2,-1.070788130E-1,9.868598938E0,9.869436579E0
3.397475842E0,5.922235921E-2,-1.094716340E-1,9.868598938E0,9.869383787E0
3.399921102E0,5.922235921E-2,-8.554340899E-2,9.885348320E0,9.885895830E0
3.402364696E0,6.161518395E-2,-1.046859920E-1,9.866206169E0,9.866953925E0
3.404809227E0,7.357929647E-2,-1.166501045E-1,9.866206169E0,9.867170077E0
3.407254487E0,7.836493850E-2,-1.190429255E-1,9.875777245E0,9.876805580E0
3.409698081E0,7.597211748E-2,-8.315058798E-2,9.892526627E0,9.893167786E0
3.412142612E0,7.836493850E-2,-7.597211748E-2,9.885348320E0,9.885950851E0
3.414586987E0,6.640082598E-2,-1.166501045E-1,9.878170013E0,9.879081897E0
3.417031519E0,7.118647546E-2,-9.750752151E-2,9.878170013E0,9.878907735E0
3.419476779E0,8.075776696E-2,-9.511470050E-2,9.854242325E0,9.855032238E0
3.421920373E0,9.511470050E-2,-1.046859920E-1,9.844670296E0,9.845686324E0
3.424364904E0,6.400800496E-2,-9.272187948E-2,9.890133858E0,9.890775606E0
3.426810165E0,7.597211748E-2,-1.046859920E-1,9.882955551E0,9.883801968E0
3.429253758E0,6.879365444E-2,-9.990034252E-2,9.880562782E0,9.881307279E0
3.431698237E0,6.640082598E-2,-1.070788130E-1,9.861420631E0,9.862225500E0
3.434142717E0,6.640082598E-2,-1.190429255E-1,9.861420631E0,9.862362656E0
3.436587196E0,7.118647546E-2,-9.032905847E-2,9.866206169E0,9.866876457E0
3.439032404E0,5.682953820E-2,-1.190429255E-1,9.868598938E0,9.869480524E0
3.441476050E0,5.443671346E-2,-8.554340899E-2,9.868598938E0,9.869119820E0
3.443920529E0,8.315058798E-2,-1.190429255E-1,9.892526627E0,9.893592285E0
3.446365790E0,8.315058798E-2,-8.554340899E-2,9.892526627E0,9.893245916E0
3.448809435E0,5.682953820E-2,-1.022931710E-1,9.880562782E0,9.881255709E0
3.451253915E0,6.879365444E-2,-9.032905847E-2,9.873384476E0,9.874037316E0
3.453698394E0,7.836493850E-2,-1.094716340E-1,9.866206169E0,9.867124671E0
3.456142769E0,7.836493850E-2,-1.094716340E-1,9.878170013E0,9.879087403E0
3.458588081E0,7.836493850E-2,-7.836493850E-2,9.880562782E0,9.881184292E0
3.461031727E0,7.597211748E-2,-9.511470050E-2,9.878170013E0,9.878920051E0
3.463476206E0,6.161518395E-2,-1.022931710E-1,9.842277527E0,9.843001942E0
3.465921467E0,6.879365444E-2,-1.094716340E-1,9.890133858E0,9.890978937E0
3.468365060E0,7.118647546E-2,-1.046859920E-1,9.897313118E0,9.898122732E0
3.470809592E0,9.032905847E-2,-1.070788130E-1,9.880562782E0,9.881555855E0
3.473254071E0,4.725824669E-2,-1.046859920E-1,9.875777245E0,9.876445144E0
3.475698446E0,8.554340899E-2,-9.272187948E-2,9.870991707E0,9.871797825E0
3.478143758E0,8.075776696E-2,-9.511470050E-2,9.859027863E0,9.859817393E0
3.480587352E0,7.357929647E-2,-9.750752151E-2,9.870991707E0,9.871747510E0
3.483031883E0,7.836493850E-2,-9.511470050E-2,9.870991707E0,9.871760995E0
3.485477144E0,8.793623000E-2,-9.750752151E-2,9.882955551E0,9.883827747E0
3.487920737E0,6.879365444E-2,-9.750752151E-2,9.904491425E0,9.905210279E0
3.490365269E0,8.554340899E-2,-1.118644550E-1,9.859027863E0,9.860033556E0
3.492809644E0,7.118647546E-2,-1.046859920E-1,9.875777245E0,9.876588624E0
3.495254175E0,7.597211748E-2,-1.118644550E-1,9.873384476E0,9.874310428E0
3.497699435E0,5.922235921E-2,-9.511470050E-2,9.868598938E0,9.869234980E0
3.500143029E0,5.682953820E-2,-1.046859920E-1,9.880562782E0,9.881280770E0
3.502587560E0,7.118647546E-2,-8.315058798E-2,9.856635094E0,9.857242865E0
3.505032821E0,9.032905847E-2,-9.272187948E-2,9.863813400E0,9.864662766E0
3.507476415E0,8.075776696E-2,-1.094716340E-1,9.873384476E0,9.874321590E0
3.509920894E0,7.118647546E-2,-1.022931710E-1,9.885348320E0,9.886133866E0
3.512365373E0,6.879365444E-2,-1.166501045E-1,9.866206169E0,9.867135551E0
3.514809852E0,6.400800496E-2,-1.142572835E-1,9.875777245E0,9.876645581E0
3.517255112E0,8.075776696E-2,-1.118644550E-1,9.863813400E0,9.864778268E0
3.519698706E0,5.443671346E-2,-1.046859920E-1,9.870991707E0,9.871696905E0
3.522143237E0,6.400800496E-2,-1.094716340E-1,9.882955551E0,9.883769093E0
3.524588446E0,8.315058798E-2,-8.075776696E-2,9.885348320E0,9.886027880E0
3.527032092E0,7.357929647E-2,-8.793623000E-2,9.866206169E0,9.866872395E0
3.529476571E0,7.597211748E-2,-1.070788130E-1,9.873384476E0,9.874257372E0
3.531921050E0,6.879365444E-2,-1.022931710E-1,9.878170013E0,9.878939178E0
3.534365425E0,8.554340899E-2,-1.118644550E-1,9.880562782E0,9.881566284E0
3.536810737E0,7.118647546E-2,-9.990034252E-2,9.859027863E0,9.859790971E0
3.539254383E0,9.032905847E-2,-1.118644550E-1,9.880562782E0,9.881608872E0
3.541698862E0,8.075776696E-2,-1.070788130E-1,9.885348320E0,9.886258094E0
3.544144123E0,8.075776696E-2,-9.032905847E-2,9.875777245E0,9.876520508E0
3.546587769E0,6.640082598E-2,-1.142572835E-1,9.892526627E0,9.893409263E0
3.549032248E0,6.640082598E-2,-1.118644550E-1,9.842277527E0,9.843137185E0
3.551476727E0,8.075776696E-2,-1.046859920E-1,9.882955551E0,9.883839912E0
3.553921102E0,7.597211748E-2,-9.272187948E-2,9.863813400E0,9.864541748E0
3.556366415E0,8.315058798E-2,-1.118644550E-1,9.870991707E0,9.871975737E0
3.558810060E0,6.161518395E-2,-1.070788130E-1,9.861420631E0,9.862194440E0
3.561254540E0,8.315058798E-2,-9.750752151E-2,9.861420631E0,9.862253222E0
3.563699800E0,6.400800496E-2,-9.032905847E-2,9.885348320E0,9.885968226E0
3.566143394E0,8.315058798E-2,-9.990034252E-2,9.873384476E0,9.874239976E0
3.568587925E0,7.118647546E-2,-1.070788130E-1,9.885348320E0,9.886184542E0
3.571032300E0,7.597211748E-2,-1.190429255E-1,9.885348320E0,9.886356983E0
3.573476831E0,9.511470050E-2,-1.118644550E-1,9.863813400E0,9.864906247E0
3.575922092E0,7.836493850E-2,-9.750752151E-2,9.875777245E0,9.876569494E0
3.578365685E0,6.640082598E-2,-8.554340899E-2,9.863813400E0,9.864407815E0
3.580810217E0,8.075776696E-2,-9.511470050E-2,9.897313118E0,9.898099594E0
3.583255477E0,8.315058798E-2,-8.315058798E-2,9.868598938E0,9.869299521E0
3.585699071E0,6.879365444E-2,-1.070788130E-1,9.875777245E0,9.876597320E0
3.588143602E0,8.554340899E-2,-1.022931710E-1,9.875777245E0,9.876677465E0
3.590587977E0,7.836493850E-2,-1.094716340E-1,9.875777245E0,9.876694856E0
3.593032508E0,8.554340899E-2,-1.118644550E-1,9.866206169E0,9.867211131E0
3.595477769E0,7.357929647E-2,-1.022931710E-1,9.847063065E0,9.847869252E0
3.597921362E0,7.357929647E-2,-9.750752151E-2,9.882955551E0,9.883710440E0
3.600365894E0,7.118647546E-2,-9.272187948E-2,9.856635094E0,9.857328250E0
3.602811102E0,7.597211748E-2,-9.511470050E-2,9.859027863E0,9.859779357E0
3.605254748E0,6.879365444E-2,-1.166501045E-1,9.870991707E0,9.871920638E0
3.607699227E0,7.836493850E-2,-1.166501045E-1,9.854242325E0,9.855244295E0
3.610143706E0,6.879365444E-2,-1.022931710E-1,9.866206169E0,9.866976266E0
3.612588185E0,7.836493850E-2,-1.238285750E-1,9.880562782E0,9.881649431E0
3.615033394E0,7.118647546E-2,-1.022931710E-1,9.870991707E0,9.871778395E0
3.617477040E0,8.554340899E-2,-9.511470050E-2,9.878170013E0,9.878998294E0
3.619921519E0,7.597211748E-2,-1.046859920E-1,9.875777245E0,9.876624277E0
3.622366779E0,7.357929647E-2,-1.022931710E-1,9.866206169E0,9.867010792E0
3.624810425E0,6.161518395E-2,-1.166501045E-1,9.856635094E0,9.857517895E0
3.627254904E0,6.879365444E-2,-9.750752151E-2,9.880562782E0,9.881283377E0
3.629699383E0,7.357929647E-2,-9.750752151E-2,9.868598938E0,9.869354925E0
3.632143758E0,7.357929647E-2,-9.750752151E-2,9.856635094E0,9.857391998E0
3.634589071E0,6.400800496E-2,-1.142572835E-1,9.875777245E0,9.876645581E0
3.637032717E0,7.118647546E-2,-9.750752151E-2,9.859027863E0,9.859767017E0
3.639477196E0,7.357929647E-2,-1.046859920E-1,9.882955551E0,9.883783865E0
3.641922456E0,6.640082598E-2,-9.990034252E-2,9.870991707E0,9.871720540E0
3.644366050E0,7.357929647E-2,-8.793623000E-2,9.873384476E0,9.874050218E0
3.646810581E0,8.315058798E-2,-9.511470050E-2,9.882955551E0,9.883763011E0
3.649255060E0,8.554340899E-2,-1.070788130E-1,9.880562782E0,9.881513267E0
3.651699435E0,7.357929647E-2,-1.070788130E-1,9.887741089E0,9.888594623E0
3.654144748E0,5.443671346E-2,-9.511470050E-2,9.866206169E0,9.866814802E0
3.656588342E0,7.597211748E-2,-9.032905847E-2,9.851848602E0,9.852555607E0
3.659032873E0,5.682953820E-2,-1.094716340E-1,9.863813400E0,9.864584554E0
3.661478133E0,5.204389244E-2,-1.142572835E-1,9.887741089E0,9.888538170E0
3.663921727E0,7.836493850E-2,-9.990034252E-2,9.890133858E0,9.890948835E0
3.666366258E0,6.879365444E-2,-1.094716340E-1,9.866206169E0,9.867053298E0
3.668810633E0,9.272187948E-2,-1.094716340E-1,9.863813400E0,9.864856622E0
3.671255165E0,6.640082598E-2,-1.070788130E-1,9.899705887E0,9.900507643E0
3.673700425E0,6.400800496E-2,-1.046859920E-1,9.887741089E0,9.888502416E0
3.676144019E0,9.032905847E-2,-9.990034252E-2,9.894919395E0,9.895835956E0
3.678588550E0,7.118647546E-2,-1.094716340E-1,9.878170013E0,9.879033068E0
3.681033810E0,6.879365444E-2,-1.142572835E-1,9.902098656E0,9.902996773E0
3.683477404E0,7.118647546E-2,-1.022931710E-1,9.873384476E0,9.874170973E0
3.685921935E0,6.879365444E-2,-9.750752151E-2,9.880562782E0,9.881283377E0
3.688366310E0,7.836493850E-2,-1.046859920E-1,9.887741089E0,9.888605769E0
3.690810842E0,6.879365444E-2,-1.142572835E-1,9.873384476E0,9.874285204E0
3.693256102E0,7.597211748E-2,-1.046859920E-1,9.873384476E0,9.874231713E0
3.695699696E0,8.075776696E-2,-9.032905847E-2,9.882955551E0,9.883698275E0
3.698144227E0,6.640082598E-2,-1.142572835E-1,9.861420631E0,9.862306052E0
3.700589435E0,6.640082598E-2,-9.990034252E-2,9.885348320E0,9.886076095E0
3.703033081E0,7.836493850E-2,-1.022931710E-1,9.880562782E0,9.881403030E0
3.705477560E0,7.357929647E-2,-1.022931710E-1,9.859027863E0,9.859833072E0
3.707922040E0,7.357929647E-2,-9.272187948E-2,9.873384476E0,9.874093997E0
3.710366519E0,7.357929647E-2,-1.022931710E-1,9.873384476E0,9.874188514E0
3.712811727E0,7.357929647E-2,-8.793623000E-2,9.868598938E0,9.869265003E0
3.715255373E0,9.511470050E-2,-1.022931710E-1,9.885348320E0,9.886335120E0
3.717699852E0,6.161518395E-2,-1.190429255E-1,9.892526627E0,9.893434727E0
3.720145112E0,8.075776696E-2,-9.511470050E-2,9.890133858E0,9.890920905E0
3.722588758E0,7.357929647E-2,-1.022931710E-1,9.880562782E0,9.881366237E0
3.725033237E0,8.315058798E-2,-1.046859920E-1,9.904491425E0,9.905393660E0
3.727477717E0,7.118647546E-2,-1.094716340E-1,9.859027863E0,9.859892593E0
3.729922092E0,7.597211748E-2,-9.511470050E-2,9.882955551E0,9.883705226E0
3.732367404E0,7.836493850E-2,-1.070788130E-1,9.868598938E0,9.869490966E0
3.734811050E0,7.357929647E-2,-9.511470050E-2,9.887741089E0,9.888472307E0
3.737255529E0,7.597211748E-2,-9.990034252E-2,9.873384476E0,9.874182136E0
3.739700790E0,8.315058798E-2,-9.990034252E-2,9.875777245E0,9.876632538E0
3.742144383E0,7.597211748E-2,-8.793623000E-2,9.878170013E0,9.878853545E0
3.744588915E0,6.879365444E-2,-9.990034252E-2,9.878170013E0,9.878914690E0
3.747033394E0,7.118647546E-2,-8.315058798E-2,9.875777245E0,9.876383838E0
3.749477769E0,8.075776696E-2,-9.750752151E-2,9.892526627E0,9.893336777E0
3.751923081E0,6.400800496E-2,-8.554340899E-2,9.868598938E0,9.869177255E0
3.754366675E0,6.161518395E-2,-1.070788130E-1,9.859027863E0,9.859801859E0
3.756811206E0,7.118647546E-2,-1.046859920E-1,9.859027863E0,9.859840621E0
3.759256467E0,6.640082598E-2,-9.750752151E-2,9.887741089E0,9.888444803E0
3.761700060E0,6.640082598E-2,-1.070788130E-1,9.863813400E0,9.864618074E0
3.764144592E0,8.315058798E-2,-1.046859920E-1,9.863813400E0,9.864719356E0
3.766588967E0,4.725824669E-2,-1.094716340E-1,9.880562782E0,9.881282218E0
3.769033498E0,6.161518395E-2,-1.022931710E-1,9.863813400E0,9.864536234E0
3.771478758E0,6.161518395E-2,-1.022931710E-1,9.868598938E0,9.869321422E0
3.773922352E0,5.682953820E-2,-1.190429255E-1,9.878170013E0,9.879050745E0
3.776366883E0,7.597211748E-2,-1.190429255E-1,9.863813400E0,9.864824265E0
3.778812144E0,5.443671346E-2,-8.793623000E-2,9.873384476E0,9.873926126E0
3.781255737E0,5.682953820E-2,-1.046859920E-1,9.866206169E0,9.866925201E0
3.783700217E0,4.725824669E-2,-9.272187948E-2,9.875777245E0,9.876325575E0
3.786144696E0,6.879365444E-2,-1.166501045E-1,9.887741089E0,9.888668447E0
3.788589175E0,6.879365444E-2,-1.046859920E-1,9.892526627E0,9.893319705E0
3.791034435E0,7.836493850E-2,-1.022931710E-1,9.870991707E0,9.871832770E0
3.793478029E0,7.357929647E-2,-1.070788130E-1,9.866206169E0,9.867061566E0
3.795922508E0,6.161518395E-2,-1.118644550E-1,9.894919395E0,9.895743526E0
3.798367769E0,7.597211748E-2,-9.272187948E-2,9.873384476E0,9.874112118E0
3.800811415E0,8.554340899E-2,-1.046859920E-1,9.880562782E0,9.881487627E0
3.803255894E0,8.075776696E-2,-1.046859920E-1,9.870991707E0,9.871877139E0
3.805700373E0,6.879365444E-2,-1.094716340E-1,9.878170013E0,9.879016116E0
3.808144748E0,8.315058798E-2,-1.070788130E-1,9.873384476E0,9.874315212E0
3.810590060E0,6.640082598E-2,-1.094716340E-1,9.870991707E0,9.871822040E0
3.813033706E0,8.075776696E-2,-8.793623000E-2,9.854242325E0,9.854965570E0
3.815478185E0,8.554340899E-2,-1.046859920E-1,9.882955551E0,9.883880172E0
3.817923446E0,9.272187948E-2,-9.272187948E-2,9.878170013E0,9.879040313E0
3.820367040E0,6.879365444E-2,-9.032905847E-2,9.870991707E0,9.871644705E0
3.822811571E0,5.922235921E-2,-1.022931710E-1,9.882955551E0,9.883662358E0
3.825256050E0,7.118647546E-2,-9.990034252E-2,9.880562782E0,9.881324227E0
3.827700425E0,7.836493850E-2,-1.022931710E-1,9.870991707E0,9.871832770E0
3.830145737E0,6.879365444E-2,-1.046859920E-1,9.880562782E0,9.881356821E0
3.832589331E0,7.357929647E-2,-9.272187948E-2,9.878170013E0,9.878879191E0
3.835033862E0,6.640082598E-2,-9.032905847E-2,9.878170013E0,9.878806164E0
3.837479123E0,7.357929647E-2,-1.070788130E-1,9.868598938E0,9.869454128E0
3.839922717E0,6.400800496E-2,-9.990034252E-2,9.870991707E0,9.871704735E0
3.842367248E0,8.315058798E-2,-1.166501045E-1,9.897313118E0,9.898349773E0
3.844811623E0,9.511470050E-2,-1.262213886E-1,9.892526627E0,9.893789047E0
3.847256154E0,8.554340899E-2,-1.118644550E-1,9.873384476E0,9.874388707E0
3.849701415E0,7.118647546E-2,-1.094716340E-1,9.887741089E0,9.888603309E0
3.852145008E0,7.118647546E-2,-9.990034252E-2,9.899705887E0,9.900465860E0
3.854589540E0,6.640082598E-2,-7.357929647E-2,9.880562782E0,9.881059856E0
3.857034800E0,6.400800496E-2,-1.094716340E-1,9.878170013E0,9.878983950E0
3.859478394E0,8.793623000E-2,-8.075776696E-2,9.870991707E0,9.871713725E0
3.861922925E0,7.836493850E-2,-9.032905847E-2,9.875777245E0,9.876501232E0
3.864367300E0,6.640082598E-2,-9.272187948E-2,9.885348320E0,9.886006161E0
3.866811831E0,6.400800496E-2,-8.554340899E-2,9.887741089E0,9.888318287E0
3.869257092E0,8.315058798E-2,-1.094716340E-1,9.887741089E0,9.888696673E0
3.871700685E0,7.118647546E-2,-1.022931710E-1,9.849455833E0,9.850244242E0
3.874145217E0,7.118647546E-2,-9.750752151E-2,9.887741089E0,9.888478097E0
3.876590425E0,7.597211748E-2,-9.990034252E-2,9.878170013E0,9.878967287E0
3.879034071E0,9.750752151E-2,-1.070788130E-1,9.866206169E0,9.867269012E0
3.881478550E0,6.161518395E-2,-9.511470050E-2,9.878170013E0,9.878820074E0
3.883923029E0,7.597211748E-2,-1.166501045E-1,9.885348320E0,9.886328460E0
3.886367508E0,7.597211748E-2,-9.750752151E-2,9.866206169E0,9.866980473E0
3.888812717E0,8.075776696E-2,-8.315058798E-2,9.878170013E0,9.878850067E0
3.891256362E0,9.750752151E-2,-8.315058798E-2,9.880562782E0,9.881393760E0
3.893700842E0,9.272187948E-2,-9.272187948E-2,9.873384476E0,9.874255197E0
3.896146102E0,8.075776696E-2,-1.142572835E-1,9.902098656E0,9.903087111E0
3.898589748E0,5.922235921E-2,-9.990034252E-2,9.856635094E0,9.857319247E0
3.901034227E0,6.161518395E-2,-9.272187948E-2,9.902098656E0,9.902724452E0
3.903478706E0,6.161518395E-2,-9.032905847E-2,9.878170013E0,9.878775156E0
3.905923081E0,6.161518395E-2,-9.750752151E-2,9.873384476E0,9.874058191E0
3.908368394E0,6.161518395E-2,-1.046859920E-1,9.873384476E0,9.874131688E0
3.910812040E0,7.118647546E-2,-1.214357466E-1,9.878170013E0,9.879172889E0
3.913256519E0,6.640082598E-2,-8.793623000E-2,9.861420631E0,9.862036236E0
3.915701779E0,7.357929647E-2,-9.032905847E-2,9.892526627E0,9.893212638E0
3.918145373E0,7.597211748E-2,-9.990034252E-2,9.868598938E0,9.869396985E0
3.920589904E0,7.118647546E-2,-1.190429255E-1,9.890133858E0,9.891106432E0
3.923034383E0,7.597211748E-2,-1.070788130E-1,9.885348320E0,9.886220160E0
3.925478758E0,7.357929647E-2,-1.142572835E-1,9.870991707E0,9.871927163E0
3.927924071E0,8.554340899E-2,-9.990034252E-2,9.868598938E0,9.869475303E0
3.930367665E0,6.640082598E-2,-9.750752151E-2,9.863813400E0,9.864518822E0
3.932812196E0,8.554340899E-2,-9.272187948E-2,9.885348320E0,9.886153268E0
3.935257456E0,7.597211748E-2,-9.511470050E-2,9.868598938E0,9.869349703E0
3.937701050E0,9.032905847E-2,-9.272187948E-2,9.885348320E0,9.886195835E0
3.940145581E0,7.357929647E-2,-1.046859920E-1,9.894919395E0,9.895746708E0
3.942589956E0,7.357929647E-2,-1.046859920E-1,9.873384476E0,9.874213593E0
3.945034487E0,7.357929647E-2,-8.554340899E-2,9.870991707E0,9.871636585E0
3.947479748E0,8.075776696E-2,-9.272187948E-2,9.885348320E0,9.886113016E0
3.949923342E0,8.315058798E-2,-9.511470050E-2,9.875777245E0,9.876585291E0
3.952367873E0,5.443671346E-2,-1.022931710E-1,9.878170013E0,9.878849633E0
3.954813133E0,8.075776696E-2,-9.032905847E-2,9.890133858E0,9.890876042E0
3.957256727E0,8.075776696E-2,-9.272187948E-2,9.887741089E0,9.888505600E0
3.959701258E0,9.511470050E-2,-9.990034252E-2,9.904491425E0,9.905451896E0
3.962145633E0,6.400800496E-2,-1.022931710E-1,9.897313118E0,9.898048690E0
3.964590165E0,5.682953820E-2,-1.022931710E-1,9.873384476E0,9.874077906E0
3.967035425E0,8.315058798E-2,-1.094716340E-1,9.866206169E0,9.867163839E0
3.969479019E0,7.836493850E-2,-1.046859920E-1,9.878170013E0,9.879035532E0
3.971923550E0,6.879365444E-2,-1.142572835E-1,9.880562782E0,9.881462857E0
3.974368758E0,7.836493850E-2,-9.750752151E-2,9.866206169E0,9.866999187E0
3.976812404E0,7.597211748E-2,-1.070788130E-1,9.885348320E0,9.886220160E0
3.979256883E0,8.075776696E-2,-9.990034252E-2,9.878170013E0,9.879005249E0
3.981701362E0,8.075776696E-2,-1.190429255E-1,9.861420631E0,9.862469767E0
3.984145842E0,7.118647546E-2,-1.070788130E-1,9.890133858E0,9.890969675E0
3.986591050E0,9.032905847E-2,-1.070788130E-1,9.856635094E0,9.857630576E0
3.989034696E0,8.315058798E-2,-1.118644550E-1,9.880562782E0,9.881545859E0
3.991479175E0,7.836493850E-2,-1.070788130E-1,9.875777245E0,9.876668625E0
3.993924435E0,7.118647546E-2,-1.022931710E-1,9.868598938E0,9.869385817E0
3.996368081E0,7.836493850E-2,-9.511470050E-2,9.880562782E0,9.881331326E0
3.998812560E0,8.075776696E-2,-1.142572835E-1,9.887741089E0,9.888730979E0
4.001257040E0,7.597211748E-2,-1.070788130E-1,9.875777245E0,9.876649929E0
4.003701415E0,8.554340899E-2,-9.032905847E-2,9.892526627E0,9.893308854E0
4.006146727E0,6.879365444E-2,-9.750752151E-2,9.890133858E0,9.890853755E0
4.008590321E0,6.879365444E-2,-9.750752151E-2,9.854242325E0,9.854964844E0
4.011034852E0,6.879365444E-2,-1.046859920E-1,9.890133858E0,9.890927128E0
4.013480112E0,7.836493850E-2,-8.554340899E-2,9.873384476E0,9.874066019E0
4.015923706E0,7.118647546E-2,-8.793623000E-2,9.892526627E0,9.893173573E0
4.018368237E0,6.879365444E-2,-9.032905847E-2,9.875777245E0,9.876429926E0
4.020812717E0,7.357929647E-2,-1.070788130E-1,9.873384476E0,9.874239251E0
