"Time (s)","Acceleration x (m/s^2)","Acceleration y (m/s^2)","Acceleration z (m/s^2)"
2.386526000E-2,-2.338984162E-1,-7.417750359E-2,9.727721214E0
2.629125000E-2,-2.506481707E-1,-8.374879509E-2,9.758828163E0
2.871656200E-2,-2.841476798E-1,-1.172483116E-1,9.801898956E0
3.114145800E-2,-2.769692242E-1,-1.196411327E-1,9.818648338E0
3.356598900E-2,-2.578266263E-1,-1.076770201E-1,9.847362518E0
3.599114600E-2,-2.458625287E-1,-7.896314561E-2,9.861719131E0
3.841692700E-2,-2.578266263E-1,-9.092725813E-2,9.873683929E0
4.084229200E-2,-2.338984162E-1,-9.810572863E-2,9.859326363E0
4.326812500E-2,-2.315055877E-1,-1.124626622E-1,9.847362518E0
4.569348900E-2,-2.506481707E-1,-9.571290761E-2,9.828220367E0
4.811885400E-2,-2.410768867E-1,-1.148554832E-1,9.825826645E0
5.054526000E-2,-2.458625287E-1,-1.052841991E-1,9.825826645E0
5.297026000E-2,-2.338984162E-1,-1.172483116E-1,9.847362518E0
5.539489600E-2,-2.362912297E-1,-1.004985496E-1,9.868897438E0
5.786822900E-2,-2.434697002E-1,-1.004985496E-1,9.873683929E0
6.034229200E-2,-2.530409992E-1,-1.124626622E-1,9.864111900E0
6.277364600E-2,-2.362912297E-1,-1.124626622E-1,9.885647774E0
6.519911400E-2,-2.386840582E-1,-8.853443712E-2,9.871291161E0
6.762463500E-2,-2.673979402E-1,-1.004985496E-1,9.902397156E0
7.005020800E-2,-2.530409992E-1,-9.571290761E-2,9.890433311E0
7.247572900E-2,-2.673979402E-1,-1.004985496E-1,9.864111900E0
7.490130200E-2,-2.530409992E-1,-8.614161611E-2,9.880862236E0
7.732697900E-2,-2.338984162E-1,-1.028913707E-1,9.876076698E0
7.975270800E-2,-2.434697002E-1,-1.172483116E-1,9.854540825E0
8.217854200E-2,-2.673979402E-1,-9.571290761E-2,9.864111900E0
8.460447900E-2,-2.362912297E-1,-1.028913707E-1,9.852148056E0
8.703281200E-2,-2.721835673E-1,-9.092725813E-2,9.825826645E0
8.945640600E-2,-2.650051117E-1,-1.100698411E-1,9.842576981E0
9.188239600E-2,-2.626122832E-1,-1.244267747E-1,9.844969749E0
9.430838500E-2,-2.578266263E-1,-1.100698411E-1,9.830613136E0
9.673432300E-2,-2.482553422E-1,-1.004985496E-1,9.852148056E0
9.916031200E-2,-2.458625287E-1,-1.172483116E-1,9.866504669E0
1.015863020E-1,-2.578266263E-1,-9.571290761E-2,9.883255005E0
1.040122390E-1,-2.506481707E-1,-1.220339537E-1,9.883255005E0
1.064382290E-1,-2.602194548E-1,-1.148554832E-1,9.890433311E0
1.088642190E-1,-2.386840582E-1,-1.076770201E-1,9.880862236E0
1.112902080E-1,-2.626122832E-1,-1.004985496E-1,9.868897438E0
1.137161460E-1,-2.506481707E-1,-9.332008660E-2,9.852148056E0
1.161421350E-1,-2.410768867E-1,-1.004985496E-1,9.856933594E0
1.185680730E-1,-2.386840582E-1,-9.810572863E-2,9.847362518E0
1.209940620E-1,-2.458625287E-1,-1.172483116E-1,9.854540825E0
1.234200520E-1,-2.458625287E-1,-1.100698411E-1,9.852148056E0
1.258460420E-1,-2.602194548E-1,-1.004985496E-1,9.828220367E0
1.282719790E-1,-2.530409992E-1,-1.148554832E-1,9.842576981E0
1.306979690E-1,-2.650051117E-1,-1.148554832E-1,9.856933594E0
1.331239580E-1,-2.482553422E-1,-1.004985496E-1,9.878469467E0
1.355499480E-1,-2.602194548E-1,-1.028913707E-1,9.854540825E0
1.379758850E-1,-2.602194548E-1,-1.220339537E-1,9.873683929E0
1.404018750E-1,-2.626122832E-1,-1.172483116E-1,9.871291161E0
1.428278640E-1,-2.578266263E-1,-1.124626622E-1,9.880862236E0
1.452538020E-1,-2.434697002E-1,-1.124626622E-1,9.866504669E0
1.476797920E-1,-2.362912297E-1,-1.363908947E-1,9.861719131E0
1.501057810E-1,-2.458625287E-1,-1.100698411E-1,9.883255005E0
1.525317190E-1,-2.434697002E-1,-1.004985496E-1,9.852148056E0
1.549577080E-1,-2.482553422E-1,-1.076770201E-1,9.866504669E0
1.573836980E-1,-2.482553422E-1,-1.172483116E-1,9.861719131E0
1.598096350E-1,-2.650051117E-1,-1.172483116E-1,9.842576981E0
1.622356250E-1,-2.530409992E-1,-9.571290761E-2,9.856933594E0
1.646616140E-1,-2.578266263E-1,-9.571290761E-2,9.878469467E0
1.670876040E-1,-2.530409992E-1,-1.052841991E-1,9.880862236E0
1.695135420E-1,-2.530409992E-1,-9.571290761E-2,9.885647774E0
1.719395310E-1,-2.721835673E-1,-1.100698411E-1,9.885647774E0
1.743655210E-1,-2.530409992E-1,-1.004985496E-1,9.885647774E0
1.767914580E-1,-2.554338276E-1,-7.896314561E-2,9.868897438E0
1.792174480E-1,-2.458625287E-1,-9.092725813E-2,9.878469467E0
1.816434370E-1,-2.578266263E-1,-1.148554832E-1,9.849755287E0
1.840693750E-1,-2.362912297E-1,-1.148554832E-1,9.861719131E0
1.864953640E-1,-2.530409992E-1,-1.076770201E-1,9.868897438E0
1.889213540E-1,-2.554338276E-1,-1.076770201E-1,9.856933594E0
1.913472920E-1,-2.673979402E-1,-1.100698411E-1,9.866504669E0
1.937732810E-1,-2.721835673E-1,-1.172483116E-1,9.880862236E0
1.961992710E-1,-2.482553422E-1,-1.076770201E-1,9.864111900E0
1.986252600E-1,-2.458625287E-1,-8.135596663E-2,9.859326363E0
2.010511980E-1,-2.626122832E-1,-1.124626622E-1,9.866504669E0
2.034771870E-1,-2.578266263E-1,-1.220339537E-1,9.873683929E0
2.059031770E-1,-2.530409992E-1,-1.172483116E-1,9.852148056E0
2.083291140E-1,-2.602194548E-1,-1.052841991E-1,9.868897438E0
2.107551040E-1,-2.410768867E-1,-1.028913707E-1,9.856933594E0
2.131810940E-1,-2.458625287E-1,-1.076770201E-1,9.842576981E0
2.156070310E-1,-2.386840582E-1,-1.268195957E-1,9.844969749E0
2.180330210E-1,-2.530409992E-1,-1.220339537E-1,9.852148056E0
2.204590100E-1,-2.386840582E-1,-1.052841991E-1,9.842576981E0
2.228850000E-1,-2.362912297E-1,-1.172483116E-1,9.840184212E0
2.253109370E-1,-2.554338276E-1,-9.571290761E-2,9.859326363E0
2.277369270E-1,-2.434697002E-1,-1.076770201E-1,9.861719131E0
2.301629170E-1,-2.243271172E-1,-9.332008660E-2,9.854540825E0
2.325888540E-1,-2.578266263E-1,-7.657032460E-2,9.897611618E0
2.350148440E-1,-2.626122832E-1,-8.614161611E-2,9.895218849E0
2.374408330E-1,-2.386840582E-1,-1.100698411E-1,9.880862236E0
2.398667710E-1,-2.482553422E-1,-1.244267747E-1,9.878469467E0
2.422927600E-1,-2.530409992E-1,-1.028913707E-1,9.878469467E0
2.447187500E-1,-2.554338276E-1,-9.810572863E-2,9.856933594E0
2.471447390E-1,-2.338984162E-1,-8.374879509E-2,9.871291161E0
2.495706770E-1,-2.602194548E-1,-9.092725813E-2,9.840184212E0
2.519966670E-1,-2.554338276E-1,-1.028913707E-1,9.854540825E0
2.544226560E-1,-2.554338276E-1,-9.092725813E-2,9.864111900E0
2.568485940E-1,-2.530409992E-1,-9.810572863E-2,9.844969749E0
2.592745830E-1,-2.554338276E-1,-1.076770201E-1,9.873683929E0
2.617005730E-1,-2.482553422E-1,-1.100698411E-1,9.868897438E0
2.641265620E-1,-2.362912297E-1,-1.172483116E-1,9.861719131E0
2.665525000E-1,-2.697907388E-1,-1.076770201E-1,9.866504669E0
2.689784890E-1,-2.626122832E-1,-1.148554832E-1,9.871291161E0
2.714044790E-1,-2.458625287E-1,-1.004985496E-1,9.895218849E0
2.738304170E-1,-2.434697002E-1,-9.810572863E-2,9.888040543E0
2.762564060E-1,-2.458625287E-1,-1.172483116E-1,9.873683929E0
2.786823960E-1,-2.243271172E-1,-9.332008660E-2,9.871291161E0
2.811083330E-1,-2.338984162E-1,-1.100698411E-1,9.871291161E0
2.835343230E-1,-2.386840582E-1,-9.332008660E-2,9.866504669E0
2.859603120E-1,-2.315055877E-1,-1.268195957E-1,9.861719131E0
2.883863020E-1,-2.458625287E-1,-9.571290761E-2,9.854540825E0
2.908122390E-1,-2.697907388E-1,-1.124626622E-1,9.871291161E0
2.932382290E-1,-2.506481707E-1,-1.100698411E-1,9.830613136E0
2.956642190E-1,-2.554338276E-1,-1.004985496E-1,9.854540825E0
2.980901560E-1,-2.721835673E-1,-1.076770201E-1,9.866504669E0
3.005161460E-1,-2.530409992E-1,-1.052841991E-1,9.890433311E0
3.029421350E-1,-2.434697002E-1,-1.100698411E-1,9.859326363E0
3.053681250E-1,-2.386840582E-1,-1.268195957E-1,9.859326363E0
3.077940620E-1,-2.362912297E-1,-1.076770201E-1,9.864111900E0
3.102200520E-1,-2.602194548E-1,-1.100698411E-1,9.859326363E0
3.126460420E-1,-2.458625287E-1,-9.571290761E-2,9.885647774E0
3.150719790E-1,-2.650051117E-1,-1.316052526E-1,9.878469467E0
3.174979690E-1,-2.434697002E-1,-9.810572863E-2,9.866504669E0
3.199239580E-1,-2.530409992E-1,-1.148554832E-1,9.847362518E0
3.223498960E-1,-2.554338276E-1,-1.172483116E-1,9.861719131E0
3.247758850E-1,-2.506481707E-1,-1.124626622E-1,9.849755287E0
3.272018750E-1,-2.434697002E-1,-1.076770201E-1,9.861719131E0
3.296278640E-1,-2.434697002E-1,-1.148554832E-1,9.856933594E0
3.320538020E-1,-2.482553422E-1,-9.810572863E-2,9.866504669E0
3.344797920E-1,-2.626122832E-1,-1.268195957E-1,9.868897438E0
3.369057810E-1,-2.626122832E-1,-1.052841991E-1,9.868897438E0
3.393317190E-1,-2.434697002E-1,-1.172483116E-1,9.871291161E0
3.417577080E-1,-2.626122832E-1,-9.810572863E-2,9.847362518E0
3.441836980E-1,-2.578266263E-1,-9.332008660E-2,9.868897438E0
3.466096870E-1,-2.673979402E-1,-1.172483116E-1,9.871291161E0
3.490356250E-1,-2.482553422E-1,-1.196411327E-1,9.876076698E0
3.514616140E-1,-2.243271172E-1,-9.092725813E-2,9.888040543E0
3.538876040E-1,-2.506481707E-1,-9.332008660E-2,9.871291161E0
3.563135420E-1,-2.578266263E-1,-9.092725813E-2,9.880862236E0
3.587395310E-1,-2.578266263E-1,-1.172483116E-1,9.885647774E0
3.611655210E-1,-2.745763958E-1,-9.332008660E-2,9.849755287E0
3.635915100E-1,-2.482553422E-1,-1.100698411E-1,9.868897438E0
3.660174480E-1,-2.410768867E-1,-1.268195957E-1,9.873683929E0
3.684434370E-1,-2.530409992E-1,-1.076770201E-1,9.859326363E0
3.708694270E-1,-2.434697002E-1,-9.092725813E-2,9.873683929E0
3.732953640E-1,-2.362912297E-1,-9.332008660E-2,9.876076698E0
3.757213540E-1,-2.626122832E-1,-9.332008660E-2,9.868897438E0
3.781473440E-1,-2.697907388E-1,-1.028913707E-1,9.866504669E0
3.805733330E-1,-2.458625287E-1,-1.124626622E-1,9.873683929E0
3.829992710E-1,-2.482553422E-1,-9.571290761E-2,9.861719131E0
3.854252600E-1,-2.410768867E-1,-9.810572863E-2,9.883255005E0
3.878512500E-1,-2.697907388E-1,-1.148554832E-1,9.866504669E0
3.902771870E-1,-2.434697002E-1,-1.028913707E-1,9.828220367E0
3.927031770E-1,-2.578266263E-1,-1.172483116E-1,9.866504669E0
3.951291670E-1,-2.482553422E-1,-1.148554832E-1,9.880862236E0
3.975551040E-1,-2.338984162E-1,-1.148554832E-1,9.868897438E0
3.999810940E-1,-2.673979402E-1,-9.810572863E-2,9.880862236E0
4.024070830E-1,-2.650051117E-1,-1.124626622E-1,9.888040543E0
4.048330730E-1,-2.554338276E-1,-1.004985496E-1,9.883255005E0
4.072590100E-1,-2.386840582E-1,-1.004985496E-1,9.885647774E0
4.096850000E-1,-2.458625287E-1,-1.052841991E-1,9.873683929E0
4.121109890E-1,-2.506481707E-1,-1.076770201E-1,9.868897438E0
4.145369790E-1,-2.697907388E-1,-1.316052526E-1,9.866504669E0
4.169629170E-1,-2.769692242E-1,-8.853443712E-2,9.871291161E0
4.193889060E-1,-2.434697002E-1,-1.028913707E-1,9.864111900E0
4.218148960E-1,-2.506481707E-1,-9.571290761E-2,9.868897438E0
4.242408330E-1,-2.482553422E-1,-1.124626622E-1,9.866504669E0
4.266668230E-1,-2.626122832E-1,-1.244267747E-1,9.864111900E0
4.290928120E-1,-2.554338276E-1,-8.853443712E-2,9.866504669E0
4.315188020E-1,-2.410768867E-1,-1.100698411E-1,9.888040543E0
4.339447390E-1,-2.434697002E-1,-9.810572863E-2,9.861719131E0
4.363707290E-1,-2.410768867E-1,-1.004985496E-1,9.866504669E0
4.387967190E-1,-2.554338276E-1,-9.810572863E-2,9.876076698E0
4.412226560E-1,-2.626122832E-1,-8.853443712E-2,9.868897438E0
4.436486460E-1,-2.626122832E-1,-9.810572863E-2,9.876076698E0
4.460746350E-1,-2.602194548E-1,-9.810572863E-2,9.878469467E0
4.485006250E-1,-2.554338276E-1,-1.100698411E-1,9.847362518E0
4.509265620E-1,-2.362912297E-1,-1.028913707E-1,9.861719131E0
4.533525520E-1,-2.410768867E-1,-9.571290761E-2,9.859326363E0
4.557785420E-1,-2.506481707E-1,-1.100698411E-1,9.866504669E0
4.582044790E-1,-2.482553422E-1,-1.052841991E-1,9.866504669E0
4.606304690E-1,-2.362912297E-1,-1.100698411E-1,9.873683929E0
4.630564580E-1,-2.338984162E-1,-9.810572863E-2,9.878469467E0
4.654824480E-1,-2.602194548E-1,-8.853443712E-2,9.864111900E0
4.679083850E-1,-2.362912297E-1,-9.571290761E-2,9.859326363E0
4.703343750E-1,-2.602194548E-1,-7.896314561E-2,9.873683929E0
4.727603640E-1,-2.410768867E-1,-9.810572863E-2,9.880862236E0
4.751863540E-1,-2.554338276E-1,-1.172483116E-1,9.880862236E0
4.776122920E-1,-2.482553422E-1,-7.896314561E-2,9.864111900E0
4.800382810E-1,-2.554338276E-1,-7.657032460E-2,9.873683929E0
4.824642710E-1,-2.338984162E-1,-1.004985496E-1,9.880862236E0
4.848902080E-1,-2.506481707E-1,-8.374879509E-2,9.876076698E0
4.873161980E-1,-2.673979402E-1,-1.124626622E-1,9.880862236E0
4.897421870E-1,-2.482553422E-1,-1.100698411E-1,9.859326363E0
4.921681770E-1,-2.315055877E-1,-9.332008660E-2,9.859326363E0
4.945941140E-1,-2.482553422E-1,-9.810572863E-2,9.866504669E0
4.970201040E-1,-2.817548811E-1,-1.028913707E-1,9.856933594E0
4.994460940E-1,-2.721835673E-1,-1.052841991E-1,9.878469467E0
5.018720310E-1,-2.578266263E-1,-9.571290761E-2,9.868897438E0
5.042980210E-1,-2.530409992E-1,-1.100698411E-1,9.861719131E0
5.067240100E-1,-2.530409992E-1,-1.316052526E-1,9.880862236E0
5.091500000E-1,-2.602194548E-1,-1.172483116E-1,9.880862236E0
5.115759370E-1,-2.554338276E-1,-7.657032460E-2,9.880862236E0
5.140019270E-1,-2.243271172E-1,-1.124626622E-1,9.890433311E0
5.164279170E-1,-2.458625287E-1,-9.332008660E-2,9.868897438E0
5.188539060E-1,-2.554338276E-1,-9.092725813E-2,9.876076698E0
5.212798440E-1,-2.458625287E-1,-8.853443712E-2,9.897611618E0
5.237058330E-1,-2.530409992E-1,-1.124626622E-1,9.868897438E0
5.261318230E-1,-2.602194548E-1,-9.810572863E-2,9.868897438E0
5.285578120E-1,-2.578266263E-1,-9.810572863E-2,9.883255005E0
5.309837500E-1,-2.386840582E-1,-8.853443712E-2,9.868897438E0
5.334097390E-1,-2.650051117E-1,-1.028913707E-1,9.871291161E0
5.358357290E-1,-2.386840582E-1,-1.100698411E-1,9.892826080E0
5.382616670E-1,-2.458625287E-1,-1.220339537E-1,9.876076698E0
5.406876560E-1,-2.721835673E-1,-1.220339537E-1,9.883255005E0
5.431136460E-1,-2.650051117E-1,-1.268195957E-1,9.871291161E0
5.455396350E-1,-2.530409992E-1,-1.052841991E-1,9.885647774E0
5.479655730E-1,-2.506481707E-1,-1.052841991E-1,9.868897438E0
5.503915620E-1,-2.697907388E-1,-1.148554832E-1,9.854540825E0
5.528175520E-1,-2.386840582E-1,-8.374879509E-2,9.847362518E0
5.552435420E-1,-2.506481707E-1,-1.004985496E-1,9.868897438E0
5.576694790E-1,-2.554338276E-1,-1.220339537E-1,9.890433311E0
5.600954690E-1,-2.386840582E-1,-1.172483116E-1,9.866504669E0
5.625214580E-1,-2.458625287E-1,-8.853443712E-2,9.861719131E0
5.649473960E-1,-2.291127741E-1,-1.076770201E-1,9.861719131E0
5.673733850E-1,-2.578266263E-1,-1.028913707E-1,9.880862236E0
5.697993750E-1,-2.578266263E-1,-1.196411327E-1,9.864111900E0
5.722253640E-1,-2.578266263E-1,-1.148554832E-1,9.880862236E0
5.746513020E-1,-2.697907388E-1,-8.135596663E-2,9.864111900E0
5.770772920E-1,-2.602194548E-1,-1.100698411E-1,9.856933594E0
5.795032810E-1,-2.626122832E-1,-1.268195957E-1,9.873683929E0
5.819292710E-1,-2.386840582E-1,-1.100698411E-1,9.873683929E0
5.843552080E-1,-2.578266263E-1,-1.028913707E-1,9.856933594E0
5.867811980E-1,-2.626122832E-1,-1.220339537E-1,9.859326363E0
5.892071870E-1,-2.650051117E-1,-9.571290761E-2,9.861719131E0
5.916331250E-1,-2.673979402E-1,-1.028913707E-1,9.895218849E0
5.940591140E-1,-2.554338276E-1,-1.052841991E-1,9.885647774E0
5.964851040E-1,-2.386840582E-1,-9.332008660E-2,9.854540825E0
5.989110940E-1,-2.554338276E-1,-1.100698411E-1,9.888040543E0
6.013370310E-1,-2.626122832E-1,-1.028913707E-1,9.878469467E0
6.037630210E-1,-2.554338276E-1,-1.148554832E-1,9.885647774E0
6.061890100E-1,-2.482553422E-1,-1.172483116E-1,9.883255005E0
6.086150000E-1,-2.554338276E-1,-1.196411327E-1,9.880862236E0
6.110409370E-1,-2.769692242E-1,-1.172483116E-1,9.878469467E0
6.134669270E-1,-2.626122832E-1,-1.148554832E-1,9.888040543E0
6.158929170E-1,-2.721835673E-1,-1.148554832E-1,9.878469467E0
6.183189060E-1,-2.650051117E-1,-1.076770201E-1,9.871291161E0
6.207448440E-1,-2.697907388E-1,-1.004985496E-1,9.859326363E0
6.231708330E-1,-2.721835673E-1,-1.148554832E-1,9.866504669E0
6.255968230E-1,-2.530409992E-1,-1.220339537E-1,9.864111900E0
6.280227600E-1,-2.506481707E-1,-1.052841991E-1,9.866504669E0
6.304487500E-1,-2.338984162E-1,-1.052841991E-1,9.876076698E0
6.328747390E-1,-2.530409992E-1,-1.076770201E-1,9.876076698E0
6.353007290E-1,-2.602194548E-1,-1.220339537E-1,9.859326363E0
6.377266670E-1,-2.626122832E-1,-1.172483116E-1,9.876076698E0
6.401526560E-1,-2.578266263E-1,-9.571290761E-2,9.861719131E0
6.425786460E-1,-2.673979402E-1,-1.076770201E-1,9.871291161E0
6.450046350E-1,-2.650051117E-1,-1.172483116E-1,9.859326363E0
6.474305730E-1,-2.626122832E-1,-1.100698411E-1,9.868897438E0
6.498565620E-1,-2.362912297E-1,-1.244267747E-1,9.880862236E0
6.522825520E-1,-2.721835673E-1,-9.571290761E-2,9.892826080E0
6.547084890E-1,-2.626122832E-1,-1.148554832E-1,9.880862236E0
6.571344790E-1,-2.626122832E-1,-1.052841991E-1,9.876076698E0
6.595604690E-1,-2.626122832E-1,-1.220339537E-1,9.856933594E0
6.619864580E-1,-2.626122832E-1,-1.052841991E-1,9.876076698E0
6.644123960E-1,-2.362912297E-1,-1.124626622E-1,9.883255005E0
6.668383850E-1,-2.458625287E-1,-9.571290761E-2,9.873683929E0
6.692643750E-1,-2.578266263E-1,-9.092725813E-2,9.873683929E0
6.716903120E-1,-2.482553422E-1,-9.810572863E-2,9.856933594E0
6.741163020E-1,-2.458625287E-1,-1.100698411E-1,9.864111900E0
6.765422920E-1,-2.482553422E-1,-1.100698411E-1,9.873683929E0
6.789682810E-1,-2.626122832E-1,-9.810572863E-2,9.885647774E0
6.813942190E-1,-2.554338276E-1,-1.124626622E-1,9.900004387E0
6.838202080E-1,-2.578266263E-1,-1.148554832E-1,9.890433311E0
6.862461980E-1,-2.458625287E-1,-1.244267747E-1,9.873683929E0
6.886721870E-1,-2.530409992E-1,-1.172483116E-1,9.880862236E0
6.910981250E-1,-2.315055877E-1,-8.853443712E-2,9.868897438E0
6.935241140E-1,-2.410768867E-1,-9.810572863E-2,9.876076698E0
6.959501040E-1,-2.458625287E-1,-1.339980662E-1,9.885647774E0
6.983760940E-1,-2.673979402E-1,-1.244267747E-1,9.873683929E0
7.008020310E-1,-2.338984162E-1,-1.148554832E-1,9.864111900E0
7.032280210E-1,-2.626122832E-1,-1.268195957E-1,9.914361954E0
7.056540100E-1,-2.602194548E-1,-1.172483116E-1,9.866504669E0
7.080800000E-1,-2.554338276E-1,-8.853443712E-2,9.856933594E0
7.105059370E-1,-2.697907388E-1,-9.810572863E-2,9.880862236E0
7.129319270E-1,-2.506481707E-1,-9.332008660E-2,9.871291161E0
7.153579170E-1,-2.482553422E-1,-1.004985496E-1,9.864111900E0
7.177838540E-1,-2.530409992E-1,-1.028913707E-1,9.888040543E0
7.202098440E-1,-2.626122832E-1,-1.004985496E-1,9.864111900E0
7.226358330E-1,-2.338984162E-1,-1.052841991E-1,9.878469467E0
7.250618230E-1,-2.530409992E-1,-8.374879509E-2,9.892826080E0
7.274877600E-1,-2.578266263E-1,-1.076770201E-1,9.885647774E0
7.299137500E-1,-2.410768867E-1,-1.052841991E-1,9.880862236E0
7.323397390E-1,-2.482553422E-1,-1.220339537E-1,9.883255005E0
7.347657290E-1,-2.554338276E-1,-9.810572863E-2,9.866504669E0
7.371916670E-1,-2.578266263E-1,-9.810572863E-2,9.873683929E0
7.396176560E-1,-2.626122832E-1,-9.571290761E-2,9.885647774E0
7.420436460E-1,-2.578266263E-1,-1.052841991E-1,9.854540825E0
7.444696350E-1,-2.554338276E-1,-1.028913707E-1,9.864111900E0
7.468955730E-1,-2.697907388E-1,-1.148554832E-1,9.868897438E0
7.493215620E-1,-2.458625287E-1,-1.076770201E-1,9.873683929E0
7.517475520E-1,-2.458625287E-1,-9.810572863E-2,9.868897438E0
7.541735420E-1,-2.362912297E-1,-1.124626622E-1,9.878469467E0
7.565994790E-1,-2.291127741E-1,-9.810572863E-2,9.861719131E0
7.590254690E-1,-2.506481707E-1,-1.172483116E-1,9.866504669E0
7.614514580E-1,-2.434697002E-1,-1.076770201E-1,9.888040543E0
7.638774480E-1,-2.482553422E-1,-1.172483116E-1,9.866504669E0
7.663033850E-1,-2.697907388E-1,-8.853443712E-2,9.878469467E0
7.687293750E-1,-2.578266263E-1,-1.148554832E-1,9.871291161E0
7.711553640E-1,-2.482553422E-1,-9.571290761E-2,9.871291161E0
7.735813020E-1,-2.554338276E-1,-1.124626622E-1,9.880862236E0
7.760072920E-1,-2.434697002E-1,-1.052841991E-1,9.880862236E0
7.784332810E-1,-2.386840582E-1,-9.810572863E-2,9.880862236E0
7.808592710E-1,-2.745763958E-1,-1.004985496E-1,9.885647774E0
7.832852080E-1,-2.626122832E-1,-1.220339537E-1,9.897611618E0
7.857111980E-1,-2.554338276E-1,-1.052841991E-1,9.890433311E0
7.881371870E-1,-2.673979402E-1,-1.268195957E-1,9.883255005E0
7.905631770E-1,-2.626122832E-1,-1.316052526E-1,9.856933594E0
7.929891140E-1,-2.650051117E-1,-9.810572863E-2,9.866504669E0
7.954151040E-1,-2.434697002E-1,-1.172483116E-1,9.880862236E0
7.978410940E-1,-2.338984162E-1,-1.100698411E-1,9.868897438E0
8.002670830E-1,-2.386840582E-1,-1.004985496E-1,9.892826080E0
8.026930210E-1,-2.554338276E-1,-1.148554832E-1,9.873683929E0
8.051190100E-1,-2.602194548E-1,-1.028913707E-1,9.900004387E0
8.075450000E-1,-2.554338276E-1,-1.004985496E-1,9.871291161E0
8.099709890E-1,-2.650051117E-1,-1.148554832E-1,9.876076698E0
8.123969270E-1,-2.458625287E-1,-1.148554832E-1,9.888040543E0
8.148229170E-1,-2.578266263E-1,-1.076770201E-1,9.852148056E0
8.172489060E-1,-2.482553422E-1,-1.076770201E-1,9.873683929E0
8.196748960E-1,-2.673979402E-1,-1.220339537E-1,9.861719131E0
8.221008330E-1,-2.554338276E-1,-8.374879509E-2,9.859326363E0
8.245268230E-1,-2.650051117E-1,-1.004985496E-1,9.859326363E0
8.269528120E-1,-2.506481707E-1,-1.052841991E-1,9.856933594E0
8.293787500E-1,-2.458625287E-1,-1.196411327E-1,9.861719131E0
8.318047390E-1,-2.769692242E-1,-9.810572863E-2,9.871291161E0
8.342307290E-1,-2.410768867E-1,-1.004985496E-1,9.890433311E0
8.366567190E-1,-2.386840582E-1,-1.052841991E-1,9.859326363E0
8.390827080E-1,-2.530409992E-1,-1.172483116E-1,9.866504669E0
8.415086460E-1,-2.554338276E-1,-1.124626622E-1,9.876076698E0
8.439346350E-1,-2.602194548E-1,-1.028913707E-1,9.876076698E0
8.463606250E-1,-2.506481707E-1,-1.004985496E-1,9.876076698E0
8.487865620E-1,-2.506481707E-1,-1.148554832E-1,9.873683929E0
8.512125520E-1,-2.506481707E-1,-1.028913707E-1,9.856933594E0
8.536385420E-1,-2.673979402E-1,-1.244267747E-1,9.873683929E0
8.560645310E-1,-2.554338276E-1,-1.220339537E-1,9.880862236E0
8.584904690E-1,-2.530409992E-1,-9.571290761E-2,9.854540825E0
8.609164580E-1,-2.386840582E-1,-9.810572863E-2,9.873683929E0
8.633424480E-1,-2.410768867E-1,-1.052841991E-1,9.868897438E0
8.657684370E-1,-2.697907388E-1,-1.076770201E-1,9.864111900E0
8.681943750E-1,-2.578266263E-1,-9.571290761E-2,9.880862236E0
8.706203640E-1,-2.506481707E-1,-1.124626622E-1,9.878469467E0
8.730463540E-1,-2.626122832E-1,-1.028913707E-1,9.885647774E0
8.754723440E-1,-2.602194548E-1,-1.100698411E-1,9.876076698E0
8.778982810E-1,-2.482553422E-1,-1.052841991E-1,9.868897438E0
8.803242710E-1,-2.434697002E-1,-1.076770201E-1,9.871291161E0
8.827502600E-1,-2.578266263E-1,-9.810572863E-2,9.876076698E0
8.851762500E-1,-2.578266263E-1,-9.571290761E-2,9.880862236E0
8.876021870E-1,-2.530409992E-1,-1.220339537E-1,9.878469467E0
8.900281770E-1,-2.578266263E-1,-1.148554832E-1,9.890433311E0
8.924541670E-1,-2.602194548E-1,-1.196411327E-1,9.859326363E0
8.948801560E-1,-2.315055877E-1,-1.028913707E-1,9.885647774E0
8.973060940E-1,-2.482553422E-1,-1.004985496E-1,9.888040543E0
8.997320830E-1,-2.362912297E-1,-1.052841991E-1,9.885647774E0
9.021580730E-1,-2.458625287E-1,-1.028913707E-1,9.859326363E0
9.045840100E-1,-2.530409992E-1,-1.100698411E-1,9.873683929E0
9.070100000E-1,-2.267199457E-1,-1.124626622E-1,9.883255005E0
9.094359890E-1,-2.410768867E-1,-1.268195957E-1,9.871291161E0
9.118619790E-1,-2.410768867E-1,-1.316052526E-1,9.871291161E0
9.142879690E-1,-2.745763958E-1,-1.220339537E-1,9.888040543E0
9.167139060E-1,-2.434697002E-1,-1.076770201E-1,9.861719131E0
9.191398960E-1,-2.530409992E-1,-1.387837082E-1,9.866504669E0
9.215658850E-1,-2.458625287E-1,-1.268195957E-1,9.888040543E0
9.239918230E-1,-2.338984162E-1,-9.571290761E-2,9.876076698E0
9.264178120E-1,-2.506481707E-1,-9.571290761E-2,9.880862236E0
9.288438020E-1,-2.650051117E-1,-1.196411327E-1,9.876076698E0
9.312697920E-1,-2.506481707E-1,-1.363908947E-1,9.885647774E0
9.336957290E-1,-2.602194548E-1,-1.028913707E-1,9.880862236E0
9.361217190E-1,-2.434697002E-1,-1.076770201E-1,9.866504669E0
9.385477080E-1,-2.673979402E-1,-9.810572863E-2,9.878469467E0
9.409736980E-1,-2.626122832E-1,-1.052841991E-1,9.888040543E0
9.433996350E-1,-2.697907388E-1,-9.810572863E-2,9.885647774E0
9.458256250E-1,-2.410768867E-1,-8.614161611E-2,9.871291161E0
9.482516140E-1,-2.817548811E-1,-1.004985496E-1,9.876076698E0
9.506776040E-1,-2.506481707E-1,-1.028913707E-1,9.878469467E0
9.531035420E-1,-2.458625287E-1,-1.004985496E-1,9.878469467E0
9.555295310E-1,-2.434697002E-1,-1.004985496E-1,9.868897438E0
9.579555210E-1,-2.386840582E-1,-1.076770201E-1,9.871291161E0
9.603815100E-1,-2.817548811E-1,-1.100698411E-1,9.880862236E0
9.628074480E-1,-2.554338276E-1,-1.124626622E-1,9.876076698E0
9.652334370E-1,-2.434697002E-1,-1.028913707E-1,9.880862236E0
9.676594270E-1,-2.362912297E-1,-1.100698411E-1,9.873683929E0
9.700854170E-1,-2.602194548E-1,-1.076770201E-1,9.883255005E0
9.725113540E-1,-2.362912297E-1,-9.571290761E-2,9.873683929E0
9.749373440E-1,-2.458625287E-1,-1.124626622E-1,9.900004387E0
9.773633330E-1,-2.626122832E-1,-1.028913707E-1,9.888040543E0
9.797892710E-1,-2.338984162E-1,-9.571290761E-2,9.900004387E0
9.822152600E-1,-2.506481707E-1,-9.571290761E-2,9.859326363E0
9.846412500E-1,-2.338984162E-1,-8.853443712E-2,9.868897438E0
9.870672390E-1,-2.267199457E-1,-1.052841991E-1,9.892826080E0
9.894932290E-1,-2.482553422E-1,-1.052841991E-1,9.868897438E0
9.919191670E-1,-2.434697002E-1,-1.220339537E-1,9.854540825E0
9.943451560E-1,-2.602194548E-1,-1.172483116E-1,9.873683929E0
9.967711460E-1,-2.410768867E-1,-1.292124242E-1,9.871291161E0
9.991971350E-1,-2.482553422E-1,-1.052841991E-1,9.876076698E0
1.001623073E0,-2.482553422E-1,-8.853443712E-2,9.880862236E0
1.004049062E0,-2.315055877E-1,-1.052841991E-1,9.892826080E0
1.006475052E0,-2.386840582E-1,-1.196411327E-1,9.883255005E0
1.008901042E0,-2.482553422E-1,-9.810572863E-2,9.876076698E0
1.011326979E0,-2.602194548E-1,-1.172483116E-1,9.868897438E0
1.013752969E0,-2.578266263E-1,-1.004985496E-1,9.854540825E0
1.016178958E0,-2.673979402E-1,-1.124626622E-1,9.859326363E0
1.018604948E0,-2.673979402E-1,-9.571290761E-2,9.868897438E0
1.021030885E0,-2.386840582E-1,-1.268195957E-1,9.864111900E0
1.023456875E0,-2.721835673E-1,-1.268195957E-1,9.878469467E0
1.025882864E0,-2.338984162E-1,-9.332008660E-2,9.885647774E0
1.028308854E0,-2.578266263E-1,-1.148554832E-1,9.895218849E0
1.030734792E0,-2.626122832E-1,-1.028913707E-1,9.885647774E0
1.033160781E0,-2.530409992E-1,-8.853443712E-2,9.885647774E0
1.035586771E0,-2.602194548E-1,-1.100698411E-1,9.871291161E0
1.038012760E0,-2.554338276E-1,-9.092725813E-2,9.895218849E0
1.040438698E0,-2.554338276E-1,-1.220339537E-1,9.883255005E0
1.042864687E0,-2.578266263E-1,-1.220339537E-1,9.873683929E0
1.045290677E0,-2.554338276E-1,-1.148554832E-1,9.876076698E0
1.047716667E0,-2.745763958E-1,-1.100698411E-1,9.878469467E0
1.050142604E0,-2.769692242E-1,-1.052841991E-1,9.873683929E0
1.052568594E0,-2.434697002E-1,-1.100698411E-1,9.883255005E0
1.054994583E0,-2.506481707E-1,-1.076770201E-1,9.883255005E0
1.057420573E0,-2.530409992E-1,-1.124626622E-1,9.890433311E0
1.059846510E0,-2.554338276E-1,-1.100698411E-1,9.883255005E0
1.062272500E0,-2.219343036E-1,-1.052841991E-1,9.878469467E0
1.064698489E0,-2.482553422E-1,-1.028913707E-1,9.873683929E0
1.067124479E0,-2.673979402E-1,-9.810572863E-2,9.878469467E0
1.069550417E0,-2.530409992E-1,-9.092725813E-2,9.866504669E0
1.071976406E0,-2.410768867E-1,-1.076770201E-1,9.885647774E0
1.074402396E0,-2.673979402E-1,-9.571290761E-2,9.878469467E0
1.076828385E0,-2.554338276E-1,-1.268195957E-1,9.878469467E0
1.079254323E0,-2.530409992E-1,-1.172483116E-1,9.885647774E0
1.081680312E0,-2.482553422E-1,-1.028913707E-1,9.888040543E0
1.084106302E0,-2.458625287E-1,-1.052841991E-1,9.854540825E0
1.086532292E0,-2.602194548E-1,-1.052841991E-1,9.871291161E0
1.088958229E0,-2.530409992E-1,-1.148554832E-1,9.900004387E0
1.091384219E0,-2.530409992E-1,-1.076770201E-1,9.885647774E0
1.093810208E0,-2.554338276E-1,-1.004985496E-1,9.866504669E0
1.096236198E0,-2.386840582E-1,-1.172483116E-1,9.868897438E0
1.098662135E0,-2.243271172E-1,-1.100698411E-1,9.888040543E0
1.101088125E0,-2.458625287E-1,-8.853443712E-2,9.859326363E0
1.103514114E0,-2.458625287E-1,-9.332008660E-2,9.883255005E0
1.105940104E0,-2.506481707E-1,-1.076770201E-1,9.861719131E0
1.108366042E0,-2.721835673E-1,-1.004985496E-1,9.852148056E0
1.110792031E0,-2.673979402E-1,-1.004985496E-1,9.868897438E0
1.113218021E0,-2.386840582E-1,-1.028913707E-1,9.876076698E0
1.115644010E0,-2.506481707E-1,-9.332008660E-2,9.888040543E0
1.118069948E0,-2.530409992E-1,-1.148554832E-1,9.897611618E0
1.120495937E0,-2.362912297E-1,-9.571290761E-2,9.868897438E0
1.122921927E0,-2.506481707E-1,-1.124626622E-1,9.868897438E0
1.125347917E0,-2.530409992E-1,-9.332008660E-2,9.895218849E0
1.127773854E0,-2.386840582E-1,-1.100698411E-1,9.888040543E0
1.130199844E0,-2.554338276E-1,-7.178468257E-2,9.883255005E0
1.132625833E0,-2.650051117E-1,-1.124626622E-1,9.890433311E0
1.135051823E0,-2.578266263E-1,-1.076770201E-1,9.907182693E0
1.137477760E0,-2.554338276E-1,-1.052841991E-1,9.878469467E0
1.139903750E0,-2.554338276E-1,-9.810572863E-2,9.871291161E0
1.142329739E0,-2.434697002E-1,-1.268195957E-1,9.878469467E0
1.144755729E0,-2.530409992E-1,-9.571290761E-2,9.861719131E0
1.147181667E0,-2.554338276E-1,-1.268195957E-1,9.868897438E0
1.149607656E0,-2.458625287E-1,-1.172483116E-1,9.866504669E0
1.152033646E0,-2.626122832E-1,-1.004985496E-1,9.868897438E0
1.154459635E0,-2.530409992E-1,-1.196411327E-1,9.883255005E0
1.156885573E0,-2.626122832E-1,-8.374879509E-2,9.878469467E0
1.159311562E0,-2.482553422E-1,-9.092725813E-2,9.873683929E0
1.161737552E0,-2.386840582E-1,-9.332008660E-2,9.897611618E0
1.164163542E0,-2.434697002E-1,-1.028913707E-1,9.892826080E0
1.166589479E0,-2.434697002E-1,-9.332008660E-2,9.890433311E0
1.169015469E0,-2.386840582E-1,-1.124626622E-1,9.890433311E0
1.171441458E0,-2.578266263E-1,-8.853443712E-2,9.871291161E0
1.173867448E0,-2.769692242E-1,-1.292124242E-1,9.888040543E0
1.176293385E0,-2.410768867E-1,-9.810572863E-2,9.878469467E0
1.178719375E0,-2.673979402E-1,-1.004985496E-1,9.878469467E0
1.181145364E0,-2.673979402E-1,-8.614161611E-2,9.876076698E0
1.183571354E0,-2.793620527E-1,-7.657032460E-2,9.885647774E0
1.185997292E0,-2.458625287E-1,-9.332008660E-2,9.880862236E0
1.188423281E0,-2.626122832E-1,-9.571290761E-2,9.878469467E0
1.190849271E0,-2.578266263E-1,-9.092725813E-2,9.883255005E0
1.193275260E0,-2.626122832E-1,-1.124626622E-1,9.895218849E0
1.195701198E0,-2.697907388E-1,-1.076770201E-1,9.876076698E0
1.198127187E0,-2.697907388E-1,-1.100698411E-1,9.871291161E0
1.200553177E0,-2.578266263E-1,-1.004985496E-1,9.868897438E0
1.202979167E0,-2.482553422E-1,-1.004985496E-1,9.871291161E0
1.205405156E0,-2.410768867E-1,-9.092725813E-2,9.895218849E0
1.207831094E0,-2.482553422E-1,-1.076770201E-1,9.883255005E0
1.210257083E0,-2.506481707E-1,-1.148554832E-1,9.883255005E0
1.212683073E0,-2.458625287E-1,-1.124626622E-1,9.885647774E0
1.215109062E0,-2.291127741E-1,-1.028913707E-1,9.864111900E0
1.217535000E0,-2.458625287E-1,-9.571290761E-2,9.885647774E0
1.219960989E0,-2.362912297E-1,-1.124626622E-1,9.866504669E0
1.222386979E0,-2.506481707E-1,-9.332008660E-2,9.888040543E0
1.224812917E0,-2.386840582E-1,-9.571290761E-2,9.883255005E0
1.227238906E0,-2.554338276E-1,-8.614161611E-2,9.880862236E0
1.229664896E0,-2.602194548E-1,-1.076770201E-1,9.878469467E0
1.232090885E0,-2.243271172E-1,-1.196411327E-1,9.854540825E0
1.234516823E0,-2.410768867E-1,-1.076770201E-1,9.888040543E0
1.236942812E0,-2.482553422E-1,-1.004985496E-1,9.885647774E0
1.239368802E0,-2.482553422E-1,-1.196411327E-1,9.883255005E0
1.241794792E0,-2.338984162E-1,-9.810572863E-2,9.876076698E0
1.244220781E0,-2.410768867E-1,-1.004985496E-1,9.871291161E0
1.246646719E0,-2.315055877E-1,-1.076770201E-1,9.866504669E0
1.249072708E0,-2.362912297E-1,-1.028913707E-1,9.878469467E0
1.251498698E0,-2.673979402E-1,-9.332008660E-2,9.871291161E0
1.253924687E0,-2.434697002E-1,-1.196411327E-1,9.844969749E0
1.256350625E0,-2.458625287E-1,-1.124626622E-1,9.890433311E0
1.258776614E0,-2.650051117E-1,-1.363908947E-1,9.883255005E0
1.261202604E0,-2.673979402E-1,-1.100698411E-1,9.892826080E0
1.263628594E0,-2.530409992E-1,-1.220339537E-1,9.868897438E0
1.266054531E0,-2.721835673E-1,-1.196411327E-1,9.876076698E0
1.268480521E0,-2.554338276E-1,-1.268195957E-1,9.902397156E0
1.270906510E0,-2.386840582E-1,-1.052841991E-1,9.897611618E0
1.273332500E0,-2.482553422E-1,-1.100698411E-1,9.873683929E0
1.275758437E0,-2.506481707E-1,-1.172483116E-1,9.880862236E0
1.278184427E0,-2.291127741E-1,-1.124626622E-1,9.868897438E0
1.280610417E0,-2.554338276E-1,-1.124626622E-1,9.866504669E0
1.283036406E0,-2.530409992E-1,-1.148554832E-1,9.873683929E0
1.285462344E0,-2.673979402E-1,-1.004985496E-1,9.892826080E0
1.287888333E0,-2.410768867E-1,-9.810572863E-2,9.885647774E0
1.290314323E0,-2.315055877E-1,-1.196411327E-1,9.878469467E0
1.292740312E0,-2.410768867E-1,-7.896314561E-2,9.866504669E0
1.295166250E0,-2.697907388E-1,-8.853443712E-2,9.866504669E0
1.297592239E0,-2.482553422E-1,-1.052841991E-1,9.878469467E0
1.300018229E0,-2.458625287E-1,-1.124626622E-1,9.856933594E0
1.302444219E0,-2.602194548E-1,-1.148554832E-1,9.876076698E0
1.304870156E0,-2.626122832E-1,-1.100698411E-1,9.892826080E0
1.307296146E0,-2.458625287E-1,-8.614161611E-2,9.885647774E0
1.309722135E0,-2.626122832E-1,-1.052841991E-1,9.873683929E0
1.312148125E0,-2.434697002E-1,-8.374879509E-2,9.871291161E0
1.314574062E0,-2.362912297E-1,-1.100698411E-1,9.880862236E0
1.317000052E0,-2.506481707E-1,-1.004985496E-1,9.883255005E0
1.319426042E0,-2.434697002E-1,-9.810572863E-2,9.895218849E0
1.321852031E0,-2.506481707E-1,-1.028913707E-1,9.871291161E0
1.324277969E0,-2.410768867E-1,-1.052841991E-1,9.895218849E0
1.326703958E0,-2.578266263E-1,-1.076770201E-1,9.883255005E0
1.329129948E0,-2.386840582E-1,-9.810572863E-2,9.861719131E0
1.331555937E0,-2.673979402E-1,-1.052841991E-1,9.864111900E0
1.333981927E0,-2.530409992E-1,-8.853443712E-2,9.883255005E0
1.336407864E0,-2.291127741E-1,-1.028913707E-1,9.859326363E0
1.338833854E0,-2.530409992E-1,-1.100698411E-1,9.890433311E0
1.341259844E0,-2.506481707E-1,-9.810572863E-2,9.866504669E0
1.343685833E0,-2.482553422E-1,-1.100698411E-1,9.880862236E0
1.346111771E0,-2.338984162E-1,-1.028913707E-1,9.880862236E0
1.348537760E0,-2.362912297E-1,-1.028913707E-1,9.864111900E0
1.350963750E0,-2.578266263E-1,-8.853443712E-2,9.878469467E0
1.353389739E0,-2.386840582E-1,-1.028913707E-1,9.880862236E0
1.355815677E0,-2.626122832E-1,-1.124626622E-1,9.873683929E0
1.358241667E0,-2.554338276E-1,-8.614161611E-2,9.883255005E0
1.360667656E0,-2.458625287E-1,-1.124626622E-1,9.888040543E0
1.363093646E0,-2.602194548E-1,-9.332008660E-2,9.880862236E0
1.365519583E0,-2.482553422E-1,-8.614161611E-2,9.866504669E0
1.367945573E0,-2.434697002E-1,-1.076770201E-1,9.897611618E0
1.370371562E0,-2.530409992E-1,-1.028913707E-1,9.871291161E0
1.372797552E0,-2.626122832E-1,-1.292124242E-1,9.868897438E0
1.375223489E0,-2.530409992E-1,-1.124626622E-1,9.883255005E0
1.377649479E0,-2.578266263E-1,-1.196411327E-1,9.876076698E0
1.380075469E0,-2.482553422E-1,-1.028913707E-1,9.876076698E0
1.382501458E0,-2.458625287E-1,-1.052841991E-1,9.895218849E0
1.384927396E0,-2.434697002E-1,-1.124626622E-1,9.871291161E0
1.387353385E0,-2.626122832E-1,-1.004985496E-1,9.873683929E0
1.389779375E0,-2.482553422E-1,-9.332008660E-2,9.883255005E0
1.392205364E0,-2.554338276E-1,-7.896314561E-2,9.861719131E0
1.394631302E0,-2.338984162E-1,-1.076770201E-1,9.859326363E0
1.397057292E0,-2.243271172E-1,-1.028913707E-1,9.876076698E0
1.399483281E0,-2.650051117E-1,-1.028913707E-1,9.871291161E0
1.401909271E0,-2.554338276E-1,-1.052841991E-1,9.885647774E0
1.404335260E0,-2.410768867E-1,-1.172483116E-1,9.873683929E0
1.406761198E0,-2.291127741E-1,-1.028913707E-1,9.873683929E0
1.409187187E0,-2.578266263E-1,-8.374879509E-2,9.883255005E0
1.411613177E0,-2.554338276E-1,-1.004985496E-1,9.890433311E0
1.414039167E0,-2.434697002E-1,-1.124626622E-1,9.876076698E0
1.416465104E0,-2.530409992E-1,-1.028913707E-1,9.864111900E0
1.418891094E0,-2.650051117E-1,-1.196411327E-1,9.885647774E0
1.421317083E0,-2.602194548E-1,-1.052841991E-1,9.878469467E0
1.423743021E0,-2.578266263E-1,-9.092725813E-2,9.868897438E0
1.426169010E0,-2.386840582E-1,-9.332008660E-2,9.895218849E0
1.428595000E0,-2.434697002E-1,-9.810572863E-2,9.871291161E0
1.431020989E0,-2.841476798E-1,-1.220339537E-1,9.868897438E0
1.433446979E0,-2.434697002E-1,-1.244267747E-1,9.868897438E0
1.435872917E0,-2.362912297E-1,-1.004985496E-1,9.876076698E0
1.438298906E0,-2.602194548E-1,-9.092725813E-2,9.873683929E0
1.440724896E0,-2.530409992E-1,-1.172483116E-1,9.866504669E0
1.443150885E0,-2.267199457E-1,-9.571290761E-2,9.916754723E0
1.445576823E0,-2.602194548E-1,-1.004985496E-1,9.890433311E0
1.448002812E0,-2.410768867E-1,-1.052841991E-1,9.902397156E0
1.450428802E0,-2.578266263E-1,-1.196411327E-1,9.873683929E0
1.452854792E0,-2.482553422E-1,-1.100698411E-1,9.885647774E0
1.455280729E0,-2.434697002E-1,-8.853443712E-2,9.883255005E0
1.457706719E0,-2.434697002E-1,-1.100698411E-1,9.876076698E0
1.460132708E0,-2.506481707E-1,-1.172483116E-1,9.866504669E0
1.462558698E0,-2.243271172E-1,-1.076770201E-1,9.876076698E0
1.464984635E0,-2.506481707E-1,-1.004985496E-1,9.866504669E0
1.467410625E0,-2.434697002E-1,-1.100698411E-1,9.880862236E0
1.469836614E0,-2.530409992E-1,-9.571290761E-2,9.873683929E0
1.472262604E0,-2.410768867E-1,-1.100698411E-1,9.873683929E0
1.474688542E0,-2.554338276E-1,-1.004985496E-1,9.856933594E0
1.477114531E0,-2.745763958E-1,-9.810572863E-2,9.888040543E0
1.479540521E0,-2.267199457E-1,-1.268195957E-1,9.890433311E0
1.481966510E0,-2.530409992E-1,-1.124626622E-1,9.885647774E0
1.484392500E0,-2.602194548E-1,-8.374879509E-2,9.876076698E0
1.486818437E0,-2.434697002E-1,-9.810572863E-2,9.868897438E0
1.489244427E0,-2.673979402E-1,-9.332008660E-2,9.883255005E0
1.491670417E0,-2.602194548E-1,-1.172483116E-1,9.873683929E0
1.494096406E0,-2.650051117E-1,-1.292124242E-1,9.878469467E0
1.496522344E0,-2.506481707E-1,-9.810572863E-2,9.873683929E0
1.498948333E0,-2.482553422E-1,-1.076770201E-1,9.890433311E0
1.501374323E0,-2.338984162E-1,-1.100698411E-1,9.880862236E0
1.503800312E0,-2.530409992E-1,-9.571290761E-2,9.878469467E0
1.506226250E0,-2.458625287E-1,-7.896314561E-2,9.861719131E0
1.508652239E0,-2.578266263E-1,-1.148554832E-1,9.861719131E0
1.511078229E0,-2.554338276E-1,-9.332008660E-2,9.878469467E0
1.513504219E0,-2.482553422E-1,-9.332008660E-2,9.890433311E0
1.515930156E0,-2.267199457E-1,-1.172483116E-1,9.890433311E0
1.518356146E0,-2.338984162E-1,-1.052841991E-1,9.883255005E0
1.520782135E0,-2.482553422E-1,-9.571290761E-2,9.876076698E0
1.523208125E0,-2.386840582E-1,-1.196411327E-1,9.895218849E0
1.525634062E0,-2.458625287E-1,-1.052841991E-1,9.871291161E0
1.528060052E0,-2.530409992E-1,-8.853443712E-2,9.883255005E0
1.530486042E0,-2.506481707E-1,-1.028913707E-1,9.888040543E0
1.532912031E0,-2.578266263E-1,-1.172483116E-1,9.892826080E0
1.535338021E0,-2.554338276E-1,-1.196411327E-1,9.883255005E0
1.537763958E0,-2.554338276E-1,-9.332008660E-2,9.847362518E0
1.540189948E0,-2.386840582E-1,-9.332008660E-2,9.880862236E0
1.542615937E0,-2.602194548E-1,-1.100698411E-1,9.880862236E0
1.545041927E0,-2.650051117E-1,-1.004985496E-1,9.868897438E0
1.547467864E0,-2.482553422E-1,-8.853443712E-2,9.892826080E0
1.549893854E0,-2.506481707E-1,-1.172483116E-1,9.883255005E0
1.552319844E0,-2.602194548E-1,-1.220339537E-1,9.871291161E0
1.554745833E0,-2.506481707E-1,-8.614161611E-2,9.900004387E0
1.557171771E0,-2.530409992E-1,-1.076770201E-1,9.868897438E0
1.559597760E0,-2.578266263E-1,-1.220339537E-1,9.864111900E0
1.562023750E0,-2.338984162E-1,-9.810572863E-2,9.864111900E0
1.564449739E0,-2.434697002E-1,-1.076770201E-1,9.880862236E0
1.566875677E0,-2.458625287E-1,-1.100698411E-1,9.880862236E0
1.569301667E0,-2.650051117E-1,-1.172483116E-1,9.871291161E0
1.571727656E0,-2.410768867E-1,-1.100698411E-1,9.868897438E0
1.574153646E0,-2.482553422E-1,-1.052841991E-1,9.878469467E0
1.576579583E0,-2.650051117E-1,-1.076770201E-1,9.876076698E0
1.579005573E0,-2.673979402E-1,-1.004985496E-1,9.859326363E0
1.581431562E0,-2.602194548E-1,-1.052841991E-1,9.864111900E0
1.583857552E0,-2.482553422E-1,-9.810572863E-2,9.885647774E0
1.586283542E0,-2.434697002E-1,-8.853443712E-2,9.866504669E0
1.588709479E0,-2.578266263E-1,-1.124626622E-1,9.890433311E0
1.591135469E0,-2.650051117E-1,-9.571290761E-2,9.878469467E0
1.593561458E0,-2.697907388E-1,-1.100698411E-1,9.871291161E0
1.595987448E0,-2.362912297E-1,-7.657032460E-2,9.876076698E0
1.598413385E0,-2.506481707E-1,-9.571290761E-2,9.880862236E0
1.600839375E0,-2.434697002E-1,-1.052841991E-1,9.876076698E0
1.603265364E0,-2.386840582E-1,-1.148554832E-1,9.878469467E0
1.605691354E0,-2.291127741E-1,-1.028913707E-1,9.871291161E0
1.608117292E0,-2.602194548E-1,-1.100698411E-1,9.897611618E0
1.610543281E0,-2.650051117E-1,-1.076770201E-1,9.871291161E0
1.612969271E0,-2.434697002E-1,-9.810572863E-2,9.878469467E0
1.615395260E0,-2.458625287E-1,-1.268195957E-1,9.883255005E0
1.617821198E0,-2.458625287E-1,-1.244267747E-1,9.888040543E0
1.620247187E0,-2.578266263E-1,-1.004985496E-1,9.883255005E0
1.622673177E0,-2.434697002E-1,-1.004985496E-1,9.871291161E0
1.625099167E0,-2.482553422E-1,-1.172483116E-1,9.885647774E0
1.627525156E0,-2.626122832E-1,-9.810572863E-2,9.878469467E0
1.629951094E0,-2.697907388E-1,-1.363908947E-1,9.880862236E0
1.632377083E0,-2.267199457E-1,-1.124626622E-1,9.880862236E0
1.634803073E0,-2.578266263E-1,-1.148554832E-1,9.888040543E0
1.637229062E0,-2.602194548E-1,-9.810572863E-2,9.885647774E0
1.639655000E0,-2.626122832E-1,-1.244267747E-1,9.861719131E0
1.642080989E0,-2.434697002E-1,-1.148554832E-1,9.888040543E0
1.644506979E0,-2.626122832E-1,-9.092725813E-2,9.883255005E0
1.646932969E0,-2.554338276E-1,-1.100698411E-1,9.868897438E0
1.649358906E0,-2.458625287E-1,-1.124626622E-1,9.883255005E0
1.651784896E0,-2.434697002E-1,-1.268195957E-1,9.873683929E0
1.654210885E0,-2.506481707E-1,-1.268195957E-1,9.876076698E0
1.656636875E0,-2.386840582E-1,-1.148554832E-1,9.880862236E0
1.659062812E0,-2.650051117E-1,-1.100698411E-1,9.876076698E0
1.661488802E0,-2.315055877E-1,-9.810572863E-2,9.873683929E0
1.663914792E0,-2.482553422E-1,-9.332008660E-2,9.873683929E0
1.666340781E0,-2.530409992E-1,-1.100698411E-1,9.861719131E0
1.668766771E0,-2.578266263E-1,-1.052841991E-1,9.844969749E0
1.671192708E0,-2.602194548E-1,-1.028913707E-1,9.866504669E0
1.673618698E0,-2.482553422E-1,-1.148554832E-1,9.859326363E0
1.676044687E0,-2.530409992E-1,-9.571290761E-2,9.888040543E0
1.678470677E0,-2.673979402E-1,-1.220339537E-1,9.861719131E0
1.680896614E0,-2.315055877E-1,-1.220339537E-1,9.895218849E0
1.683322604E0,-2.578266263E-1,-1.004985496E-1,9.876076698E0
1.685748594E0,-2.315055877E-1,-1.196411327E-1,9.871291161E0
1.688174583E0,-2.578266263E-1,-1.124626622E-1,9.888040543E0
1.690600521E0,-2.506481707E-1,-1.052841991E-1,9.890433311E0
1.693026510E0,-2.338984162E-1,-1.052841991E-1,9.880862236E0
1.695452500E0,-2.338984162E-1,-1.076770201E-1,9.892826080E0
1.697878489E0,-2.315055877E-1,-1.004985496E-1,9.868897438E0
1.700304427E0,-2.482553422E-1,-1.076770201E-1,9.861719131E0
1.702730417E0,-2.554338276E-1,-1.076770201E-1,9.876076698E0
1.705156406E0,-2.578266263E-1,-1.100698411E-1,9.876076698E0
1.707582396E0,-2.530409992E-1,-1.292124242E-1,9.883255005E0
1.710008385E0,-2.769692242E-1,-1.076770201E-1,9.892826080E0
1.712434323E0,-2.434697002E-1,-1.196411327E-1,9.892826080E0
1.714860312E0,-2.458625287E-1,-1.124626622E-1,9.885647774E0
1.717286302E0,-2.458625287E-1,-9.810572863E-2,9.878469467E0
1.719712239E0,-2.554338276E-1,-1.004985496E-1,9.892826080E0
1.722138229E0,-2.602194548E-1,-9.571290761E-2,9.878469467E0
1.724564219E0,-2.626122832E-1,-1.172483116E-1,9.873683929E0
1.726990208E0,-2.697907388E-1,-1.148554832E-1,9.880862236E0
1.729416198E0,-2.315055877E-1,-1.268195957E-1,9.873683929E0
1.731842135E0,-2.721835673E-1,-1.004985496E-1,9.871291161E0
1.734268125E0,-2.697907388E-1,-7.417750359E-2,9.868897438E0
1.736694114E0,-2.554338276E-1,-9.810572863E-2,9.876076698E0
1.739120104E0,-2.578266263E-1,-1.100698411E-1,9.866504669E0
1.741546042E0,-2.506481707E-1,-1.124626622E-1,9.878469467E0
1.743972031E0,-2.458625287E-1,-1.028913707E-1,9.880862236E0
1.746398021E0,-2.650051117E-1,-9.092725813E-2,9.883255005E0
1.748824010E0,-2.578266263E-1,-9.810572863E-2,9.897611618E0
1.751249948E0,-2.626122832E-1,-1.052841991E-1,9.876076698E0
1.753675937E0,-2.673979402E-1,-1.052841991E-1,9.883255005E0
1.756101927E0,-2.458625287E-1,-1.124626622E-1,9.883255005E0
1.758527917E0,-2.769692242E-1,-9.332008660E-2,9.866504669E0
1.760953906E0,-2.338984162E-1,-8.853443712E-2,9.883255005E0
1.763379844E0,-2.578266263E-1,-9.571290761E-2,9.876076698E0
1.765805833E0,-2.362912297E-1,-9.332008660E-2,9.871291161E0
1.768231823E0,-2.530409992E-1,-1.220339537E-1,9.885647774E0
1.770657812E0,-2.530409992E-1,-1.100698411E-1,9.890433311E0
1.773083750E0,-2.578266263E-1,-9.332008660E-2,9.878469467E0
1.775509739E0,-2.338984162E-1,-8.374879509E-2,9.866504669E0
1.777935729E0,-2.506481707E-1,-1.076770201E-1,9.871291161E0
1.780361719E0,-2.817548811E-1,-1.052841991E-1,9.878469467E0
1.782787656E0,-2.458625287E-1,-1.076770201E-1,9.878469467E0
1.785213646E0,-2.554338276E-1,-1.100698411E-1,9.871291161E0
1.787639635E0,-2.530409992E-1,-9.332008660E-2,9.868897438E0
1.790065625E0,-2.554338276E-1,-1.052841991E-1,9.892826080E0
1.792491614E0,-2.554338276E-1,-1.004985496E-1,9.868897438E0
1.794917552E0,-2.434697002E-1,-9.092725813E-2,9.892826080E0
1.797343542E0,-2.315055877E-1,-9.332008660E-2,9.895218849E0
1.799769531E0,-2.338984162E-1,-1.028913707E-1,9.888040543E0
1.802195521E0,-2.602194548E-1,-9.810572863E-2,9.859326363E0
1.804621458E0,-2.530409992E-1,-9.571290761E-2,9.880862236E0
1.807047448E0,-2.386840582E-1,-1.363908947E-1,9.871291161E0
1.809473437E0,-2.410768867E-1,-9.092725813E-2,9.868897438E0
1.811899427E0,-2.602194548E-1,-1.028913707E-1,9.895218849E0
1.814325364E0,-2.434697002E-1,-1.172483116E-1,9.895218849E0
1.816751354E0,-2.650051117E-1,-9.810572863E-2,9.885647774E0
1.819177344E0,-2.291127741E-1,-1.028913707E-1,9.880862236E0
1.821603333E0,-2.410768867E-1,-1.316052526E-1,9.861719131E0
1.824029271E0,-2.554338276E-1,-1.316052526E-1,9.868897438E0
1.826455260E0,-2.530409992E-1,-1.196411327E-1,9.868897438E0
1.828881250E0,-2.291127741E-1,-1.292124242E-1,9.885647774E0
1.831307239E0,-2.602194548E-1,-1.052841991E-1,9.878469467E0
1.833733177E0,-2.530409992E-1,-8.853443712E-2,9.892826080E0
1.836159167E0,-2.434697002E-1,-1.076770201E-1,9.883255005E0
1.838585156E0,-2.482553422E-1,-1.148554832E-1,9.880862236E0
1.841011146E0,-2.386840582E-1,-1.244267747E-1,9.883255005E0
1.843437083E0,-2.626122832E-1,-1.124626622E-1,9.876076698E0
1.845863073E0,-2.578266263E-1,-9.092725813E-2,9.885647774E0
1.848289062E0,-2.745763958E-1,-9.810572863E-2,9.883255005E0
1.850715052E0,-2.315055877E-1,-1.196411327E-1,9.880862236E0
1.853141042E0,-2.650051117E-1,-1.052841991E-1,9.880862236E0
1.855566979E0,-2.602194548E-1,-1.052841991E-1,9.876076698E0
1.857992969E0,-2.338984162E-1,-9.332008660E-2,9.873683929E0
1.860418958E0,-2.243271172E-1,-9.092725813E-2,9.878469467E0
1.862844948E0,-2.554338276E-1,-1.076770201E-1,9.876076698E0
1.865270885E0,-2.626122832E-1,-1.124626622E-1,9.904789925E0
1.867696875E0,-2.602194548E-1,-1.100698411E-1,9.883255005E0
1.870122864E0,-2.602194548E-1,-1.076770201E-1,9.876076698E0
1.872548854E0,-2.482553422E-1,-1.076770201E-1,9.880862236E0
1.874974792E0,-2.434697002E-1,-9.810572863E-2,9.868897438E0
1.877400781E0,-2.338984162E-1,-1.052841991E-1,9.890433311E0
1.879826771E0,-2.530409992E-1,-1.148554832E-1,9.892826080E0
1.882252760E0,-2.386840582E-1,-9.571290761E-2,9.890433311E0
1.884678750E0,-2.530409992E-1,-1.196411327E-1,9.883255005E0
1.887104687E0,-2.602194548E-1,-1.100698411E-1,9.880862236E0
1.889530677E0,-2.315055877E-1,-1.124626622E-1,9.900004387E0
1.891956667E0,-2.578266263E-1,-1.076770201E-1,9.888040543E0
1.894382656E0,-2.626122832E-1,-1.100698411E-1,9.880862236E0
1.896808594E0,-2.410768867E-1,-1.004985496E-1,9.885647774E0
1.899234583E0,-2.291127741E-1,-9.332008660E-2,9.885647774E0
1.901660573E0,-2.602194548E-1,-9.810572863E-2,9.859326363E0
1.904086562E0,-2.434697002E-1,-9.571290761E-2,9.849755287E0
1.906512500E0,-2.817548811E-1,-1.124626622E-1,9.868897438E0
1.908938489E0,-2.841476798E-1,-9.571290761E-2,9.873683929E0
1.911364479E0,-2.626122832E-1,-8.374879509E-2,9.883255005E0
1.913790469E0,-2.338984162E-1,-1.076770201E-1,9.892826080E0
1.916216406E0,-2.602194548E-1,-1.172483116E-1,9.876076698E0
1.918642396E0,-2.530409992E-1,-1.244267747E-1,9.895218849E0
1.921068385E0,-2.410768867E-1,-1.028913707E-1,9.873683929E0
1.923494375E0,-2.506481707E-1,-1.220339537E-1,9.890433311E0
1.925920364E0,-2.482553422E-1,-1.124626622E-1,9.897611618E0
1.928346302E0,-2.602194548E-1,-1.124626622E-1,9.852148056E0
1.930772292E0,-2.267199457E-1,-9.332008660E-2,9.878469467E0
1.933198281E0,-2.530409992E-1,-9.332008660E-2,9.849755287E0
1.935624271E0,-2.650051117E-1,-8.374879509E-2,9.871291161E0
1.938050208E0,-2.506481707E-1,-1.028913707E-1,9.876076698E0
1.940476198E0,-2.482553422E-1,-9.810572863E-2,9.871291161E0
1.942902187E0,-2.578266263E-1,-1.100698411E-1,9.866504669E0
1.945328177E0,-2.578266263E-1,-1.124626622E-1,9.885647774E0
1.947754114E0,-2.506481707E-1,-1.244267747E-1,9.866504669E0
1.950180104E0,-2.578266263E-1,-1.052841991E-1,9.876076698E0
1.952606094E0,-2.315055877E-1,-1.148554832E-1,9.849755287E0
1.955032083E0,-2.338984162E-1,-1.148554832E-1,9.873683929E0
1.957458073E0,-2.506481707E-1,-1.124626622E-1,9.873683929E0
1.959884010E0,-2.650051117E-1,-9.571290761E-2,9.876076698E0
1.962310000E0,-2.482553422E-1,-9.571290761E-2,9.864111900E0
1.964735989E0,-2.386840582E-1,-8.853443712E-2,9.885647774E0
1.967161979E0,-2.410768867E-1,-1.220339537E-1,9.885647774E0
1.969587917E0,-2.315055877E-1,-1.316052526E-1,9.900004387E0
1.972013906E0,-2.434697002E-1,-1.244267747E-1,9.868897438E0
1.974439896E0,-2.434697002E-1,-1.124626622E-1,9.873683929E0
1.976865885E0,-2.434697002E-1,-1.076770201E-1,9.883255005E0
1.979291823E0,-2.338984162E-1,-9.571290761E-2,9.883255005E0
1.981717812E0,-2.650051117E-1,-1.052841991E-1,9.890433311E0
1.984143802E0,-2.482553422E-1,-1.076770201E-1,9.873683929E0
1.986569792E0,-2.291127741E-1,-1.052841991E-1,9.888040543E0
1.988995781E0,-2.315055877E-1,-7.896314561E-2,9.883255005E0
1.991421719E0,-2.410768867E-1,-9.571290761E-2,9.861719131E0
1.993847708E0,-2.554338276E-1,-8.853443712E-2,9.888040543E0
1.996273698E0,-2.626122832E-1,-9.571290761E-2,9.859326363E0
1.998699687E0,-2.506481707E-1,-1.100698411E-1,9.883255005E0
2.001125625E0,-2.434697002E-1,-9.332008660E-2,9.892826080E0
2.003551614E0,-2.362912297E-1,-1.244267747E-1,9.868897438E0
2.005977604E0,-2.602194548E-1,-1.268195957E-1,9.885647774E0
2.008403594E0,-2.434697002E-1,-1.076770201E-1,9.868897438E0
2.010829531E0,-2.482553422E-1,-1.148554832E-1,9.864111900E0
2.013255521E0,-2.745763958E-1,-1.196411327E-1,9.864111900E0
2.015681510E0,-2.506481707E-1,-1.100698411E-1,9.888040543E0
2.018107500E0,-2.626122832E-1,-1.076770201E-1,9.873683929E0
2.020533489E0,-2.626122832E-1,-1.220339537E-1,9.880862236E0
2.022959427E0,-2.482553422E-1,-7.896314561E-2,9.883255005E0
2.025385417E0,-2.219343036E-1,-1.004985496E-1,9.888040543E0
2.027811406E0,-2.482553422E-1,-1.196411327E-1,9.873683929E0
2.030237396E0,-2.554338276E-1,-1.100698411E-1,9.883255005E0
2.032663333E0,-2.745763958E-1,-1.172483116E-1,9.883255005E0
2.035089323E0,-2.578266263E-1,-1.100698411E-1,9.868897438E0
2.037515312E0,-2.434697002E-1,-9.571290761E-2,9.861719131E0
2.039941302E0,-2.315055877E-1,-1.028913707E-1,9.900004387E0
2.042367239E0,-2.673979402E-1,-1.076770201E-1,9.871291161E0
2.044793229E0,-2.578266263E-1,-1.100698411E-1,9.885647774E0
2.047219219E0,-2.315055877E-1,-1.028913707E-1,9.878469467E0
2.049645208E0,-2.793620527E-1,-1.148554832E-1,9.897611618E0
2.052071146E0,-2.793620527E-1,-1.172483116E-1,9.876076698E0
2.054497135E0,-2.578266263E-1,-1.052841991E-1,9.883255005E0
2.056923125E0,-2.578266263E-1,-1.076770201E-1,9.871291161E0
2.059349114E0,-2.554338276E-1,-1.052841991E-1,9.866504669E0
2.061775104E0,-2.410768867E-1,-8.853443712E-2,9.885647774E0
2.064201042E0,-2.506481707E-1,-1.004985496E-1,9.880862236E0
2.066627031E0,-2.506481707E-1,-1.220339537E-1,9.883255005E0
2.069053021E0,-2.434697002E-1,-9.810572863E-2,9.897611618E0
2.071479010E0,-2.434697002E-1,-1.100698411E-1,9.878469467E0
2.073904948E0,-2.267199457E-1,-9.092725813E-2,9.866504669E0
2.076330937E0,-2.793620527E-1,-1.124626622E-1,9.892826080E0
2.078756927E0,-2.362912297E-1,-1.100698411E-1,9.868897438E0
2.081182917E0,-2.482553422E-1,-1.100698411E-1,9.890433311E0
2.083608854E0,-2.554338276E-1,-1.339980662E-1,9.878469467E0
2.086034844E0,-2.697907388E-1,-1.052841991E-1,9.888040543E0
2.088460833E0,-2.721835673E-1,-1.028913707E-1,9.888040543E0
2.090886823E0,-2.721835673E-1,-9.810572863E-2,9.876076698E0
2.093312812E0,-2.578266263E-1,-1.052841991E-1,9.885647774E0
2.095738750E0,-2.410768867E-1,-1.004985496E-1,9.878469467E0
2.098164739E0,-2.554338276E-1,-9.810572863E-2,9.866504669E0
2.100590729E0,-2.626122832E-1,-1.100698411E-1,9.859326363E0
2.103016719E0,-2.410768867E-1,-1.100698411E-1,9.878469467E0
2.105442656E0,-2.410768867E-1,-1.100698411E-1,9.883255005E0
2.107868646E0,-2.530409992E-1,-1.028913707E-1,9.876076698E0
2.110294635E0,-2.673979402E-1,-1.004985496E-1,9.883255005E0
2.112720625E0,-2.386840582E-1,-1.100698411E-1,9.890433311E0
2.115146614E0,-2.554338276E-1,-1.052841991E-1,9.868897438E0
2.117572552E0,-2.530409992E-1,-1.363908947E-1,9.892826080E0
2.119998542E0,-2.530409992E-1,-1.220339537E-1,9.873683929E0
2.122424531E0,-2.769692242E-1,-9.810572863E-2,9.885647774E0
2.124850521E0,-2.458625287E-1,-8.614161611E-2,9.880862236E0
2.127276458E0,-2.243271172E-1,-1.076770201E-1,9.883255005E0
2.129702448E0,-2.410768867E-1,-1.148554832E-1,9.888040543E0
2.132128437E0,-2.482553422E-1,-1.268195957E-1,9.871291161E0
2.134554427E0,-2.769692242E-1,-1.076770201E-1,9.880862236E0
2.136980364E0,-2.530409992E-1,-1.100698411E-1,9.888040543E0
2.139406354E0,-2.721835673E-1,-1.076770201E-1,9.876076698E0
2.141832344E0,-2.506481707E-1,-1.028913707E-1,9.871291161E0
2.144258333E0,-2.338984162E-1,-9.810572863E-2,9.895218849E0
2.146684323E0,-2.482553422E-1,-9.571290761E-2,9.876076698E0
2.149110260E0,-2.410768867E-1,-1.076770201E-1,9.878469467E0
2.151536250E0,-2.578266263E-1,-1.124626622E-1,9.871291161E0
2.153962239E0,-2.578266263E-1,-1.244267747E-1,9.873683929E0
2.156388229E0,-2.745763958E-1,-9.810572863E-2,9.890433311E0
2.158814167E0,-2.578266263E-1,-9.092725813E-2,9.866504669E0
2.161240156E0,-2.506481707E-1,-8.374879509E-2,9.868897438E0
2.163666146E0,-2.458625287E-1,-1.052841991E-1,9.878469467E0
2.166092135E0,-2.745763958E-1,-9.092725813E-2,9.904789925E0
2.168518073E0,-2.602194548E-1,-9.571290761E-2,9.861719131E0
2.170944062E0,-2.578266263E-1,-1.244267747E-1,9.871291161E0
2.173370052E0,-2.410768867E-1,-1.004985496E-1,9.885647774E0
2.175796042E0,-2.338984162E-1,-8.853443712E-2,9.885647774E0
2.178221979E0,-2.578266263E-1,-1.148554832E-1,9.888040543E0
2.180647969E0,-2.386840582E-1,-8.853443712E-2,9.876076698E0
2.183073958E0,-2.673979402E-1,-1.244267747E-1,9.866504669E0
2.185499948E0,-2.626122832E-1,-1.100698411E-1,9.873683929E0
2.187925937E0,-2.171486616E-1,-1.028913707E-1,9.895218849E0
2.190351875E0,-2.458625287E-1,-9.332008660E-2,9.895218849E0
2.192777864E0,-2.506481707E-1,-9.571290761E-2,9.890433311E0
2.195203854E0,-2.578266263E-1,-1.196411327E-1,9.878469467E0
2.197629844E0,-2.602194548E-1,-1.172483116E-1,9.871291161E0
2.200055781E0,-2.602194548E-1,-1.387837082E-1,9.902397156E0
2.202481771E0,-2.410768867E-1,-1.196411327E-1,9.859326363E0
2.204907760E0,-2.434697002E-1,-1.124626622E-1,9.876076698E0
2.207333750E0,-2.362912297E-1,-1.316052526E-1,9.892826080E0
2.209759739E0,-2.410768867E-1,-9.332008660E-2,9.897611618E0
2.212185677E0,-2.602194548E-1,-1.172483116E-1,9.895218849E0
2.214611667E0,-2.697907388E-1,-1.100698411E-1,9.888040543E0
2.217037656E0,-2.482553422E-1,-1.148554832E-1,9.878469467E0
2.219463646E0,-2.554338276E-1,-1.196411327E-1,9.876076698E0
2.221889635E0,-2.626122832E-1,-1.052841991E-1,9.868897438E0
2.224315573E0,-2.769692242E-1,-1.148554832E-1,9.866504669E0
2.226741562E0,-2.386840582E-1,-1.268195957E-1,9.878469467E0
2.229167552E0,-2.578266263E-1,-1.148554832E-1,9.873683929E0
2.231593542E0,-2.338984162E-1,-1.124626622E-1,9.885647774E0
2.234019479E0,-2.434697002E-1,-1.052841991E-1,9.904789925E0
2.236445469E0,-2.386840582E-1,-1.004985496E-1,9.866504669E0
2.238871458E0,-2.530409992E-1,-1.004985496E-1,9.885647774E0
2.241297448E0,-2.434697002E-1,-1.172483116E-1,9.885647774E0
2.243723385E0,-2.673979402E-1,-1.100698411E-1,9.866504669E0
2.246149375E0,-2.386840582E-1,-9.092725813E-2,9.873683929E0
2.248575364E0,-2.482553422E-1,-9.332008660E-2,9.880862236E0
2.251001354E0,-2.410768867E-1,-1.052841991E-1,9.880862236E0
2.253427292E0,-2.578266263E-1,-9.571290761E-2,9.883255005E0
2.255853281E0,-2.578266263E-1,-9.571290761E-2,9.871291161E0
2.258279271E0,-2.434697002E-1,-1.124626622E-1,9.871291161E0
2.260705260E0,-2.434697002E-1,-1.148554832E-1,9.876076698E0
2.263131250E0,-2.338984162E-1,-9.332008660E-2,9.873683929E0
2.265557187E0,-2.434697002E-1,-1.076770201E-1,9.897611618E0
2.267983177E0,-2.602194548E-1,-1.220339537E-1,9.892826080E0
2.270409167E0,-2.410768867E-1,-1.124626622E-1,9.888040543E0
2.272835156E0,-2.434697002E-1,-1.316052526E-1,9.883255005E0
2.275261094E0,-2.458625287E-1,-1.244267747E-1,9.883255005E0
2.277687083E0,-2.578266263E-1,-1.076770201E-1,9.873683929E0
2.280113073E0,-2.458625287E-1,-1.076770201E-1,9.866504669E0
2.282539062E0,-2.386840582E-1,-1.052841991E-1,9.883255005E0
2.284965000E0,-2.362912297E-1,-1.148554832E-1,9.885647774E0
2.287390989E0,-2.578266263E-1,-1.268195957E-1,9.873683929E0
2.289816979E0,-2.697907388E-1,-1.100698411E-1,9.888040543E0
2.292242969E0,-2.530409992E-1,-1.076770201E-1,9.868897438E0
2.294668958E0,-2.530409992E-1,-1.076770201E-1,9.864111900E0
2.297094896E0,-2.530409992E-1,-1.172483116E-1,9.897611618E0
2.299520885E0,-2.482553422E-1,-8.614161611E-2,9.864111900E0
2.301946875E0,-2.650051117E-1,-8.374879509E-2,9.868897438E0
2.304372864E0,-2.673979402E-1,-1.004985496E-1,9.873683929E0
2.306798802E0,-2.506481707E-1,-1.196411327E-1,9.861719131E0
2.309224792E0,-2.362912297E-1,-9.571290761E-2,9.873683929E0
2.311650781E0,-2.721835673E-1,-1.196411327E-1,9.880862236E0
2.314076771E0,-2.626122832E-1,-1.196411327E-1,9.880862236E0
2.316502760E0,-2.578266263E-1,-1.028913707E-1,9.866504669E0
2.318928698E0,-2.530409992E-1,-9.332008660E-2,9.873683929E0
2.321354687E0,-2.745763958E-1,-1.028913707E-1,9.883255005E0
2.323780677E0,-2.506481707E-1,-1.076770201E-1,9.878469467E0
2.326206667E0,-2.626122832E-1,-9.571290761E-2,9.864111900E0
2.328632604E0,-2.554338276E-1,-9.571290761E-2,9.856933594E0
2.331058594E0,-2.458625287E-1,-9.571290761E-2,9.888040543E0
2.333484583E0,-2.315055877E-1,-1.124626622E-1,9.897611618E0
2.335910573E0,-2.482553422E-1,-1.052841991E-1,9.885647774E0
2.338336510E0,-2.602194548E-1,-8.135596663E-2,9.902397156E0
2.340762500E0,-2.410768867E-1,-7.896314561E-2,9.873683929E0
2.343188489E0,-2.650051117E-1,-6.699903309E-2,9.885647774E0
2.345614479E0,-2.506481707E-1,-9.332008660E-2,9.880862236E0
2.348040469E0,-2.506481707E-1,-9.092725813E-2,9.892826080E0
2.350466406E0,-2.386840582E-1,-1.124626622E-1,9.876076698E0
2.352892396E0,-2.578266263E-1,-1.196411327E-1,9.885647774E0
2.355318385E0,-2.602194548E-1,-1.196411327E-1,9.873683929E0
2.357744375E0,-2.482553422E-1,-1.148554832E-1,9.888040543E0
2.360170312E0,-2.506481707E-1,-9.332008660E-2,9.883255005E0
2.362596302E0,-2.650051117E-1,-1.052841991E-1,9.871291161E0
2.365022292E0,-2.506481707E-1,-9.092725813E-2,9.876076698E0
2.367448281E0,-2.530409992E-1,-1.076770201E-1,9.895218849E0
2.369874219E0,-2.386840582E-1,-9.092725813E-2,9.873683929E0
2.372300208E0,-2.171486616E-1,-1.004985496E-1,9.883255005E0
2.374726198E0,-2.602194548E-1,-1.028913707E-1,9.871291161E0
2.377152187E0,-2.626122832E-1,-1.196411327E-1,9.880862236E0
2.379578177E0,-2.482553422E-1,-9.571290761E-2,9.866504669E0
2.382004114E0,-2.482553422E-1,-1.220339537E-1,9.866504669E0
2.384430104E0,-2.410768867E-1,-1.076770201E-1,9.866504669E0
2.386856094E0,-2.697907388E-1,-1.100698411E-1,9.873683929E0
2.389282083E0,-2.530409992E-1,-8.853443712E-2,9.883255005E0
2.391708021E0,-2.626122832E-1,-1.052841991E-1,9.871291161E0
2.394134010E0,-2.482553422E-1,-1.148554832E-1,9.892826080E0
2.396560000E0,-2.506481707E-1,-1.124626622E-1,9.866504669E0
2.398985989E0,-2.673979402E-1,-8.614161611E-2,9.878469467E0
2.401411979E0,-2.506481707E-1,-1.148554832E-1,9.876076698E0
2.403837917E0,-2.362912297E-1,-9.332008660E-2,9.878469467E0
2.406263906E0,-2.482553422E-1,-1.004985496E-1,9.873683929E0
2.408689896E0,-2.482553422E-1,-1.028913707E-1,9.871291161E0
2.411115885E0,-2.530409992E-1,-9.092725813E-2,9.871291161E0
2.413541823E0,-2.530409992E-1,-1.052841991E-1,9.883255005E0
2.415967812E0,-2.434697002E-1,-1.004985496E-1,9.871291161E0
2.418393802E0,-2.506481707E-1,-1.124626622E-1,9.866504669E0
2.420819792E0,-2.554338276E-1,-9.810572863E-2,9.876076698E0
2.423245729E0,-2.721835673E-1,-8.614161611E-2,9.866504669E0
2.425671719E0,-2.817548811E-1,-1.028913707E-1,9.900004387E0
2.428097708E0,-2.362912297E-1,-1.052841991E-1,9.880862236E0
2.430523698E0,-2.602194548E-1,-9.092725813E-2,9.864111900E0
2.432949687E0,-2.602194548E-1,-9.332008660E-2,9.861719131E0
2.435375625E0,-2.506481707E-1,-1.076770201E-1,9.866504669E0
2.437801614E0,-2.626122832E-1,-1.076770201E-1,9.856933594E0
2.440227604E0,-2.721835673E-1,-1.196411327E-1,9.878469467E0
2.442653594E0,-2.554338276E-1,-1.052841991E-1,9.868897438E0
2.445079531E0,-2.602194548E-1,-1.124626622E-1,9.868897438E0
2.447505521E0,-2.506481707E-1,-1.220339537E-1,9.897611618E0
2.449931510E0,-2.530409992E-1,-8.614161611E-2,9.871291161E0
2.452357500E0,-2.482553422E-1,-9.810572863E-2,9.883255005E0
2.454783489E0,-2.482553422E-1,-1.100698411E-1,9.878469467E0
2.457209427E0,-2.434697002E-1,-1.100698411E-1,9.871291161E0
2.459635417E0,-2.458625287E-1,-8.614161611E-2,9.873683929E0
2.462061406E0,-2.386840582E-1,-9.571290761E-2,9.880862236E0
2.464487396E0,-2.386840582E-1,-1.100698411E-1,9.878469467E0
2.466913333E0,-2.554338276E-1,-8.853443712E-2,9.900004387E0
2.469339323E0,-2.626122832E-1,-9.810572863E-2,9.871291161E0
2.471765312E0,-2.506481707E-1,-1.028913707E-1,9.859326363E0
2.474191302E0,-2.721835673E-1,-1.100698411E-1,9.880862236E0
2.476617239E0,-2.506481707E-1,-1.172483116E-1,9.890433311E0
2.479043229E0,-2.793620527E-1,-1.100698411E-1,9.864111900E0
2.481469219E0,-2.626122832E-1,-9.810572863E-2,9.876076698E0
2.483895208E0,-2.362912297E-1,-8.135596663E-2,9.868897438E0
2.486321198E0,-2.578266263E-1,-1.100698411E-1,9.878469467E0
2.488747135E0,-2.291127741E-1,-1.076770201E-1,9.880862236E0
2.491173125E0,-2.578266263E-1,-8.853443712E-2,9.876076698E0
2.493599114E0,-2.578266263E-1,-1.100698411E-1,9.880862236E0
2.496025104E0,-2.482553422E-1,-1.220339537E-1,9.871291161E0
2.498451042E0,-2.482553422E-1,-1.028913707E-1,9.890433311E0
2.500877031E0,-2.434697002E-1,-9.810572863E-2,9.885647774E0
2.503303021E0,-2.721835673E-1,-9.332008660E-2,9.888040543E0
2.505729010E0,-2.673979402E-1,-9.810572863E-2,9.883255005E0
2.508155000E0,-2.578266263E-1,-1.100698411E-1,9.873683929E0
2.510580937E0,-2.506481707E-1,-1.172483116E-1,9.883255005E0
2.513006927E0,-2.578266263E-1,-1.004985496E-1,9.885647774E0
2.515432917E0,-2.434697002E-1,-1.028913707E-1,9.885647774E0
2.517858906E0,-2.602194548E-1,-1.124626622E-1,9.873683929E0
2.520284844E0,-2.434697002E-1,-1.004985496E-1,9.861719131E0
2.522710833E0,-2.793620527E-1,-1.004985496E-1,9.878469467E0
2.525136823E0,-2.554338276E-1,-1.124626622E-1,9.849755287E0
2.527562812E0,-2.482553422E-1,-1.100698411E-1,9.864111900E0
2.529988802E0,-2.530409992E-1,-9.810572863E-2,9.876076698E0
2.532414739E0,-2.554338276E-1,-9.810572863E-2,9.868897438E0
2.534840729E0,-2.650051117E-1,-1.028913707E-1,9.868897438E0
2.537266719E0,-2.578266263E-1,-9.332008660E-2,9.876076698E0
2.539692708E0,-2.578266263E-1,-1.100698411E-1,9.873683929E0
2.542118646E0,-2.530409992E-1,-9.810572863E-2,9.876076698E0
2.544544635E0,-2.554338276E-1,-1.244267747E-1,9.883255005E0
2.546970625E0,-2.410768867E-1,-1.148554832E-1,9.861719131E0
2.549396614E0,-2.410768867E-1,-9.092725813E-2,9.864111900E0
2.551822552E0,-2.602194548E-1,-1.028913707E-1,9.883255005E0
2.554248542E0,-2.745763958E-1,-1.100698411E-1,9.890433311E0
2.556674531E0,-2.697907388E-1,-1.172483116E-1,9.871291161E0
2.559100521E0,-2.578266263E-1,-1.076770201E-1,9.878469467E0
2.561526510E0,-2.578266263E-1,-1.148554832E-1,9.895218849E0
2.563952448E0,-2.602194548E-1,-1.387837082E-1,9.864111900E0
2.566378437E0,-2.386840582E-1,-1.076770201E-1,9.888040543E0
2.568804427E0,-2.315055877E-1,-1.148554832E-1,9.876076698E0
2.571230417E0,-2.386840582E-1,-1.148554832E-1,9.883255005E0
2.573656354E0,-2.626122832E-1,-1.076770201E-1,9.880862236E0
2.576082344E0,-2.602194548E-1,-1.316052526E-1,9.897611618E0
2.578508333E0,-2.578266263E-1,-1.148554832E-1,9.854540825E0
2.580934323E0,-2.745763958E-1,-1.076770201E-1,9.900004387E0
2.583360260E0,-2.602194548E-1,-1.052841991E-1,9.883255005E0
2.585786250E0,-2.650051117E-1,-9.571290761E-2,9.888040543E0
2.588212239E0,-2.697907388E-1,-8.374879509E-2,9.900004387E0
2.590638229E0,-2.458625287E-1,-9.332008660E-2,9.873683929E0
2.593064219E0,-2.315055877E-1,-1.148554832E-1,9.873683929E0
2.595490156E0,-2.410768867E-1,-1.076770201E-1,9.864111900E0
2.597916146E0,-2.386840582E-1,-1.196411327E-1,9.856933594E0
2.600342135E0,-2.602194548E-1,-1.268195957E-1,9.868897438E0
2.602768125E0,-2.626122832E-1,-1.004985496E-1,9.892826080E0
2.605194062E0,-2.410768867E-1,-1.076770201E-1,9.876076698E0
2.607620052E0,-2.506481707E-1,-1.028913707E-1,9.885647774E0
2.610046042E0,-2.410768867E-1,-9.810572863E-2,9.883255005E0
2.612472031E0,-2.458625287E-1,-1.076770201E-1,9.890433311E0
2.614898021E0,-2.673979402E-1,-1.052841991E-1,9.892826080E0
2.617323958E0,-2.769692242E-1,-1.244267747E-1,9.873683929E0
2.619749948E0,-2.410768867E-1,-9.571290761E-2,9.859326363E0
2.622175937E0,-2.458625287E-1,-1.148554832E-1,9.873683929E0
2.624601927E0,-2.530409992E-1,-1.028913707E-1,9.864111900E0
2.627027864E0,-2.626122832E-1,-1.148554832E-1,9.868897438E0
2.629453854E0,-2.410768867E-1,-1.124626622E-1,9.890433311E0
2.631879844E0,-2.410768867E-1,-1.028913707E-1,9.866504669E0
2.634305833E0,-2.506481707E-1,-1.316052526E-1,9.883255005E0
2.636731823E0,-2.554338276E-1,-1.363908947E-1,9.871291161E0
2.639157760E0,-2.530409992E-1,-1.172483116E-1,9.873683929E0
2.641583750E0,-2.506481707E-1,-1.076770201E-1,9.876076698E0
2.644009739E0,-2.650051117E-1,-1.244267747E-1,9.885647774E0
2.646435729E0,-2.362912297E-1,-9.810572863E-2,9.868897438E0
2.648861667E0,-2.410768867E-1,-1.028913707E-1,9.880862236E0
2.651287656E0,-2.291127741E-1,-1.316052526E-1,9.878469467E0
2.653713646E0,-2.554338276E-1,-1.124626622E-1,9.876076698E0
2.656139635E0,-2.506481707E-1,-9.810572863E-2,9.880862236E0
2.658565573E0,-2.673979402E-1,-9.810572863E-2,9.892826080E0
2.660991562E0,-2.769692242E-1,-1.100698411E-1,9.885647774E0
2.663417552E0,-2.769692242E-1,-9.092725813E-2,9.885647774E0
2.665843542E0,-2.650051117E-1,-1.196411327E-1,9.866504669E0
2.668269531E0,-2.482553422E-1,-1.100698411E-1,9.888040543E0
2.670695469E0,-2.506481707E-1,-8.135596663E-2,9.866504669E0
2.673121458E0,-2.554338276E-1,-8.135596663E-2,9.880862236E0
2.675547448E0,-2.673979402E-1,-9.810572863E-2,9.871291161E0
2.677973437E0,-2.697907388E-1,-8.374879509E-2,9.892826080E0
2.680399375E0,-2.530409992E-1,-7.417750359E-2,9.888040543E0
2.682825364E0,-2.673979402E-1,-1.076770201E-1,9.890433311E0
2.685251354E0,-2.506481707E-1,-1.004985496E-1,9.880862236E0
2.687677344E0,-2.362912297E-1,-9.810572863E-2,9.883255005E0
2.690103333E0,-2.626122832E-1,-1.028913707E-1,9.873683929E0
2.692529271E0,-2.626122832E-1,-1.076770201E-1,9.900004387E0
2.694955260E0,-2.554338276E-1,-1.004985496E-1,9.878469467E0
2.697381250E0,-2.673979402E-1,-1.028913707E-1,9.871291161E0
2.699807239E0,-2.434697002E-1,-1.148554832E-1,9.888040543E0
2.702233177E0,-2.458625287E-1,-1.076770201E-1,9.876076698E0
2.704659167E0,-2.410768867E-1,-1.148554832E-1,9.897611618E0
2.707085156E0,-2.458625287E-1,-9.332008660E-2,9.876076698E0
2.709511146E0,-2.650051117E-1,-9.332008660E-2,9.888040543E0
2.711937083E0,-2.530409992E-1,-1.004985496E-1,9.871291161E0
2.714363073E0,-2.530409992E-1,-1.052841991E-1,9.871291161E0
2.716789062E0,-2.650051117E-1,-9.571290761E-2,9.902397156E0
2.719215052E0,-2.626122832E-1,-8.614161611E-2,9.871291161E0
2.721641042E0,-2.410768867E-1,-1.076770201E-1,9.866504669E0
2.724066979E0,-2.578266263E-1,-1.172483116E-1,9.892826080E0
2.726492969E0,-2.434697002E-1,-1.052841991E-1,9.868897438E0
2.728918958E0,-2.554338276E-1,-1.004985496E-1,9.890433311E0
2.731344948E0,-2.482553422E-1,-9.810572863E-2,9.880862236E0
2.733770885E0,-2.697907388E-1,-1.052841991E-1,9.861719131E0
2.736196875E0,-2.434697002E-1,-1.076770201E-1,9.888040543E0
2.738622864E0,-2.578266263E-1,-8.374879509E-2,9.883255005E0
2.741048854E0,-2.530409992E-1,-9.571290761E-2,9.880862236E0
2.743474844E0,-2.434697002E-1,-1.052841991E-1,9.878469467E0
2.745900781E0,-2.554338276E-1,-1.172483116E-1,9.876076698E0
2.748326771E0,-2.386840582E-1,-1.076770201E-1,9.878469467E0
2.750752760E0,-2.602194548E-1,-1.244267747E-1,9.873683929E0
2.753178750E0,-2.482553422E-1,-7.896314561E-2,9.878469467E0
2.755604687E0,-2.530409992E-1,-9.092725813E-2,9.883255005E0
2.758030677E0,-2.386840582E-1,-9.810572863E-2,9.876076698E0
2.760456667E0,-2.673979402E-1,-1.052841991E-1,9.888040543E0
2.762882656E0,-2.769692242E-1,-1.004985496E-1,9.888040543E0
2.765308646E0,-2.626122832E-1,-8.853443712E-2,9.892826080E0
2.767734583E0,-2.745763958E-1,-1.100698411E-1,9.880862236E0
2.770160573E0,-2.434697002E-1,-9.092725813E-2,9.878469467E0
2.772586562E0,-2.578266263E-1,-1.004985496E-1,9.864111900E0
2.775012552E0,-2.458625287E-1,-1.052841991E-1,9.878469467E0
2.777438489E0,-2.338984162E-1,-1.268195957E-1,9.878469467E0
2.779864479E0,-2.410768867E-1,-1.148554832E-1,9.900004387E0
2.782290469E0,-2.769692242E-1,-1.052841991E-1,9.883255005E0
2.784716458E0,-2.506481707E-1,-1.148554832E-1,9.868897438E0
2.787142448E0,-2.434697002E-1,-1.004985496E-1,9.854540825E0
2.789568385E0,-2.434697002E-1,-1.052841991E-1,9.873683929E0
2.791994375E0,-2.506481707E-1,-1.052841991E-1,9.873683929E0
2.794420364E0,-2.386840582E-1,-1.052841991E-1,9.897611618E0
2.796846354E0,-2.650051117E-1,-1.028913707E-1,9.878469467E0
2.799272292E0,-2.578266263E-1,-1.028913707E-1,9.871291161E0
2.801698281E0,-2.721835673E-1,-1.244267747E-1,9.868897438E0
2.804124271E0,-2.506481707E-1,-1.196411327E-1,9.873683929E0
2.806550260E0,-2.458625287E-1,-1.268195957E-1,9.873683929E0
2.808976198E0,-2.482553422E-1,-1.459621787E-1,9.871291161E0
2.811402187E0,-2.602194548E-1,-9.810572863E-2,9.883255005E0
2.813828177E0,-2.434697002E-1,-1.339980662E-1,9.873683929E0
2.816254167E0,-2.410768867E-1,-1.363908947E-1,9.878469467E0
2.818680156E0,-2.626122832E-1,-1.028913707E-1,9.876076698E0
2.821106094E0,-2.482553422E-1,-1.172483116E-1,9.888040543E0
2.823532083E0,-2.554338276E-1,-9.571290761E-2,9.880862236E0
2.825958073E0,-2.530409992E-1,-9.332008660E-2,9.883255005E0
2.828384062E0,-2.458625287E-1,-1.076770201E-1,9.880862236E0
2.830810000E0,-2.362912297E-1,-1.052841991E-1,9.883255005E0
2.833235989E0,-2.434697002E-1,-1.076770201E-1,9.888040543E0
2.835661979E0,-2.362912297E-1,-1.220339537E-1,9.871291161E0
2.838087969E0,-2.554338276E-1,-1.124626622E-1,9.873683929E0
2.840513958E0,-2.291127741E-1,-1.052841991E-1,9.880862236E0
2.842939896E0,-2.578266263E-1,-1.028913707E-1,9.890433311E0
2.845365885E0,-2.650051117E-1,-1.052841991E-1,9.890433311E0
2.847791875E0,-2.434697002E-1,-1.100698411E-1,9.873683929E0
2.850217864E0,-2.410768867E-1,-9.571290761E-2,9.890433311E0
2.852643802E0,-2.482553422E-1,-9.810572863E-2,9.883255005E0
2.855069792E0,-2.626122832E-1,-1.076770201E-1,9.859326363E0
2.857495781E0,-2.482553422E-1,-1.100698411E-1,9.864111900E0
2.859921771E0,-2.602194548E-1,-1.172483116E-1,9.871291161E0
2.862347760E0,-2.673979402E-1,-1.292124242E-1,9.878469467E0
2.864773698E0,-2.267199457E-1,-1.100698411E-1,9.866504669E0
2.867199687E0,-2.697907388E-1,-1.244267747E-1,9.883255005E0
2.869625677E0,-2.434697002E-1,-7.417750359E-2,9.885647774E0
2.872051667E0,-2.482553422E-1,-1.196411327E-1,9.880862236E0
2.874477604E0,-2.554338276E-1,-1.268195957E-1,9.866504669E0
2.876903594E0,-2.530409992E-1,-1.052841991E-1,9.880862236E0
2.879329583E0,-2.267199457E-1,-1.100698411E-1,9.888040543E0
2.881755573E0,-2.745763958E-1,-1.268195957E-1,9.876076698E0
2.884181562E0,-2.578266263E-1,-1.148554832E-1,9.878469467E0
2.886607500E0,-2.626122832E-1,-1.004985496E-1,9.892826080E0
2.889033489E0,-2.458625287E-1,-1.196411327E-1,9.871291161E0
2.891459479E0,-2.578266263E-1,-8.853443712E-2,9.859326363E0
2.893885469E0,-2.530409992E-1,-9.810572863E-2,9.873683929E0
2.896311406E0,-2.482553422E-1,-1.220339537E-1,9.883255005E0
2.898737396E0,-2.530409992E-1,-1.004985496E-1,9.885647774E0
2.901163385E0,-2.626122832E-1,-1.196411327E-1,9.888040543E0
2.903589375E0,-2.458625287E-1,-1.196411327E-1,9.880862236E0
2.906015312E0,-2.243271172E-1,-9.571290761E-2,9.878469467E0
2.908441302E0,-2.602194548E-1,-9.810572863E-2,9.890433311E0
2.910867292E0,-2.362912297E-1,-1.076770201E-1,9.880862236E0
2.913293281E0,-2.458625287E-1,-1.244267747E-1,9.878469467E0
2.915719271E0,-2.482553422E-1,-1.148554832E-1,9.880862236E0
2.918145208E0,-2.506481707E-1,-9.810572863E-2,9.876076698E0
2.920571198E0,-2.482553422E-1,-1.196411327E-1,9.866504669E0
2.922997187E0,-2.219343036E-1,-1.028913707E-1,9.888040543E0
2.925423177E0,-2.602194548E-1,-1.028913707E-1,9.873683929E0
2.927849167E0,-2.530409992E-1,-1.148554832E-1,9.849755287E0
2.930275104E0,-2.458625287E-1,-1.196411327E-1,9.880862236E0
2.932701094E0,-2.410768867E-1,-9.571290761E-2,9.883255005E0
2.935127083E0,-2.315055877E-1,-1.148554832E-1,9.880862236E0
2.937553073E0,-2.554338276E-1,-1.076770201E-1,9.864111900E0
2.939979010E0,-2.721835673E-1,-9.571290761E-2,9.873683929E0
2.942405000E0,-2.697907388E-1,-1.100698411E-1,9.873683929E0
2.944830989E0,-2.315055877E-1,-9.571290761E-2,9.880862236E0
2.947256979E0,-2.482553422E-1,-1.100698411E-1,9.864111900E0
2.949682917E0,-2.745763958E-1,-9.092725813E-2,9.883255005E0
2.952108906E0,-2.578266263E-1,-1.004985496E-1,9.904789925E0
2.954534896E0,-2.434697002E-1,-9.571290761E-2,9.888040543E0
2.956960885E0,-2.530409992E-1,-9.571290761E-2,9.864111900E0
2.959386875E0,-2.626122832E-1,-9.810572863E-2,9.873683929E0
2.961812812E0,-2.506481707E-1,-1.148554832E-1,9.856933594E0
2.964238802E0,-2.458625287E-1,-1.052841991E-1,9.871291161E0
2.966664792E0,-2.506481707E-1,-1.100698411E-1,9.847362518E0
2.969090781E0,-2.410768867E-1,-9.092725813E-2,9.876076698E0
2.971516771E0,-2.315055877E-1,-1.076770201E-1,9.897611618E0
2.973942708E0,-2.530409992E-1,-8.853443712E-2,9.890433311E0
2.976368698E0,-2.506481707E-1,-9.571290761E-2,9.890433311E0
2.978794687E0,-2.482553422E-1,-1.052841991E-1,9.885647774E0
2.981220677E0,-2.291127741E-1,-9.571290761E-2,9.878469467E0
2.983646614E0,-2.530409992E-1,-1.052841991E-1,9.864111900E0
2.986072604E0,-2.291127741E-1,-1.004985496E-1,9.876076698E0
2.988498594E0,-2.745763958E-1,-1.124626622E-1,9.868897438E0
2.990924583E0,-2.315055877E-1,-1.100698411E-1,9.876076698E0
2.993350521E0,-2.578266263E-1,-8.374879509E-2,9.868897438E0
2.995776510E0,-2.482553422E-1,-1.052841991E-1,9.876076698E0
2.998202500E0,-2.291127741E-1,-1.196411327E-1,9.868897438E0
3.000628489E0,-2.602194548E-1,-9.810572863E-2,9.866504669E0
3.003054479E0,-2.530409992E-1,-1.004985496E-1,9.892826080E0
3.005480417E0,-2.338984162E-1,-1.076770201E-1,9.897611618E0
3.007906406E0,-2.626122832E-1,-1.052841991E-1,9.883255005E0
3.010332396E0,-2.434697002E-1,-1.172483116E-1,9.864111900E0
3.012758385E0,-2.650051117E-1,-1.339980662E-1,9.864111900E0
3.015184323E0,-2.530409992E-1,-1.220339537E-1,9.873683929E0
3.017610312E0,-2.554338276E-1,-1.052841991E-1,9.885647774E0
3.020036302E0,-2.482553422E-1,-1.244267747E-1,9.880862236E0
3.022462292E0,-2.530409992E-1,-9.332008660E-2,9.880862236E0
3.024888281E0,-2.554338276E-1,-9.810572863E-2,9.890433311E0
3.027314219E0,-2.434697002E-1,-8.853443712E-2,9.900004387E0
3.029740208E0,-2.458625287E-1,-9.571290761E-2,9.885647774E0
3.032166198E0,-2.482553422E-1,-9.332008660E-2,9.871291161E0
3.034592187E0,-2.506481707E-1,-9.092725813E-2,9.897611618E0
3.037018125E0,-2.458625287E-1,-9.810572863E-2,9.897611618E0
3.039444114E0,-2.530409992E-1,-1.172483116E-1,9.873683929E0
3.041870104E0,-2.434697002E-1,-1.172483116E-1,9.854540825E0
3.044296094E0,-2.410768867E-1,-1.363908947E-1,9.864111900E0
3.046722083E0,-2.626122832E-1,-9.810572863E-2,9.876076698E0
3.049148021E0,-2.578266263E-1,-1.148554832E-1,9.876076698E0
3.051574010E0,-2.554338276E-1,-9.810572863E-2,9.895218849E0
3.054000000E0,-2.554338276E-1,-8.135596663E-2,9.885647774E0
3.056425989E0,-2.386840582E-1,-1.004985496E-1,9.868897438E0
3.058851927E0,-2.530409992E-1,-9.092725813E-2,9.890433311E0
3.061277917E0,-2.530409992E-1,-9.092725813E-2,9.864111900E0
3.063703906E0,-2.578266263E-1,-1.052841991E-1,9.868897438E0
3.066129896E0,-2.506481707E-1,-1.172483116E-1,9.864111900E0
3.068555885E0,-2.482553422E-1,-1.100698411E-1,9.876076698E0
3.070981823E0,-2.410768867E-1,-1.172483116E-1,9.880862236E0
3.073407812E0,-2.554338276E-1,-1.076770201E-1,9.864111900E0
3.075833802E0,-2.673979402E-1,-9.571290761E-2,9.876076698E0
3.078259792E0,-2.554338276E-1,-7.896314561E-2,9.844969749E0
3.080685729E0,-2.602194548E-1,-9.571290761E-2,9.883255005E0
3.083111719E0,-2.673979402E-1,-1.172483116E-1,9.873683929E0
3.085537708E0,-2.626122832E-1,-1.172483116E-1,9.868897438E0
3.087963698E0,-2.434697002E-1,-1.292124242E-1,9.878469467E0
3.090389687E0,-2.458625287E-1,-1.268195957E-1,9.885647774E0
3.092815625E0,-2.410768867E-1,-1.100698411E-1,9.878469467E0
3.095241614E0,-2.673979402E-1,-8.374879509E-2,9.895218849E0
3.097667604E0,-2.530409992E-1,-1.004985496E-1,9.902397156E0
3.100093594E0,-2.650051117E-1,-1.148554832E-1,9.880862236E0
3.102519531E0,-2.482553422E-1,-1.220339537E-1,9.866504669E0
3.104945521E0,-2.554338276E-1,-9.332008660E-2,9.883255005E0
3.107371510E0,-2.482553422E-1,-1.316052526E-1,9.885647774E0
3.109797500E0,-2.530409992E-1,-8.853443712E-2,9.861719131E0
3.112223437E0,-2.506481707E-1,-1.148554832E-1,9.883255005E0
3.114649427E0,-2.530409992E-1,-8.374879509E-2,9.883255005E0
3.117075417E0,-2.386840582E-1,-9.092725813E-2,9.892826080E0
3.119501406E0,-2.530409992E-1,-1.316052526E-1,9.895218849E0
3.121927396E0,-2.315055877E-1,-1.100698411E-1,9.873683929E0
3.124353333E0,-2.386840582E-1,-1.100698411E-1,9.868897438E0
3.126779323E0,-2.267199457E-1,-1.052841991E-1,9.878469467E0
3.129205312E0,-2.530409992E-1,-1.076770201E-1,9.868897438E0
3.131631302E0,-2.769692242E-1,-9.810572863E-2,9.897611618E0
3.134057292E0,-2.506481707E-1,-9.810572863E-2,9.892826080E0
3.136483229E0,-2.338984162E-1,-1.052841991E-1,9.885647774E0
3.138909219E0,-2.554338276E-1,-9.810572863E-2,9.878469467E0
3.141335208E0,-2.434697002E-1,-1.052841991E-1,9.897611618E0
3.143761198E0,-2.410768867E-1,-1.124626622E-1,9.890433311E0
3.146187135E0,-2.434697002E-1,-1.124626622E-1,9.873683929E0
3.148613125E0,-2.434697002E-1,-9.092725813E-2,9.866504669E0
3.151039114E0,-2.530409992E-1,-1.052841991E-1,9.890433311E0
3.153465104E0,-2.410768867E-1,-1.196411327E-1,9.888040543E0
3.155891094E0,-2.195414752E-1,-9.571290761E-2,9.885647774E0
3.158317031E0,-2.338984162E-1,-1.196411327E-1,9.885647774E0
3.160743021E0,-2.386840582E-1,-1.004985496E-1,9.876076698E0
3.163169010E0,-2.482553422E-1,-1.100698411E-1,9.890433311E0
3.165595000E0,-2.410768867E-1,-1.172483116E-1,9.873683929E0
3.168020937E0,-2.578266263E-1,-1.148554832E-1,9.868897438E0
3.170446927E0,-2.602194548E-1,-9.571290761E-2,9.892826080E0
3.172872917E0,-2.458625287E-1,-1.004985496E-1,9.883255005E0
3.175298906E0,-2.386840582E-1,-9.092725813E-2,9.873683929E0
3.177724844E0,-2.458625287E-1,-9.092725813E-2,9.890433311E0
3.180150833E0,-2.434697002E-1,-9.332008660E-2,9.885647774E0
3.182576823E0,-2.841476798E-1,-9.810572863E-2,9.868897438E0
3.185002812E0,-2.673979402E-1,-1.028913707E-1,9.883255005E0
3.187428802E0,-2.578266263E-1,-1.052841991E-1,9.866504669E0
3.189854739E0,-2.578266263E-1,-1.124626622E-1,9.868897438E0
3.192280729E0,-2.506481707E-1,-1.076770201E-1,9.866504669E0
3.194706719E0,-2.673979402E-1,-1.100698411E-1,9.856933594E0
3.197132708E0,-2.482553422E-1,-1.148554832E-1,9.864111900E0
3.199558698E0,-2.386840582E-1,-1.172483116E-1,9.871291161E0
3.201984635E0,-2.434697002E-1,-1.052841991E-1,9.880862236E0
3.204410625E0,-2.530409992E-1,-9.571290761E-2,9.873683929E0
3.206836614E0,-2.458625287E-1,-1.052841991E-1,9.878469467E0
3.209262604E0,-2.362912297E-1,-1.028913707E-1,9.861719131E0
3.211688542E0,-2.745763958E-1,-1.004985496E-1,9.868897438E0
3.214114531E0,-2.650051117E-1,-1.028913707E-1,9.880862236E0
3.216540521E0,-2.697907388E-1,-9.332008660E-2,9.883255005E0
3.218966510E0,-2.434697002E-1,-9.092725813E-2,9.873683929E0
3.221392500E0,-2.626122832E-1,-1.148554832E-1,9.883255005E0
3.223818437E0,-2.291127741E-1,-1.052841991E-1,9.897611618E0
3.226244427E0,-2.410768867E-1,-1.100698411E-1,9.878469467E0
3.228670417E0,-2.578266263E-1,-1.387837082E-1,9.878469467E0
3.231096406E0,-2.578266263E-1,-1.052841991E-1,9.883255005E0
3.233522344E0,-2.530409992E-1,-1.028913707E-1,9.873683929E0
3.235948333E0,-2.554338276E-1,-1.052841991E-1,9.892826080E0
3.238374323E0,-2.602194548E-1,-1.076770201E-1,9.876076698E0
3.240800312E0,-2.793620527E-1,-1.004985496E-1,9.868897438E0
3.243226302E0,-2.458625287E-1,-9.332008660E-2,9.854540825E0
3.245652239E0,-2.697907388E-1,-1.004985496E-1,9.900004387E0
3.248078229E0,-2.721835673E-1,-1.076770201E-1,9.883255005E0
3.250504219E0,-2.793620527E-1,-9.332008660E-2,9.880862236E0
3.252930208E0,-2.578266263E-1,-1.148554832E-1,9.868897438E0
3.255356146E0,-2.482553422E-1,-8.614161611E-2,9.871291161E0
3.257782135E0,-2.530409992E-1,-1.052841991E-1,9.888040543E0
3.260208125E0,-2.626122832E-1,-9.571290761E-2,9.876076698E0
3.262634114E0,-2.650051117E-1,-9.810572863E-2,9.871291161E0
3.265060104E0,-2.506481707E-1,-1.028913707E-1,9.866504669E0
3.267486042E0,-2.626122832E-1,-7.896314561E-2,9.883255005E0
3.269912031E0,-2.697907388E-1,-9.332008660E-2,9.859326363E0
3.272338021E0,-2.338984162E-1,-1.076770201E-1,9.873683929E0
3.274764010E0,-2.506481707E-1,-1.172483116E-1,9.892826080E0
3.277189948E0,-2.434697002E-1,-1.028913707E-1,9.892826080E0
3.279615937E0,-2.626122832E-1,-1.004985496E-1,9.895218849E0
3.282041927E0,-2.745763958E-1,-1.148554832E-1,9.868897438E0
3.284467917E0,-2.554338276E-1,-1.172483116E-1,9.883255005E0
3.286893906E0,-2.410768867E-1,-7.417750359E-2,9.883255005E0
3.289319844E0,-2.434697002E-1,-9.810572863E-2,9.885647774E0
3.291745833E0,-2.434697002E-1,-1.220339537E-1,9.876076698E0
3.294171823E0,-2.482553422E-1,-1.076770201E-1,9.880862236E0
3.296597812E0,-2.434697002E-1,-1.124626622E-1,9.890433311E0
3.299023750E0,-2.673979402E-1,-9.332008660E-2,9.871291161E0
3.301449739E0,-2.602194548E-1,-1.076770201E-1,9.873683929E0
3.303875729E0,-2.602194548E-1,-9.571290761E-2,9.868897438E0
3.306301719E0,-2.673979402E-1,-8.853443712E-2,9.897611618E0
3.308727708E0,-2.482553422E-1,-1.148554832E-1,9.871291161E0
3.311153646E0,-2.626122832E-1,-1.076770201E-1,9.868897438E0
3.313579635E0,-2.386840582E-1,-1.076770201E-1,9.876076698E0
3.316005625E0,-2.602194548E-1,-1.100698411E-1,9.883255005E0
3.318431614E0,-2.673979402E-1,-1.148554832E-1,9.876076698E0
3.320857552E0,-2.650051117E-1,-1.100698411E-1,9.883255005E0
3.323283542E0,-2.602194548E-1,-1.100698411E-1,9.890433311E0
3.325709531E0,-2.578266263E-1,-1.148554832E-1,9.873683929E0
3.328135521E0,-2.458625287E-1,-1.076770201E-1,9.871291161E0
3.330561510E0,-2.458625287E-1,-1.076770201E-1,9.888040543E0
3.332987448E0,-2.554338276E-1,-1.124626622E-1,9.892826080E0
3.335413437E0,-2.195414752E-1,-1.028913707E-1,9.890433311E0
3.337839427E0,-2.506481707E-1,-1.004985496E-1,9.873683929E0
3.340265417E0,-2.482553422E-1,-1.220339537E-1,9.852148056E0
3.342691354E0,-2.578266263E-1,-1.172483116E-1,9.897611618E0
3.345117344E0,-2.578266263E-1,-1.172483116E-1,9.904789925E0
3.347543333E0,-2.554338276E-1,-1.004985496E-1,9.866504669E0
3.349969323E0,-2.267199457E-1,-9.332008660E-2,9.885647774E0
3.352395312E0,-2.410768867E-1,-9.092725813E-2,9.880862236E0
3.354821250E0,-2.434697002E-1,-1.052841991E-1,9.868897438E0
3.357247239E0,-2.338984162E-1,-1.316052526E-1,9.883255005E0
3.359673229E0,-2.291127741E-1,-1.052841991E-1,9.885647774E0
3.362099219E0,-2.171486616E-1,-1.004985496E-1,9.892826080E0
3.364525208E0,-2.530409992E-1,-1.220339537E-1,9.864111900E0
3.366951146E0,-2.793620527E-1,-9.810572863E-2,9.871291161E0
3.369377135E0,-2.530409992E-1,-1.148554832E-1,9.888040543E0
3.371803125E0,-2.338984162E-1,-1.076770201E-1,9.900004387E0
3.374229114E0,-2.697907388E-1,-8.614161611E-2,9.876076698E0
3.376655052E0,-2.673979402E-1,-9.571290761E-2,9.897611618E0
3.379081042E0,-2.315055877E-1,-1.244267747E-1,9.892826080E0
3.381507031E0,-2.434697002E-1,-1.076770201E-1,9.892826080E0
3.383933021E0,-2.386840582E-1,-1.435693651E-1,9.885647774E0
3.386359010E0,-2.410768867E-1,-1.148554832E-1,9.880862236E0
3.388784948E0,-2.530409992E-1,-1.148554832E-1,9.885647774E0
3.391210937E0,-2.673979402E-1,-1.196411327E-1,9.885647774E0
3.393636927E0,-2.338984162E-1,-9.810572863E-2,9.880862236E0
3.396062917E0,-2.410768867E-1,-1.220339537E-1,9.890433311E0
3.398488854E0,-2.506481707E-1,-8.853443712E-2,9.866504669E0
3.400914844E0,-2.434697002E-1,-1.004985496E-1,9.878469467E0
3.403340833E0,-2.554338276E-1,-1.100698411E-1,9.871291161E0
3.405766823E0,-2.578266263E-1,-9.810572863E-2,9.900004387E0
3.408192812E0,-2.554338276E-1,-1.124626622E-1,9.900004387E0
3.410618750E0,-2.482553422E-1,-7.896314561E-2,9.866504669E0
3.413044739E0,-2.362912297E-1,-9.571290761E-2,9.871291161E0
3.415470729E0,-2.458625287E-1,-1.052841991E-1,9.883255005E0
3.417896719E0,-2.697907388E-1,-1.124626622E-1,9.885647774E0
3.420322656E0,-2.554338276E-1,-1.076770201E-1,9.885647774E0
3.422748646E0,-2.458625287E-1,-1.004985496E-1,9.873683929E0
3.425174635E0,-2.578266263E-1,-9.571290761E-2,9.888040543E0
3.427600625E0,-2.530409992E-1,-9.571290761E-2,9.866504669E0
3.430026562E0,-2.434697002E-1,-9.810572863E-2,9.873683929E0
3.432452552E0,-2.482553422E-1,-1.004985496E-1,9.878469467E0
3.434878542E0,-2.410768867E-1,-1.196411327E-1,9.876076698E0
3.437304531E0,-2.626122832E-1,-1.244267747E-1,9.880862236E0
3.439730521E0,-2.530409992E-1,-1.100698411E-1,9.885647774E0
3.442156458E0,-2.482553422E-1,-1.316052526E-1,9.888040543E0
3.444582448E0,-2.554338276E-1,-9.810572863E-2,9.890433311E0
3.447008437E0,-2.410768867E-1,-9.092725813E-2,9.880862236E0
3.449434427E0,-2.602194548E-1,-1.004985496E-1,9.885647774E0
3.451860417E0,-2.482553422E-1,-1.076770201E-1,9.864111900E0
3.454286354E0,-2.578266263E-1,-1.076770201E-1,9.907182693E0
3.456712344E0,-2.578266263E-1,-1.124626622E-1,9.900004387E0
3.459138333E0,-2.506481707E-1,-1.268195957E-1,9.876076698E0
3.461564323E0,-2.386840582E-1,-1.148554832E-1,9.864111900E0
3.463990260E0,-2.482553422E-1,-1.076770201E-1,9.876076698E0
3.466416250E0,-2.578266263E-1,-1.076770201E-1,9.868897438E0
3.468842239E0,-2.482553422E-1,-1.339980662E-1,9.873683929E0
3.471268229E0,-2.434697002E-1,-1.100698411E-1,9.873683929E0
3.473694219E0,-2.530409992E-1,-1.220339537E-1,9.864111900E0
3.476120156E0,-2.506481707E-1,-1.316052526E-1,9.888040543E0
3.478546146E0,-2.362912297E-1,-1.244267747E-1,9.883255005E0
3.480972135E0,-2.291127741E-1,-1.172483116E-1,9.900004387E0
3.483398125E0,-2.434697002E-1,-8.853443712E-2,9.866504669E0
3.485824062E0,-2.291127741E-1,-1.124626622E-1,9.878469467E0
3.488250052E0,-2.434697002E-1,-1.100698411E-1,9.883255005E0
3.490676042E0,-2.410768867E-1,-9.810572863E-2,9.890433311E0
3.493102031E0,-2.506481707E-1,-1.052841991E-1,9.885647774E0
3.495528021E0,-2.506481707E-1,-1.028913707E-1,9.861719131E0
3.497953958E0,-2.650051117E-1,-1.076770201E-1,9.878469467E0
3.500379948E0,-2.482553422E-1,-1.268195957E-1,9.900004387E0
3.502805937E0,-2.482553422E-1,-1.220339537E-1,9.892826080E0
3.505231927E0,-2.650051117E-1,-1.076770201E-1,9.897611618E0
3.507657864E0,-2.578266263E-1,-1.124626622E-1,9.883255005E0
3.510083854E0,-2.434697002E-1,-1.100698411E-1,9.868897438E0
3.512509844E0,-2.650051117E-1,-1.363908947E-1,9.873683929E0
3.514935833E0,-2.410768867E-1,-1.004985496E-1,9.888040543E0
3.517361823E0,-2.482553422E-1,-7.417750359E-2,9.878469467E0
3.519787760E0,-2.291127741E-1,-9.810572863E-2,9.888040543E0
3.522213750E0,-2.602194548E-1,-1.244267747E-1,9.883255005E0
3.524639739E0,-2.315055877E-1,-1.052841991E-1,9.888040543E0
3.527065729E0,-2.626122832E-1,-1.124626622E-1,9.861719131E0
3.529491719E0,-2.362912297E-1,-1.124626622E-1,9.871291161E0
3.531917656E0,-2.626122832E-1,-1.100698411E-1,9.895218849E0
3.534343646E0,-2.482553422E-1,-1.028913707E-1,9.871291161E0
3.536769635E0,-2.578266263E-1,-1.100698411E-1,9.883255005E0
3.539195625E0,-2.530409992E-1,-1.076770201E-1,9.892826080E0
3.541621562E0,-2.697907388E-1,-1.028913707E-1,9.878469467E0
3.544047552E0,-2.602194548E-1,-1.100698411E-1,9.895218849E0
3.546473542E0,-2.506481707E-1,-1.028913707E-1,9.897611618E0
3.548899531E0,-2.482553422E-1,-1.244267747E-1,9.864111900E0
3.551325521E0,-2.506481707E-1,-1.172483116E-1,9.854540825E0
3.553751458E0,-2.291127741E-1,-1.124626622E-1,9.859326363E0
3.556177448E0,-2.578266263E-1,-1.076770201E-1,9.878469467E0
3.558603437E0,-2.626122832E-1,-8.374879509E-2,9.878469467E0
3.561029375E0,-2.458625287E-1,-9.332008660E-2,9.880862236E0
3.563455364E0,-2.338984162E-1,-1.076770201E-1,9.888040543E0
3.565881354E0,-2.506481707E-1,-1.028913707E-1,9.895218849E0
3.568307344E0,-2.530409992E-1,-1.196411327E-1,9.876076698E0
3.570733333E0,-2.506481707E-1,-1.028913707E-1,9.878469467E0
3.573159271E0,-2.506481707E-1,-1.004985496E-1,9.880862236E0
3.575585260E0,-2.434697002E-1,-1.124626622E-1,9.897611618E0
3.578011250E0,-2.626122832E-1,-1.124626622E-1,9.885647774E0
3.580437239E0,-2.434697002E-1,-1.268195957E-1,9.885647774E0
3.582863229E0,-2.458625287E-1,-1.220339537E-1,9.880862236E0
3.585289167E0,-2.530409992E-1,-1.148554832E-1,9.890433311E0
3.587715156E0,-2.578266263E-1,-8.853443712E-2,9.876076698E0
3.590141146E0,-2.673979402E-1,-9.571290761E-2,9.873683929E0
3.592567135E0,-2.530409992E-1,-8.614161611E-2,9.876076698E0
3.594993125E0,-2.626122832E-1,-1.076770201E-1,9.866504669E0
3.597419062E0,-2.602194548E-1,-1.148554832E-1,9.873683929E0
3.599845052E0,-2.315055877E-1,-1.076770201E-1,9.885647774E0
3.602271042E0,-2.338984162E-1,-9.571290761E-2,9.878469467E0
3.604697031E0,-2.243271172E-1,-1.004985496E-1,9.868897438E0
3.607122969E0,-2.195414752E-1,-9.092725813E-2,9.876076698E0
3.609548958E0,-2.506481707E-1,-1.076770201E-1,9.897611618E0
3.611974948E0,-2.530409992E-1,-1.292124242E-1,9.895218849E0
3.614400937E0,-2.506481707E-1,-1.196411327E-1,9.878469467E0
3.616826927E0,-2.482553422E-1,-9.571290761E-2,9.892826080E0
3.619252864E0,-2.267199457E-1,-1.411765367E-1,9.888040543E0
3.621678854E0,-2.434697002E-1,-1.363908947E-1,9.880862236E0
3.624104844E0,-2.315055877E-1,-1.052841991E-1,9.890433311E0
3.626530833E0,-2.697907388E-1,-1.172483116E-1,9.888040543E0
3.628956771E0,-2.626122832E-1,-1.220339537E-1,9.885647774E0
3.631382760E0,-2.697907388E-1,-1.052841991E-1,9.890433311E0
3.633808750E0,-2.482553422E-1,-1.028913707E-1,9.890433311E0
3.636234739E0,-2.338984162E-1,-1.028913707E-1,9.871291161E0
3.638660729E0,-2.291127741E-1,-1.076770201E-1,9.876076698E0
3.641086667E0,-2.602194548E-1,-1.196411327E-1,9.856933594E0
3.643512656E0,-2.506481707E-1,-9.092725813E-2,9.885647774E0
3.645938646E0,-2.171486616E-1,-9.810572863E-2,9.873683929E0
3.648364635E0,-2.578266263E-1,-9.810572863E-2,9.892826080E0
3.650790625E0,-2.697907388E-1,-1.004985496E-1,9.876076698E0
3.653216562E0,-2.530409992E-1,-1.100698411E-1,9.861719131E0
3.655642552E0,-2.291127741E-1,-1.028913707E-1,9.880862236E0
3.658068542E0,-2.434697002E-1,-1.052841991E-1,9.885647774E0
3.660494531E0,-2.602194548E-1,-1.028913707E-1,9.885647774E0
3.662920469E0,-2.554338276E-1,-1.124626622E-1,9.890433311E0
3.665346458E0,-2.626122832E-1,-9.332008660E-2,9.876076698E0
3.667772448E0,-2.530409992E-1,-1.196411327E-1,9.878469467E0
3.670198437E0,-2.650051117E-1,-1.028913707E-1,9.883255005E0
3.672624375E0,-2.650051117E-1,-1.028913707E-1,9.885647774E0
3.675050364E0,-2.745763958E-1,-1.148554832E-1,9.878469467E0
3.677476354E0,-2.554338276E-1,-1.004985496E-1,9.854540825E0
3.679902344E0,-2.554338276E-1,-9.092725813E-2,9.866504669E0
3.682328333E0,-2.506481707E-1,-1.172483116E-1,9.878469467E0
3.684754271E0,-2.530409992E-1,-1.052841991E-1,9.861719131E0
3.687180260E0,-2.626122832E-1,-1.004985496E-1,9.892826080E0
3.689606250E0,-2.554338276E-1,-1.196411327E-1,9.878469467E0
3.692032239E0,-2.434697002E-1,-1.076770201E-1,9.878469467E0
3.694458229E0,-2.650051117E-1,-9.571290761E-2,9.854540825E0
3.696884167E0,-2.410768867E-1,-1.052841991E-1,9.876076698E0
3.699310156E0,-2.745763958E-1,-1.028913707E-1,9.871291161E0
3.701736146E0,-2.554338276E-1,-1.124626622E-1,9.871291161E0
3.704162135E0,-2.697907388E-1,-1.052841991E-1,9.883255005E0
3.706588073E0,-2.673979402E-1,-1.076770201E-1,9.871291161E0
3.709014062E0,-2.578266263E-1,-8.853443712E-2,9.895218849E0
3.711440052E0,-2.458625287E-1,-9.810572863E-2,9.888040543E0
3.713866042E0,-2.697907388E-1,-1.004985496E-1,9.873683929E0
3.716292031E0,-2.362912297E-1,-1.124626622E-1,9.864111900E0
3.718717969E0,-2.602194548E-1,-9.571290761E-2,9.861719131E0
3.721143958E0,-2.602194548E-1,-1.076770201E-1,9.871291161E0
3.723569948E0,-2.673979402E-1,-1.220339537E-1,9.880862236E0
3.725995937E0,-2.458625287E-1,-1.172483116E-1,9.873683929E0
3.728421927E0,-2.530409992E-1,-1.004985496E-1,9.873683929E0
3.730847864E0,-2.482553422E-1,-1.076770201E-1,9.876076698E0
3.733273854E0,-2.386840582E-1,-1.028913707E-1,9.897611618E0
3.735699844E0,-2.315055877E-1,-9.810572863E-2,9.897611618E0
3.738125833E0,-2.458625287E-1,-8.614161611E-2,9.900004387E0
3.740551771E0,-2.267199457E-1,-8.614161611E-2,9.888040543E0
3.742977760E0,-2.410768867E-1,-1.363908947E-1,9.890433311E0
3.745403750E0,-2.817548811E-1,-1.076770201E-1,9.897611618E0
3.747829739E0,-2.386840582E-1,-1.028913707E-1,9.878469467E0
3.750255677E0,-2.554338276E-1,-1.004985496E-1,9.852148056E0
3.752681667E0,-2.530409992E-1,-1.028913707E-1,9.880862236E0
3.755107656E0,-2.506481707E-1,-9.810572863E-2,9.868897438E0
3.757533646E0,-2.315055877E-1,-8.853443712E-2,9.878469467E0
3.759959635E0,-2.602194548E-1,-1.052841991E-1,9.883255005E0
3.762385573E0,-2.267199457E-1,-1.196411327E-1,9.895218849E0
3.764811562E0,-2.554338276E-1,-1.100698411E-1,9.890433311E0
3.767237552E0,-2.243271172E-1,-1.244267747E-1,9.890433311E0
3.769663542E0,-2.554338276E-1,-9.092725813E-2,9.883255005E0
3.772089479E0,-2.434697002E-1,-9.332008660E-2,9.878469467E0
3.774515469E0,-2.578266263E-1,-9.332008660E-2,9.866504669E0
3.776941458E0,-2.434697002E-1,-9.571290761E-2,9.890433311E0
3.779367448E0,-2.386840582E-1,-1.028913707E-1,9.880862236E0
3.781793437E0,-2.650051117E-1,-1.052841991E-1,9.868897438E0
3.784219375E0,-2.697907388E-1,-1.076770201E-1,9.878469467E0
3.786645364E0,-2.482553422E-1,-8.853443712E-2,9.885647774E0
3.789071354E0,-2.673979402E-1,-1.148554832E-1,9.866504669E0
3.791497344E0,-2.315055877E-1,-9.092725813E-2,9.878469467E0
3.793923333E0,-2.315055877E-1,-8.853443712E-2,9.868897438E0
3.796349271E0,-2.673979402E-1,-1.220339537E-1,9.866504669E0
3.798775260E0,-2.626122832E-1,-9.810572863E-2,9.876076698E0
3.801201250E0,-2.482553422E-1,-8.853443712E-2,9.883255005E0
3.803627239E0,-2.530409992E-1,-8.853443712E-2,9.871291161E0
3.806053229E0,-2.650051117E-1,-8.853443712E-2,9.876076698E0
3.808479167E0,-2.506481707E-1,-1.220339537E-1,9.888040543E0
3.810905156E0,-2.243271172E-1,-1.004985496E-1,9.883255005E0
3.813331146E0,-2.530409992E-1,-1.148554832E-1,9.876076698E0
3.815757135E0,-2.769692242E-1,-1.124626622E-1,9.888040543E0
3.818183073E0,-2.291127741E-1,-1.076770201E-1,9.904789925E0
3.820609062E0,-2.315055877E-1,-1.244267747E-1,9.878469467E0
3.823035052E0,-2.458625287E-1,-1.028913707E-1,9.890433311E0
3.825461042E0,-2.530409992E-1,-1.076770201E-1,9.876076698E0
3.827887031E0,-2.458625287E-1,-9.092725813E-2,9.876076698E0
3.830312969E0,-2.530409992E-1,-1.076770201E-1,9.878469467E0
3.832738958E0,-2.338984162E-1,-1.196411327E-1,9.876076698E0
3.835164948E0,-2.745763958E-1,-1.124626622E-1,9.880862236E0
3.837590937E0,-2.434697002E-1,-1.100698411E-1,9.883255005E0
3.840016875E0,-2.315055877E-1,-1.052841991E-1,9.883255005E0
3.842442864E0,-2.554338276E-1,-9.332008660E-2,9.880862236E0
3.844868854E0,-2.434697002E-1,-1.172483116E-1,9.904789925E0
3.847294844E0,-2.673979402E-1,-1.196411327E-1,9.892826080E0
3.849720781E0,-2.697907388E-1,-8.853443712E-2,9.883255005E0
3.852146771E0,-2.482553422E-1,-1.292124242E-1,9.890433311E0
3.854572760E0,-2.291127741E-1,-9.810572863E-2,9.890433311E0
3.856998750E0,-2.458625287E-1,-1.148554832E-1,9.880862236E0
3.859424739E0,-2.697907388E-1,-1.172483116E-1,9.883255005E0
3.861850677E0,-2.721835673E-1,-1.363908947E-1,9.890433311E0
3.864276667E0,-2.386840582E-1,-1.100698411E-1,9.868897438E0
3.866702656E0,-2.578266263E-1,-7.896314561E-2,9.878469467E0
3.869128646E0,-2.434697002E-1,-1.148554832E-1,9.876076698E0
3.871554635E0,-2.530409992E-1,-1.052841991E-1,9.880862236E0
3.873980573E0,-2.578266263E-1,-1.124626622E-1,9.868897438E0
3.876406562E0,-2.338984162E-1,-9.571290761E-2,9.892826080E0
3.878832552E0,-2.434697002E-1,-1.028913707E-1,9.873683929E0
3.881258542E0,-2.506481707E-1,-1.100698411E-1,9.888040543E0
3.883684479E0,-2.338984162E-1,-1.100698411E-1,9.883255005E0
3.886110469E0,-2.362912297E-1,-1.148554832E-1,9.868897438E0
3.888536458E0,-2.386840582E-1,-1.004985496E-1,9.861719131E0
3.890962448E0,-2.530409992E-1,-8.853443712E-2,9.868897438E0
3.893388437E0,-2.602194548E-1,-1.004985496E-1,9.876076698E0
3.895814375E0,-2.386840582E-1,-1.172483116E-1,9.876076698E0
3.898240364E0,-2.506481707E-1,-1.100698411E-1,9.876076698E0
3.900666354E0,-2.530409992E-1,-1.004985496E-1,9.890433311E0
3.903092344E0,-2.554338276E-1,-9.092725813E-2,9.888040543E0
3.905518333E0,-2.745763958E-1,-8.853443712E-2,9.880862236E0
3.907944271E0,-2.626122832E-1,-9.810572863E-2,9.864111900E0
3.910370260E0,-2.482553422E-1,-1.148554832E-1,9.859326363E0
3.912796250E0,-2.434697002E-1,-1.220339537E-1,9.866504669E0
3.915222239E0,-2.458625287E-1,-1.268195957E-1,9.888040543E0
3.917648177E0,-2.219343036E-1,-1.004985496E-1,9.888040543E0
3.920074167E0,-2.458625287E-1,-9.571290761E-2,9.878469467E0
3.922500156E0,-2.506481707E-1,-8.853443712E-2,9.904789925E0
3.924926146E0,-2.602194548E-1,-9.332008660E-2,9.876076698E0
3.927352135E0,-2.458625287E-1,-1.100698411E-1,9.876076698E0
3.929778073E0,-2.554338276E-1,-1.100698411E-1,9.876076698E0
3.932204062E0,-2.434697002E-1,-1.244267747E-1,9.895218849E0
3.934630052E0,-2.506481707E-1,-7.657032460E-2,9.876076698E0
3.937056042E0,-2.482553422E-1,-9.092725813E-2,9.880862236E0
3.939481979E0,-2.482553422E-1,-9.571290761E-2,9.885647774E0
3.941907969E0,-2.482553422E-1,-1.052841991E-1,9.864111900E0
3.944333958E0,-2.410768867E-1,-1.076770201E-1,9.866504669E0
3.946759948E0,-2.530409992E-1,-1.052841991E-1,9.866504669E0
3.949185937E0,-2.482553422E-1,-1.124626622E-1,9.866504669E0
3.951611875E0,-2.530409992E-1,-1.004985496E-1,9.890433311E0
3.954037864E0,-2.506481707E-1,-9.810572863E-2,9.878469467E0
3.956463854E0,-2.410768867E-1,-1.076770201E-1,9.880862236E0
3.958889844E0,-2.530409992E-1,-1.028913707E-1,9.890433311E0
3.961315781E0,-2.697907388E-1,-8.853443712E-2,9.883255005E0
3.963741771E0,-2.530409992E-1,-8.614161611E-2,9.880862236E0
3.966167760E0,-2.434697002E-1,-9.810572863E-2,9.856933594E0
3.968593750E0,-2.650051117E-1,-1.052841991E-1,9.878469467E0
3.971019739E0,-2.578266263E-1,-1.196411327E-1,9.868897438E0
3.973445677E0,-2.506481707E-1,-1.148554832E-1,9.868897438E0
3.975871667E0,-2.434697002E-1,-9.332008660E-2,9.873683929E0
3.978297656E0,-2.530409992E-1,-1.028913707E-1,9.880862236E0
3.980723646E0,-2.410768867E-1,-1.028913707E-1,9.868897438E0
3.983149583E0,-2.458625287E-1,-1.076770201E-1,9.876076698E0
3.985575573E0,-2.578266263E-1,-1.244267747E-1,9.890433311E0
3.988001562E0,-2.410768867E-1,-9.810572863E-2,9.876076698E0
3.990427552E0,-2.578266263E-1,-1.028913707E-1,9.880862236E0
3.992853542E0,-2.506481707E-1,-9.092725813E-2,9.876076698E0
3.995279479E0,-2.506481707E-1,-1.172483116E-1,9.866504669E0
3.997705469E0,-2.506481707E-1,-1.148554832E-1,9.876076698E0
4.000131458E0,-2.362912297E-1,-1.100698411E-1,9.876076698E0
4.002557448E0,-2.506481707E-1,-1.244267747E-1,9.871291161E0
4.004983437E0,-2.315055877E-1,-1.100698411E-1,9.878469467E0
4.007409375E0,-2.554338276E-1,-1.076770201E-1,9.890433311E0
4.009835364E0,-2.410768867E-1,-1.004985496E-1,9.878469467E0
4.012261354E0,-2.362912297E-1,-1.100698411E-1,9.885647774E0
4.014687344E0,-2.386840582E-1,-9.810572863E-2,9.880862236E0
4.017113281E0,-2.362912297E-1,-1.316052526E-1,9.878469467E0
4.019539271E0,-2.434697002E-1,-1.316052526E-1,9.866504669E0
4.021965260E0,-2.697907388E-1,-1.292124242E-1,9.878469467E0
4.024391250E0,-2.673979402E-1,-1.148554832E-1,9.883255005E0
4.026817239E0,-2.650051117E-1,-1.244267747E-1,9.888040543E0
4.029243177E0,-2.219343036E-1,-1.052841991E-1,9.883255005E0
4.031669167E0,-2.554338276E-1,-1.100698411E-1,9.868897438E0
4.034095156E0,-2.482553422E-1,-1.220339537E-1,9.883255005E0
4.036521146E0,-2.506481707E-1,-1.004985496E-1,9.876076698E0
4.038947083E0,-2.315055877E-1,-8.614161611E-2,9.873683929E0
4.041373073E0,-2.554338276E-1,-1.028913707E-1,9.885647774E0
4.043799062E0,-2.458625287E-1,-8.614161611E-2,9.883255005E0
4.046225052E0,-2.482553422E-1,-1.244267747E-1,9.868897438E0
4.048651042E0,-2.338984162E-1,-1.124626622E-1,9.856933594E0
4.051077031E0,-2.602194548E-1,-1.220339537E-1,9.888040543E0
4.053502969E0,-2.410768867E-1,-1.172483116E-1,9.861719131E0
4.055928958E0,-2.554338276E-1,-1.244267747E-1,9.892826080E0
4.058354948E0,-2.530409992E-1,-9.092725813E-2,9.892826080E0
4.060780937E0,-2.434697002E-1,-1.028913707E-1,9.888040543E0
4.063206875E0,-2.458625287E-1,-1.100698411E-1,9.871291161E0
4.065632864E0,-2.578266263E-1,-1.028913707E-1,9.890433311E0
4.068058854E0,-2.530409992E-1,-1.244267747E-1,9.871291161E0
4.070484844E0,-2.602194548E-1,-1.387837082E-1,9.861719131E0
4.072910781E0,-2.243271172E-1,-1.148554832E-1,9.854540825E0
4.075336771E0,-2.673979402E-1,-1.100698411E-1,9.864111900E0
4.077762760E0,-2.650051117E-1,-1.052841991E-1,9.854540825E0
4.080188750E0,-2.171486616E-1,-1.028913707E-1,9.871291161E0
4.082614739E0,-2.243271172E-1,-1.052841991E-1,9.883255005E0
4.085040677E0,-2.410768867E-1,-9.571290761E-2,9.868897438E0
4.087466667E0,-2.697907388E-1,-1.100698411E-1,9.868897438E0
4.089892656E0,-2.458625287E-1,-1.220339537E-1,9.856933594E0
4.092318646E0,-2.506481707E-1,-1.124626622E-1,9.883255005E0
4.094744635E0,-2.434697002E-1,-1.292124242E-1,9.883255005E0
4.097170573E0,-2.338984162E-1,-1.004985496E-1,9.888040543E0
4.099596562E0,-2.530409992E-1,-8.853443712E-2,9.871291161E0
4.102022552E0,-2.434697002E-1,-1.220339537E-1,9.873683929E0
4.104448542E0,-2.338984162E-1,-1.076770201E-1,9.880862236E0
4.106874479E0,-2.458625287E-1,-8.853443712E-2,9.861719131E0
4.109300469E0,-2.673979402E-1,-1.052841991E-1,9.880862236E0
4.111726458E0,-2.530409992E-1,-1.100698411E-1,9.856933594E0
4.114152448E0,-2.626122832E-1,-1.148554832E-1,9.878469467E0
4.116578437E0,-2.578266263E-1,-1.028913707E-1,9.904789925E0
4.119004375E0,-2.267199457E-1,-1.172483116E-1,9.890433311E0
4.121430364E0,-2.482553422E-1,-1.004985496E-1,9.866504669E0
4.123856354E0,-2.626122832E-1,-9.810572863E-2,9.892826080E0
4.126282344E0,-2.243271172E-1,-1.004985496E-1,9.866504669E0
4.128708281E0,-2.338984162E-1,-9.092725813E-2,9.897611618E0
4.131134271E0,-2.458625287E-1,-1.052841991E-1,9.878469467E0
4.133560260E0,-2.721835673E-1,-1.220339537E-1,9.866504669E0
4.135986250E0,-2.697907388E-1,-1.220339537E-1,9.892826080E0
4.138412239E0,-2.626122832E-1,-1.052841991E-1,9.883255005E0
4.140838177E0,-2.386840582E-1,-7.178468257E-2,9.890433311E0
4.143264167E0,-2.362912297E-1,-1.028913707E-1,9.861719131E0
4.145690156E0,-2.267199457E-1,-1.124626622E-1,9.878469467E0
4.148116146E0,-2.578266263E-1,-1.004985496E-1,9.892826080E0
4.150542083E0,-2.458625287E-1,-1.172483116E-1,9.916754723E0
4.152968073E0,-2.362912297E-1,-9.571290761E-2,9.864111900E0
4.155394062E0,-2.410768867E-1,-1.004985496E-1,9.885647774E0
4.157820052E0,-2.817548811E-1,-1.052841991E-1,9.880862236E0
4.160246042E0,-2.386840582E-1,-1.052841991E-1,9.883255005E0
4.162671979E0,-2.362912297E-1,-1.268195957E-1,9.902397156E0
4.165097969E0,-2.482553422E-1,-1.292124242E-1,9.895218849E0
4.167523958E0,-2.506481707E-1,-1.100698411E-1,9.878469467E0
4.169949948E0,-2.506481707E-1,-1.435693651E-1,9.880862236E0
4.172375937E0,-2.673979402E-1,-1.220339537E-1,9.883255005E0
4.174801875E0,-2.482553422E-1,-1.124626622E-1,9.897611618E0
4.177227864E0,-2.482553422E-1,-9.810572863E-2,9.876076698E0
4.179653854E0,-2.626122832E-1,-1.124626622E-1,9.876076698E0
4.182079844E0,-2.578266263E-1,-1.076770201E-1,9.873683929E0
4.184505781E0,-2.602194548E-1,-9.092725813E-2,9.885647774E0
4.186931771E0,-2.458625287E-1,-1.004985496E-1,9.866504669E0
4.189357760E0,-2.578266263E-1,-1.052841991E-1,9.890433311E0
4.191783750E0,-2.650051117E-1,-1.028913707E-1,9.876076698E0
4.194209739E0,-2.697907388E-1,-1.004985496E-1,9.880862236E0
4.196635677E0,-2.458625287E-1,-7.896314561E-2,9.878469467E0
4.199061667E0,-2.506481707E-1,-1.076770201E-1,9.888040543E0
4.201487656E0,-2.434697002E-1,-1.124626622E-1,9.888040543E0
4.203913646E0,-2.434697002E-1,-1.076770201E-1,9.885647774E0
4.206339635E0,-2.482553422E-1,-1.148554832E-1,9.871291161E0
4.208765573E0,-2.793620527E-1,-8.374879509E-2,9.878469467E0
4.211191562E0,-2.530409992E-1,-1.052841991E-1,9.885647774E0
4.213617552E0,-2.530409992E-1,-1.172483116E-1,9.880862236E0
4.216043542E0,-2.530409992E-1,-1.124626622E-1,9.885647774E0
4.218469479E0,-2.506481707E-1,-1.316052526E-1,9.878469467E0
4.220895469E0,-2.338984162E-1,-1.124626622E-1,9.885647774E0
4.223321458E0,-2.482553422E-1,-1.004985496E-1,9.878469467E0
4.225747448E0,-2.506481707E-1,-1.028913707E-1,9.883255005E0
4.228173437E0,-2.578266263E-1,-1.220339537E-1,9.873683929E0
4.230599375E0,-2.458625287E-1,-9.810572863E-2,9.897611618E0
4.233025364E0,-2.673979402E-1,-8.614161611E-2,9.883255005E0
4.235451354E0,-2.626122832E-1,-1.316052526E-1,9.883255005E0
4.237877344E0,-2.530409992E-1,-1.244267747E-1,9.873683929E0
4.240303333E0,-2.554338276E-1,-9.332008660E-2,9.888040543E0
4.242729271E0,-2.602194548E-1,-1.244267747E-1,9.876076698E0
4.245155260E0,-2.578266263E-1,-8.374879509E-2,9.878469467E0
4.247581250E0,-2.458625287E-1,-1.076770201E-1,9.868897438E0
4.250007239E0,-2.673979402E-1,-1.124626622E-1,9.861719131E0
4.252433177E0,-2.650051117E-1,-1.052841991E-1,9.871291161E0
4.254859167E0,-2.530409992E-1,-8.614161611E-2,9.888040543E0
4.257285156E0,-2.315055877E-1,-1.028913707E-1,9.878469467E0
4.259711146E0,-2.458625287E-1,-1.052841991E-1,9.888040543E0
4.262137083E0,-2.626122832E-1,-8.614161611E-2,9.885647774E0
4.264563073E0,-2.602194548E-1,-9.332008660E-2,9.873683929E0
4.266989062E0,-2.338984162E-1,-9.092725813E-2,9.868897438E0
4.269415052E0,-2.410768867E-1,-9.810572863E-2,9.883255005E0
4.271841042E0,-2.554338276E-1,-1.148554832E-1,9.871291161E0
4.274266979E0,-2.482553422E-1,-1.052841991E-1,9.883255005E0
4.276692969E0,-2.362912297E-1,-1.076770201E-1,9.861719131E0
4.279118958E0,-2.386840582E-1,-8.853443712E-2,9.883255005E0
4.281544948E0,-2.338984162E-1,-1.004985496E-1,9.878469467E0
4.283970937E0,-2.817548811E-1,-9.810572863E-2,9.885647774E0
4.286396875E0,-2.386840582E-1,-1.172483116E-1,9.873683929E0
4.288822864E0,-2.315055877E-1,-1.076770201E-1,9.885647774E0
4.291248854E0,-2.530409992E-1,-1.148554832E-1,9.895218849E0
4.293674844E0,-2.554338276E-1,-1.076770201E-1,9.890433311E0
4.296100833E0,-2.554338276E-1,-1.076770201E-1,9.890433311E0
4.298526771E0,-2.506481707E-1,-9.332008660E-2,9.878469467E0
4.300952760E0,-2.458625287E-1,-1.124626622E-1,9.861719131E0
4.303378750E0,-2.434697002E-1,-9.810572863E-2,9.852148056E0
4.305804739E0,-2.506481707E-1,-1.028913707E-1,9.876076698E0
4.308230677E0,-2.506481707E-1,-9.332008660E-2,9.880862236E0
4.310656667E0,-2.291127741E-1,-1.028913707E-1,9.868897438E0
4.313082656E0,-2.602194548E-1,-1.076770201E-1,9.866504669E0
4.315508646E0,-2.434697002E-1,-1.172483116E-1,9.880862236E0
4.317934635E0,-2.410768867E-1,-9.092725813E-2,9.873683929E0
4.320360573E0,-2.482553422E-1,-1.052841991E-1,9.878469467E0
4.322786562E0,-2.482553422E-1,-1.004985496E-1,9.895218849E0
4.325212552E0,-2.530409992E-1,-1.076770201E-1,9.873683929E0
4.327638542E0,-2.602194548E-1,-1.004985496E-1,9.878469467E0
4.330064479E0,-2.482553422E-1,-1.028913707E-1,9.883255005E0
4.332490469E0,-2.482553422E-1,-9.571290761E-2,9.876076698E0
4.334916458E0,-2.386840582E-1,-1.363908947E-1,9.885647774E0
4.337342448E0,-2.626122832E-1,-1.244267747E-1,9.892826080E0
4.339768437E0,-2.745763958E-1,-1.076770201E-1,9.880862236E0
4.342194375E0,-2.386840582E-1,-8.614161611E-2,9.878469467E0
4.344620364E0,-2.554338276E-1,-9.810572863E-2,9.876076698E0
4.347046354E0,-2.602194548E-1,-1.124626622E-1,9.866504669E0
4.349472344E0,-2.506481707E-1,-1.172483116E-1,9.888040543E0
4.351898333E0,-2.506481707E-1,-1.076770201E-1,9.888040543E0
4.354324271E0,-2.482553422E-1,-1.220339537E-1,9.888040543E0
4.356750260E0,-2.362912297E-1,-1.076770201E-1,9.892826080E0
4.359176250E0,-2.410768867E-1,-1.004985496E-1,9.883255005E0
4.361602239E0,-2.578266263E-1,-1.100698411E-1,9.859326363E0
4.364028229E0,-2.458625287E-1,-1.100698411E-1,9.892826080E0
4.366454167E0,-2.315055877E-1,-1.100698411E-1,9.880862236E0
4.368880156E0,-2.602194548E-1,-1.124626622E-1,9.876076698E0
4.371306146E0,-2.650051117E-1,-1.100698411E-1,9.873683929E0
4.373732135E0,-2.315055877E-1,-1.339980662E-1,9.880862236E0
4.376158073E0,-2.458625287E-1,-1.052841991E-1,9.864111900E0
4.378584062E0,-2.506481707E-1,-1.028913707E-1,9.878469467E0
4.381010052E0,-2.554338276E-1,-1.148554832E-1,9.876076698E0
4.383436042E0,-2.506481707E-1,-1.052841991E-1,9.873683929E0
4.385862031E0,-2.626122832E-1,-9.571290761E-2,9.876076698E0
4.388287969E0,-2.817548811E-1,-1.268195957E-1,9.876076698E0
4.390713958E0,-2.530409992E-1,-1.028913707E-1,9.871291161E0
4.393139948E0,-2.650051117E-1,-1.004985496E-1,9.876076698E0
4.395565937E0,-2.530409992E-1,-1.052841991E-1,9.868897438E0
4.397991875E0,-2.458625287E-1,-1.076770201E-1,9.868897438E0
4.400417864E0,-2.578266263E-1,-1.148554832E-1,9.868897438E0
4.402843854E0,-2.482553422E-1,-1.220339537E-1,9.890433311E0
4.405269844E0,-2.410768867E-1,-1.172483116E-1,9.876076698E0
4.407695833E0,-2.291127741E-1,-1.100698411E-1,9.880862236E0
4.410121771E0,-2.362912297E-1,-1.172483116E-1,9.876076698E0
4.412547760E0,-2.578266263E-1,-1.076770201E-1,9.907182693E0
4.414973750E0,-2.602194548E-1,-1.052841991E-1,9.885647774E0
4.417399739E0,-2.602194548E-1,-1.363908947E-1,9.871291161E0
4.419825729E0,-2.721835673E-1,-1.244267747E-1,9.888040543E0
4.422251667E0,-2.554338276E-1,-1.076770201E-1,9.883255005E0
4.424677656E0,-2.578266263E-1,-1.052841991E-1,9.883255005E0
4.427103646E0,-2.338984162E-1,-1.196411327E-1,9.880862236E0
4.429529635E0,-2.267199457E-1,-9.332008660E-2,9.876076698E0
4.431955573E0,-2.410768867E-1,-1.004985496E-1,9.883255005E0
4.434381562E0,-2.578266263E-1,-1.220339537E-1,9.878469467E0
4.436807552E0,-2.650051117E-1,-1.004985496E-1,9.871291161E0
4.439233542E0,-2.434697002E-1,-1.100698411E-1,9.861719131E0
4.441659479E0,-2.386840582E-1,-1.076770201E-1,9.876076698E0
4.444085469E0,-2.673979402E-1,-1.004985496E-1,9.868897438E0
4.446511458E0,-2.650051117E-1,-1.100698411E-1,9.868897438E0
4.448937448E0,-2.315055877E-1,-1.028913707E-1,9.885647774E0
4.451363437E0,-2.530409992E-1,-1.004985496E-1,9.873683929E0
4.453789427E0,-2.482553422E-1,-1.076770201E-1,9.873683929E0
4.456215364E0,-2.506481707E-1,-1.052841991E-1,9.897611618E0
4.458641354E0,-2.602194548E-1,-1.124626622E-1,9.883255005E0
4.461067344E0,-2.506481707E-1,-1.100698411E-1,9.878469467E0
4.463493333E0,-2.506481707E-1,-1.052841991E-1,9.878469467E0
4.465919271E0,-2.458625287E-1,-1.076770201E-1,9.880862236E0
4.468345260E0,-2.530409992E-1,-1.387837082E-1,9.868897438E0
4.470771250E0,-2.506481707E-1,-1.172483116E-1,9.876076698E0
4.473197239E0,-2.338984162E-1,-9.810572863E-2,9.883255005E0
4.475623229E0,-2.171486616E-1,-1.268195957E-1,9.888040543E0
4.478049167E0,-2.578266263E-1,-9.810572863E-2,9.876076698E0
4.480475156E0,-2.506481707E-1,-9.810572863E-2,9.883255005E0
4.482901146E0,-2.554338276E-1,-8.135596663E-2,9.878469467E0
4.485327135E0,-2.578266263E-1,-1.196411327E-1,9.885647774E0
4.487753073E0,-2.530409992E-1,-1.028913707E-1,9.880862236E0
4.490179062E0,-2.386840582E-1,-1.052841991E-1,9.878469467E0
4.492605052E0,-2.530409992E-1,-1.076770201E-1,9.883255005E0
4.495031042E0,-2.434697002E-1,-1.100698411E-1,9.885647774E0
4.497457031E0,-2.362912297E-1,-9.571290761E-2,9.866504669E0
4.499882969E0,-2.219343036E-1,-1.076770201E-1,9.856933594E0
4.502308958E0,-2.530409992E-1,-9.092725813E-2,9.859326363E0
4.504734948E0,-2.291127741E-1,-1.124626622E-1,9.864111900E0
4.507160937E0,-2.291127741E-1,-1.148554832E-1,9.876076698E0
4.509586927E0,-2.434697002E-1,-1.076770201E-1,9.878469467E0
4.512012864E0,-2.482553422E-1,-1.052841991E-1,9.861719131E0
4.514438854E0,-2.626122832E-1,-8.853443712E-2,9.878469467E0
4.516864844E0,-2.626122832E-1,-9.092725813E-2,9.856933594E0
4.519290833E0,-2.554338276E-1,-9.810572863E-2,9.866504669E0
4.521716771E0,-2.530409992E-1,-1.100698411E-1,9.880862236E0
4.524142760E0,-2.602194548E-1,-1.244267747E-1,9.890433311E0
4.526568750E0,-2.434697002E-1,-1.052841991E-1,9.854540825E0
4.528994739E0,-2.338984162E-1,-9.810572863E-2,9.868897438E0
4.531420729E0,-2.386840582E-1,-1.244267747E-1,9.878469467E0
4.533846667E0,-2.506481707E-1,-1.004985496E-1,9.880862236E0
4.536272656E0,-2.506481707E-1,-1.028913707E-1,9.892826080E0
4.538698646E0,-2.434697002E-1,-9.332008660E-2,9.878469467E0
4.541124635E0,-2.554338276E-1,-9.092725813E-2,9.876076698E0
4.543550573E0,-2.458625287E-1,-1.148554832E-1,9.868897438E0
4.545976562E0,-2.482553422E-1,-1.028913707E-1,9.868897438E0
4.548402552E0,-2.554338276E-1,-1.148554832E-1,9.890433311E0
4.550828542E0,-2.410768867E-1,-1.052841991E-1,9.883255005E0
4.553254531E0,-2.482553422E-1,-1.292124242E-1,9.871291161E0
4.555680521E0,-2.626122832E-1,-9.092725813E-2,9.876076698E0
4.558106458E0,-2.578266263E-1,-1.100698411E-1,9.897611618E0
4.560532448E0,-2.602194548E-1,-1.220339537E-1,9.900004387E0
4.562958437E0,-2.626122832E-1,-1.124626622E-1,9.883255005E0
4.565384375E0,-2.506481707E-1,-1.244267747E-1,9.878469467E0
4.567810364E0,-2.530409992E-1,-1.244267747E-1,9.871291161E0
4.570236354E0,-2.434697002E-1,-1.004985496E-1,9.871291161E0
4.572662344E0,-2.697907388E-1,-1.124626622E-1,9.876076698E0
4.575088333E0,-2.626122832E-1,-1.028913707E-1,9.888040543E0
4.577514271E0,-2.745763958E-1,-1.172483116E-1,9.885647774E0
4.579940260E0,-2.554338276E-1,-9.092725813E-2,9.890433311E0
4.582366250E0,-2.530409992E-1,-1.028913707E-1,9.866504669E0
4.584792239E0,-2.626122832E-1,-9.810572863E-2,9.871291161E0
4.587218229E0,-2.530409992E-1,-1.268195957E-1,9.856933594E0
4.589644167E0,-2.506481707E-1,-1.172483116E-1,9.871291161E0
4.592070156E0,-2.554338276E-1,-1.196411327E-1,9.890433311E0
4.594496146E0,-2.506481707E-1,-1.052841991E-1,9.892826080E0
4.596922135E0,-2.506481707E-1,-9.571290761E-2,9.892826080E0
4.599348125E0,-2.602194548E-1,-1.004985496E-1,9.873683929E0
4.601774062E0,-2.673979402E-1,-9.810572863E-2,9.871291161E0
4.604200052E0,-2.434697002E-1,-8.374879509E-2,9.876076698E0
4.606626042E0,-2.578266263E-1,-1.076770201E-1,9.883255005E0
4.609052031E0,-2.482553422E-1,-1.028913707E-1,9.878469467E0
4.611478021E0,-2.506481707E-1,-9.571290761E-2,9.895218849E0
4.613903958E0,-2.362912297E-1,-1.004985496E-1,9.892826080E0
4.616329948E0,-2.386840582E-1,-1.076770201E-1,9.892826080E0
4.618755937E0,-2.458625287E-1,-1.196411327E-1,9.873683929E0
4.621181927E0,-2.075773627E-1,-1.148554832E-1,9.890433311E0
4.623607864E0,-2.315055877E-1,-1.100698411E-1,9.871291161E0
4.626033854E0,-2.745763958E-1,-8.614161611E-2,9.864111900E0
4.628459844E0,-2.315055877E-1,-1.124626622E-1,9.868897438E0
4.630885833E0,-2.650051117E-1,-1.052841991E-1,9.883255005E0
4.633311823E0,-2.410768867E-1,-8.853443712E-2,9.895218849E0
4.635737760E0,-2.482553422E-1,-1.316052526E-1,9.878469467E0
4.638163750E0,-2.673979402E-1,-1.220339537E-1,9.866504669E0
4.640589739E0,-2.530409992E-1,-1.148554832E-1,9.878469467E0
4.643015729E0,-2.458625287E-1,-1.148554832E-1,9.871291161E0
4.645441719E0,-2.626122832E-1,-1.244267747E-1,9.895218849E0
4.647867656E0,-2.554338276E-1,-1.124626622E-1,9.876076698E0
4.650293646E0,-2.458625287E-1,-1.244267747E-1,9.876076698E0
4.652719635E0,-2.530409992E-1,-9.092725813E-2,9.888040543E0
4.655145625E0,-2.410768867E-1,-8.614161611E-2,9.895218849E0
4.657571562E0,-2.530409992E-1,-1.076770201E-1,9.883255005E0
4.659997552E0,-2.626122832E-1,-8.614161611E-2,9.880862236E0
4.662423542E0,-2.626122832E-1,-9.810572863E-2,9.888040543E0
4.664849531E0,-2.626122832E-1,-1.196411327E-1,9.880862236E0
4.667275521E0,-2.602194548E-1,-1.196411327E-1,9.878469467E0
4.669701458E0,-2.626122832E-1,-8.853443712E-2,9.885647774E0
4.672127448E0,-2.578266263E-1,-1.076770201E-1,9.864111900E0
4.674553437E0,-2.578266263E-1,-1.148554832E-1,9.873683929E0
4.676979427E0,-2.889333367E-1,-9.810572863E-2,9.878469467E0
4.679405417E0,-2.554338276E-1,-1.004985496E-1,9.868897438E0
4.681831354E0,-2.697907388E-1,-1.052841991E-1,9.883255005E0
4.684257344E0,-2.315055877E-1,-1.028913707E-1,9.880862236E0
4.686683333E0,-2.673979402E-1,-1.124626622E-1,9.878469467E0
4.689109323E0,-2.243271172E-1,-1.172483116E-1,9.871291161E0
4.691535260E0,-2.338984162E-1,-1.148554832E-1,9.880862236E0
4.693961250E0,-2.410768867E-1,-9.571290761E-2,9.895218849E0
4.696387239E0,-2.554338276E-1,-1.076770201E-1,9.890433311E0
4.698813229E0,-2.530409992E-1,-1.076770201E-1,9.883255005E0
4.701239219E0,-2.506481707E-1,-1.100698411E-1,9.871291161E0
4.703665156E0,-2.530409992E-1,-1.028913707E-1,9.880862236E0
4.706091146E0,-2.410768867E-1,-1.052841991E-1,9.897611618E0
4.708517135E0,-2.434697002E-1,-1.028913707E-1,9.900004387E0
4.710943125E0,-2.602194548E-1,-1.124626622E-1,9.897611618E0
4.713369062E0,-2.386840582E-1,-1.124626622E-1,9.876076698E0
4.715795052E0,-2.482553422E-1,-1.028913707E-1,9.876076698E0
4.718221042E0,-2.410768867E-1,-1.196411327E-1,9.883255005E0
4.720647031E0,-2.602194548E-1,-1.124626622E-1,9.888040543E0
4.723073021E0,-2.434697002E-1,-1.244267747E-1,9.861719131E0
4.725498958E0,-2.650051117E-1,-1.052841991E-1,9.861719131E0
4.727924948E0,-2.602194548E-1,-1.028913707E-1,9.873683929E0
4.730350937E0,-2.578266263E-1,-1.220339537E-1,9.871291161E0
4.732776927E0,-2.554338276E-1,-1.100698411E-1,9.883255005E0
4.735202864E0,-2.410768867E-1,-1.148554832E-1,9.883255005E0
4.737628854E0,-2.458625287E-1,-1.100698411E-1,9.868897438E0
4.740054844E0,-2.554338276E-1,-1.076770201E-1,9.880862236E0
4.742480833E0,-2.721835673E-1,-1.076770201E-1,9.871291161E0
4.744906823E0,-2.530409992E-1,-9.571290761E-2,9.895218849E0
4.747332812E0,-2.650051117E-1,-9.571290761E-2,9.880862236E0
4.749758750E0,-2.530409992E-1,-1.076770201E-1,9.864111900E0
4.752184739E0,-2.338984162E-1,-1.052841991E-1,9.888040543E0
4.754610729E0,-2.530409992E-1,-1.052841991E-1,9.885647774E0
4.757036719E0,-2.602194548E-1,-9.332008660E-2,9.876076698E0
4.759462656E0,-2.410768867E-1,-9.810572863E-2,9.873683929E0
4.761888646E0,-2.626122832E-1,-1.220339537E-1,9.861719131E0
4.764314635E0,-2.554338276E-1,-1.244267747E-1,9.890433311E0
4.766740625E0,-2.602194548E-1,-9.332008660E-2,9.890433311E0
4.769166614E0,-2.386840582E-1,-1.028913707E-1,9.900004387E0
4.771592552E0,-2.362912297E-1,-1.004985496E-1,9.878469467E0
4.774018542E0,-2.458625287E-1,-1.148554832E-1,9.871291161E0
4.776444531E0,-2.506481707E-1,-1.196411327E-1,9.873683929E0
4.778870521E0,-2.554338276E-1,-8.135596663E-2,9.861719131E0
4.781296510E0,-2.506481707E-1,-1.028913707E-1,9.876076698E0
4.783722448E0,-2.482553422E-1,-8.374879509E-2,9.890433311E0
4.786148437E0,-2.434697002E-1,-9.092725813E-2,9.907182693E0
4.788574427E0,-2.506481707E-1,-9.571290761E-2,9.888040543E0
4.791000417E0,-2.458625287E-1,-9.332008660E-2,9.897611618E0
4.793426354E0,-2.434697002E-1,-1.052841991E-1,9.859326363E0
4.795852344E0,-2.506481707E-1,-1.268195957E-1,9.864111900E0
4.798278333E0,-2.410768867E-1,-1.100698411E-1,9.871291161E0
4.800704323E0,-2.434697002E-1,-9.571290761E-2,9.885647774E0
4.803130312E0,-2.602194548E-1,-1.196411327E-1,9.900004387E0
4.805556250E0,-2.554338276E-1,-1.220339537E-1,9.885647774E0
4.807982239E0,-2.506481707E-1,-1.363908947E-1,9.902397156E0
4.810408229E0,-2.338984162E-1,-1.316052526E-1,9.876076698E0
4.812834219E0,-2.650051117E-1,-1.076770201E-1,9.890433311E0
4.815260156E0,-2.530409992E-1,-1.028913707E-1,9.888040543E0
4.817686146E0,-2.721835673E-1,-7.896314561E-2,9.871291161E0
4.820112135E0,-2.386840582E-1,-8.614161611E-2,9.892826080E0
4.822538125E0,-2.578266263E-1,-9.332008660E-2,9.895218849E0
4.824964114E0,-2.434697002E-1,-1.100698411E-1,9.883255005E0
4.827390052E0,-2.626122832E-1,-1.004985496E-1,9.883255005E0
4.829816042E0,-2.554338276E-1,-1.316052526E-1,9.871291161E0
4.832242031E0,-2.482553422E-1,-1.196411327E-1,9.859326363E0
4.834668021E0,-2.506481707E-1,-1.148554832E-1,9.876076698E0
4.837093958E0,-2.434697002E-1,-9.810572863E-2,9.883255005E0
4.839519948E0,-2.362912297E-1,-9.571290761E-2,9.880862236E0
4.841945937E0,-2.338984162E-1,-1.244267747E-1,9.876076698E0
4.844371927E0,-2.530409992E-1,-1.124626622E-1,9.878469467E0
4.846797917E0,-2.578266263E-1,-1.172483116E-1,9.871291161E0
4.849223854E0,-2.650051117E-1,-9.092725813E-2,9.868897438E0
4.851649844E0,-2.578266263E-1,-1.076770201E-1,9.878469467E0
