"Time (s)","Gyroscope x (rad/s)","Gyroscope y (rad/s)","Gyroscope z (rad/s)"
9.620432300E-2,1.756185899E-3,-6.108472589E-4,2.672456671E-3
9.863031200E-2,-1.298050396E-3,6.108472589E-4,-9.926267667E-4
1.010563020E-1,1.756185899E-3,-1.832541777E-3,2.290677221E-4
1.034822390E-1,-7.635590737E-5,-6.108472589E-4,1.450762269E-3
1.059082290E-1,1.756185899E-3,-1.221694518E-3,-3.817795368E-4
1.083342190E-1,1.756185899E-3,-1.832541777E-3,8.399150101E-4
1.107602080E-1,5.344913807E-4,6.108472589E-4,-4.046862945E-3
1.131861460E-1,5.344913807E-4,6.108472589E-4,1.450762269E-3
1.156121350E-1,-6.872031372E-4,0.000000000E0,-3.436015919E-3
1.180380730E-1,1.145338640E-3,1.832541777E-3,2.061609412E-3
1.204640620E-1,1.145338640E-3,6.108472589E-4,-1.603474026E-3
1.228900520E-1,5.344913807E-4,-6.108472589E-4,1.450762269E-3
1.253160420E-1,1.756185899E-3,-6.108472589E-4,8.399150101E-4
1.277419790E-1,1.756185899E-3,-6.108472589E-4,-3.817795368E-4
1.301679690E-1,1.756185899E-3,0.000000000E0,2.061609412E-3
1.325939580E-1,-7.635590737E-5,-1.221694518E-3,-2.214321401E-3
1.350199480E-1,1.145338640E-3,0.000000000E0,1.450762269E-3
1.374458850E-1,5.344913807E-4,0.000000000E0,-3.817795368E-4
1.398718750E-1,5.344913807E-4,-1.832541777E-3,8.399150101E-4
1.422978640E-1,5.344913807E-4,-1.221694518E-3,-2.214321401E-3
1.447238020E-1,5.344913807E-4,1.221694518E-3,2.290677221E-4
1.471497920E-1,1.145338640E-3,-6.108472589E-4,8.399150101E-4
1.495757810E-1,-7.635590737E-5,0.000000000E0,2.290677221E-4
1.520017190E-1,2.367033157E-3,0.000000000E0,2.290677221E-4
1.544277080E-1,1.756185899E-3,0.000000000E0,-3.817795368E-4
1.568536980E-1,5.344913807E-4,-6.108472589E-4,8.399150101E-4
1.592796350E-1,1.145338640E-3,-6.108472589E-4,-9.926267667E-4
1.617056250E-1,1.145338640E-3,-1.221694518E-3,8.399150101E-4
1.641316140E-1,1.145338640E-3,-6.108472589E-4,-9.926267667E-4
1.665576040E-1,1.756185899E-3,-6.108472589E-4,1.450762269E-3
1.689835420E-1,1.145338640E-3,6.108472589E-4,2.290677221E-4
1.714095310E-1,-7.635590737E-5,-1.832541777E-3,2.061609412E-3
1.738355210E-1,-6.872031372E-4,-6.108472589E-4,8.399150101E-4
1.762614580E-1,-6.872031372E-4,-6.108472589E-4,2.290677221E-4
1.786874480E-1,1.145338640E-3,6.108472589E-4,8.399150101E-4
1.811134370E-1,-6.872031372E-4,0.000000000E0,8.399150101E-4
1.835393750E-1,1.756185899E-3,-6.108472589E-4,2.061609412E-3
1.859653640E-1,-7.635590737E-5,6.108472589E-4,2.290677221E-4
1.883913540E-1,1.756185899E-3,0.000000000E0,-3.817795368E-4
1.908172920E-1,5.344913807E-4,0.000000000E0,-9.926267667E-4
1.932432810E-1,5.344913807E-4,1.832541777E-3,1.450762269E-3
1.956692710E-1,-6.872031372E-4,-1.221694518E-3,-3.817795368E-4
1.980952600E-1,-6.872031372E-4,0.000000000E0,-3.817795368E-4
2.005211980E-1,-7.635590737E-5,-6.108472589E-4,2.290677221E-4
2.029471870E-1,5.344913807E-4,6.108472589E-4,2.290677221E-4
2.053731770E-1,5.344913807E-4,1.221694518E-3,1.450762269E-3
2.077991140E-1,-7.635590737E-5,0.000000000E0,2.290677221E-4
2.102251040E-1,-7.635590737E-5,0.000000000E0,1.450762269E-3
2.126510940E-1,1.145338640E-3,1.221694518E-3,-3.817795368E-4
2.150770310E-1,1.756185899E-3,1.221694518E-3,-3.817795368E-4
2.175030210E-1,1.145338640E-3,-1.221694518E-3,-9.926267667E-4
2.199290100E-1,5.344913807E-4,0.000000000E0,8.399150101E-4
2.223550000E-1,5.344913807E-4,-6.108472589E-4,-3.817795368E-4
2.247809370E-1,5.344913807E-4,-1.221694518E-3,-9.926267667E-4
2.272069270E-1,5.344913807E-4,-1.832541777E-3,2.290677221E-4
2.296329170E-1,-7.635590737E-5,-1.832541777E-3,8.399150101E-4
2.320588540E-1,-7.635590737E-5,6.108472589E-4,2.290677221E-4
2.344848440E-1,5.344913807E-4,-1.221694518E-3,2.290677221E-4
2.369108330E-1,-1.298050396E-3,-6.108472589E-4,-9.926267667E-4
2.393367710E-1,5.344913807E-4,0.000000000E0,-9.926267667E-4
2.417627600E-1,-6.872031372E-4,0.000000000E0,-1.603474026E-3
2.441887500E-1,-6.872031372E-4,0.000000000E0,-1.603474026E-3
2.466147390E-1,5.344913807E-4,0.000000000E0,2.290677221E-4
2.490406770E-1,-7.635590737E-5,6.108472589E-4,8.399150101E-4
2.514666670E-1,-7.635590737E-5,1.221694518E-3,2.290677221E-4
2.538926560E-1,-7.635590737E-5,-1.221694518E-3,-3.817795368E-4
2.563185940E-1,-7.635590737E-5,-2.443389036E-3,2.290677221E-4
2.587445830E-1,1.756185899E-3,0.000000000E0,-9.926267667E-4
2.611705730E-1,-7.635590737E-5,-2.443389036E-3,-1.603474026E-3
2.635965620E-1,-7.635590737E-5,-6.108472589E-4,2.290677221E-4
2.660225000E-1,5.344913807E-4,6.108472589E-4,-9.926267667E-4
2.684484890E-1,-7.635590737E-5,-6.108472589E-4,8.399150101E-4
2.708744790E-1,5.344913807E-4,1.221694518E-3,8.399150101E-4
2.733004170E-1,1.145338640E-3,-6.108472589E-4,8.399150101E-4
2.757264060E-1,-7.635590737E-5,0.000000000E0,-3.817795368E-4
2.781523960E-1,1.145338640E-3,0.000000000E0,-9.926267667E-4
2.805783330E-1,1.145338640E-3,6.108472589E-4,-3.817795368E-4
2.830043230E-1,5.344913807E-4,0.000000000E0,-3.817795368E-4
2.854303120E-1,1.145338640E-3,-6.108472589E-4,-3.817795368E-4
2.878563020E-1,5.344913807E-4,0.000000000E0,-3.817795368E-4
2.902822390E-1,5.344913807E-4,1.221694518E-3,2.290677221E-4
2.927082290E-1,-7.635590737E-5,-1.221694518E-3,-3.817795368E-4
2.951342190E-1,1.145338640E-3,-6.108472589E-4,-3.817795368E-4
2.975601560E-1,1.145338640E-3,0.000000000E0,8.399150101E-4
2.999861460E-1,-7.635590737E-5,0.000000000E0,8.399150101E-4
3.024121350E-1,5.344913807E-4,-6.108472589E-4,8.399150101E-4
3.048381250E-1,1.756185899E-3,-6.108472589E-4,2.290677221E-4
3.072640620E-1,1.145338640E-3,0.000000000E0,2.290677221E-4
3.096900520E-1,5.344913807E-4,-6.108472589E-4,-3.817795368E-4
3.121160420E-1,1.145338640E-3,-1.832541777E-3,-3.817795368E-4
3.145419790E-1,1.145338640E-3,0.000000000E0,-3.817795368E-4
3.169679690E-1,1.145338640E-3,-1.221694518E-3,-3.817795368E-4
3.193939580E-1,5.344913807E-4,-1.221694518E-3,-3.817795368E-4
3.218198960E-1,5.344913807E-4,0.000000000E0,8.399150101E-4
3.242458850E-1,-7.635590737E-5,-1.221694518E-3,2.290677221E-4
3.266718750E-1,-7.635590737E-5,6.108472589E-4,1.450762269E-3
3.290978640E-1,1.756185899E-3,1.221694518E-3,8.399150101E-4
3.315238020E-1,1.145338640E-3,0.000000000E0,2.290677221E-4
3.339497920E-1,1.145338640E-3,-6.108472589E-4,-3.817795368E-4
3.363757810E-1,-6.872031372E-4,1.221694518E-3,-1.603474026E-3
3.388017190E-1,-7.635590737E-5,0.000000000E0,8.399150101E-4
3.412277080E-1,-7.635590737E-5,-6.108472589E-4,8.399150101E-4
3.436536980E-1,-6.872031372E-4,1.221694518E-3,2.290677221E-4
3.460796870E-1,1.145338640E-3,-6.108472589E-4,-9.926267667E-4
3.485056250E-1,5.344913807E-4,-6.108472589E-4,-9.926267667E-4
3.509316140E-1,1.756185899E-3,-1.221694518E-3,-3.817795368E-4
3.533576040E-1,2.367033157E-3,-2.443389036E-3,8.399150101E-4
3.557835420E-1,1.145338640E-3,-3.054236295E-3,2.290677221E-4
3.582095310E-1,5.344913807E-4,0.000000000E0,8.399150101E-4
3.606355210E-1,1.145338640E-3,1.221694518E-3,-9.926267667E-4
3.630615100E-1,1.145338640E-3,-6.108472589E-4,-3.817795368E-4
3.654874480E-1,5.344913807E-4,-6.108472589E-4,-3.817795368E-4
3.679134370E-1,5.344913807E-4,0.000000000E0,-3.817795368E-4
3.703394270E-1,-6.872031372E-4,-1.832541777E-3,-3.817795368E-4
3.727653640E-1,1.145338640E-3,-6.108472589E-4,-3.817795368E-4
3.751913540E-1,5.344913807E-4,-6.108472589E-4,2.290677221E-4
3.776173440E-1,5.344913807E-4,0.000000000E0,1.450762269E-3
3.800433330E-1,1.145338640E-3,-6.108472589E-4,8.399150101E-4
3.824692710E-1,1.145338640E-3,-1.221694518E-3,-3.817795368E-4
3.848952600E-1,5.344913807E-4,0.000000000E0,-3.817795368E-4
3.873212500E-1,5.344913807E-4,-1.221694518E-3,-1.603474026E-3
3.897471870E-1,-7.635590737E-5,-1.832541777E-3,2.290677221E-4
3.921731770E-1,-7.635590737E-5,0.000000000E0,2.290677221E-4
3.945991670E-1,1.145338640E-3,6.108472589E-4,-3.817795368E-4
3.970251040E-1,5.344913807E-4,-6.108472589E-4,-3.817795368E-4
3.994510940E-1,1.145338640E-3,0.000000000E0,2.290677221E-4
4.018770830E-1,-7.635590737E-5,1.221694518E-3,2.290677221E-4
4.043030730E-1,-6.872031372E-4,0.000000000E0,-3.817795368E-4
4.067290100E-1,-7.635590737E-5,1.221694518E-3,2.290677221E-4
4.091550000E-1,1.145338640E-3,-1.832541777E-3,-3.817795368E-4
4.115809890E-1,-7.635590737E-5,-6.108472589E-4,-9.926267667E-4
4.140069790E-1,5.344913807E-4,0.000000000E0,-3.817795368E-4
4.164329170E-1,-7.635590737E-5,-6.108472589E-4,-9.926267667E-4
4.188589060E-1,5.344913807E-4,6.108472589E-4,8.399150101E-4
4.212848960E-1,5.344913807E-4,6.108472589E-4,8.399150101E-4
4.237108330E-1,5.344913807E-4,1.221694518E-3,2.290677221E-4
4.261368230E-1,-6.872031372E-4,6.108472589E-4,-3.817795368E-4
4.285628120E-1,-6.872031372E-4,6.108472589E-4,8.399150101E-4
4.309888020E-1,5.344913807E-4,-6.108472589E-4,8.399150101E-4
4.334147390E-1,-7.635590737E-5,0.000000000E0,-3.817795368E-4
4.358407290E-1,5.344913807E-4,1.832541777E-3,2.290677221E-4
4.382667190E-1,5.344913807E-4,0.000000000E0,2.290677221E-4
4.406926560E-1,-6.872031372E-4,0.000000000E0,2.290677221E-4
4.431186460E-1,5.344913807E-4,6.108472589E-4,1.450762269E-3
4.455446350E-1,1.145338640E-3,0.000000000E0,-3.817795368E-4
4.479706250E-1,5.344913807E-4,0.000000000E0,8.399150101E-4
4.503965620E-1,1.756185899E-3,0.000000000E0,-3.817795368E-4
4.528225520E-1,1.145338640E-3,0.000000000E0,2.290677221E-4
4.552485420E-1,5.344913807E-4,0.000000000E0,2.290677221E-4
4.576744790E-1,-7.635590737E-5,1.221694518E-3,2.290677221E-4
4.601004690E-1,-1.298050396E-3,-1.221694518E-3,8.399150101E-4
4.625264580E-1,1.145338640E-3,0.000000000E0,8.399150101E-4
4.649524480E-1,5.344913807E-4,-6.108472589E-4,-3.817795368E-4
4.673783850E-1,1.756185899E-3,0.000000000E0,-9.926267667E-4
4.698043750E-1,-7.635590737E-5,6.108472589E-4,-3.817795368E-4
4.722303640E-1,-6.872031372E-4,1.832541777E-3,1.450762269E-3
4.746563540E-1,-6.872031372E-4,-6.108472589E-4,1.450762269E-3
4.770822920E-1,1.145338640E-3,0.000000000E0,8.399150101E-4
4.795082810E-1,1.145338640E-3,-1.221694518E-3,-9.926267667E-4
4.819342710E-1,1.756185899E-3,0.000000000E0,-3.817795368E-4
4.843602080E-1,-7.635590737E-5,1.221694518E-3,2.290677221E-4
4.867861980E-1,-7.635590737E-5,-1.221694518E-3,1.450762269E-3
4.892121870E-1,1.756185899E-3,0.000000000E0,8.399150101E-4
4.916381770E-1,5.344913807E-4,6.108472589E-4,8.399150101E-4
4.940641140E-1,1.756185899E-3,-1.832541777E-3,-9.926267667E-4
4.964901040E-1,-7.635590737E-5,0.000000000E0,2.290677221E-4
4.989160940E-1,5.344913807E-4,6.108472589E-4,8.399150101E-4
5.013420310E-1,-6.872031372E-4,-6.108472589E-4,-3.817795368E-4
5.037680210E-1,-6.872031372E-4,6.108472589E-4,8.399150101E-4
5.061940100E-1,-7.635590737E-5,0.000000000E0,-3.817795368E-4
5.086200000E-1,-7.635590737E-5,1.221694518E-3,-3.817795368E-4
5.110459370E-1,1.145338640E-3,6.108472589E-4,-3.817795368E-4
5.134719270E-1,1.145338640E-3,1.221694518E-3,8.399150101E-4
5.158979170E-1,5.344913807E-4,1.221694518E-3,2.290677221E-4
5.183239060E-1,1.145338640E-3,-6.108472589E-4,2.290677221E-4
5.207498440E-1,1.756185899E-3,0.000000000E0,2.290677221E-4
5.231758330E-1,1.756185899E-3,1.221694518E-3,-3.817795368E-4
5.256018230E-1,1.145338640E-3,-1.221694518E-3,2.290677221E-4
5.280278120E-1,1.756185899E-3,-1.832541777E-3,1.450762269E-3
5.304537500E-1,1.145338640E-3,0.000000000E0,8.399150101E-4
5.328797390E-1,5.344913807E-4,6.108472589E-4,2.290677221E-4
5.353057290E-1,2.977880416E-3,-6.108472589E-4,2.290677221E-4
5.377316670E-1,1.145338640E-3,-1.832541777E-3,-3.817795368E-4
5.401576560E-1,5.344913807E-4,-1.221694518E-3,8.399150101E-4
5.425836460E-1,-7.635590737E-5,-1.832541777E-3,2.290677221E-4
5.450096350E-1,-6.872031372E-4,-1.221694518E-3,2.290677221E-4
5.474355730E-1,1.756185899E-3,-1.221694518E-3,-9.926267667E-4
5.498615620E-1,-7.635590737E-5,0.000000000E0,8.399150101E-4
5.522875520E-1,5.344913807E-4,0.000000000E0,1.450762269E-3
5.547135420E-1,-7.635590737E-5,6.108472589E-4,2.290677221E-4
5.571394790E-1,5.344913807E-4,6.108472589E-4,2.290677221E-4
5.595654690E-1,1.145338640E-3,0.000000000E0,1.450762269E-3
5.619914580E-1,1.145338640E-3,-1.832541777E-3,-3.817795368E-4
5.644173960E-1,1.756185899E-3,-6.108472589E-4,-9.926267667E-4
5.668433850E-1,-7.635590737E-5,0.000000000E0,-3.817795368E-4
5.692693750E-1,1.145338640E-3,0.000000000E0,8.399150101E-4
5.716953640E-1,5.344913807E-4,6.108472589E-4,2.290677221E-4
5.741213020E-1,1.145338640E-3,-6.108472589E-4,8.399150101E-4
5.765472920E-1,-7.635590737E-5,0.000000000E0,8.399150101E-4
5.789732810E-1,-6.872031372E-4,0.000000000E0,8.399150101E-4
5.813992710E-1,5.344913807E-4,-1.221694518E-3,-9.926267667E-4
5.838252080E-1,1.145338640E-3,-6.108472589E-4,-9.926267667E-4
5.862511980E-1,1.756185899E-3,0.000000000E0,-3.817795368E-4
5.886771870E-1,1.145338640E-3,-6.108472589E-4,8.399150101E-4
5.911031250E-1,1.145338640E-3,-6.108472589E-4,-3.817795368E-4
5.935291140E-1,5.344913807E-4,0.000000000E0,1.450762269E-3
5.959551040E-1,5.344913807E-4,0.000000000E0,2.290677221E-4
5.983810940E-1,5.344913807E-4,0.000000000E0,8.399150101E-4
6.008070310E-1,1.145338640E-3,6.108472589E-4,-9.926267667E-4
6.032330210E-1,5.344913807E-4,-6.108472589E-4,8.399150101E-4
6.056590100E-1,5.344913807E-4,6.108472589E-4,1.450762269E-3
6.080850000E-1,1.756185899E-3,6.108472589E-4,2.290677221E-4
6.105109370E-1,1.756185899E-3,0.000000000E0,2.061609412E-3
6.129369270E-1,-7.635590737E-5,-1.221694518E-3,-3.817795368E-4
6.153629170E-1,-7.635590737E-5,-6.108472589E-4,2.290677221E-4
6.177889060E-1,2.367033157E-3,0.000000000E0,-3.817795368E-4
6.202148440E-1,2.367033157E-3,-6.108472589E-4,-9.926267667E-4
6.226408330E-1,1.145338640E-3,6.108472589E-4,-1.603474026E-3
6.250668230E-1,1.145338640E-3,6.108472589E-4,2.290677221E-4
6.274927600E-1,-7.635590737E-5,0.000000000E0,-9.926267667E-4
6.299187500E-1,5.344913807E-4,6.108472589E-4,-9.926267667E-4
6.323447390E-1,-7.635590737E-5,-6.108472589E-4,-9.926267667E-4
6.347707290E-1,-7.635590737E-5,-6.108472589E-4,-9.926267667E-4
6.371966670E-1,1.145338640E-3,0.000000000E0,-1.603474026E-3
6.396226560E-1,2.977880416E-3,-1.221694518E-3,-3.817795368E-4
6.420486460E-1,5.344913807E-4,0.000000000E0,8.399150101E-4
6.444746350E-1,1.145338640E-3,-1.832541777E-3,2.061609412E-3
6.469005730E-1,-1.298050396E-3,-6.108472589E-4,8.399150101E-4
6.493265620E-1,-6.872031372E-4,-1.221694518E-3,8.399150101E-4
6.517525520E-1,1.145338640E-3,6.108472589E-4,2.290677221E-4
6.541784890E-1,5.344913807E-4,-1.221694518E-3,2.290677221E-4
6.566044790E-1,-7.635590737E-5,0.000000000E0,2.290677221E-4
6.590304690E-1,-7.635590737E-5,0.000000000E0,2.290677221E-4
6.614564580E-1,1.145338640E-3,6.108472589E-4,-9.926267667E-4
6.638823960E-1,5.344913807E-4,1.832541777E-3,-9.926267667E-4
6.663083850E-1,-7.635590737E-5,0.000000000E0,2.290677221E-4
6.687343750E-1,-7.635590737E-5,-6.108472589E-4,2.290677221E-4
6.711603120E-1,-7.635590737E-5,-1.221694518E-3,-3.817795368E-4
6.735863020E-1,1.145338640E-3,0.000000000E0,1.450762269E-3
6.760122920E-1,1.145338640E-3,0.000000000E0,-3.817795368E-4
6.784382810E-1,1.145338640E-3,-1.832541777E-3,1.450762269E-3
6.808642190E-1,1.145338640E-3,-6.108472589E-4,2.290677221E-4
6.832902080E-1,1.145338640E-3,-6.108472589E-4,2.290677221E-4
6.857161980E-1,5.344913807E-4,-6.108472589E-4,8.399150101E-4
6.881421870E-1,1.145338640E-3,6.108472589E-4,8.399150101E-4
6.905681250E-1,5.344913807E-4,-6.108472589E-4,-3.817795368E-4
6.929941140E-1,-7.635590737E-5,-6.108472589E-4,8.399150101E-4
6.954201040E-1,-6.872031372E-4,0.000000000E0,8.399150101E-4
6.978460940E-1,-7.635590737E-5,0.000000000E0,1.450762269E-3
7.002720310E-1,-7.635590737E-5,6.108472589E-4,8.399150101E-4
7.026980210E-1,-7.635590737E-5,0.000000000E0,8.399150101E-4
7.051240100E-1,1.145338640E-3,-6.108472589E-4,-3.817795368E-4
7.075500000E-1,1.756185899E-3,1.221694518E-3,-1.603474026E-3
7.099759370E-1,-7.635590737E-5,1.221694518E-3,-3.817795368E-4
7.124019270E-1,-7.635590737E-5,0.000000000E0,2.290677221E-4
7.148279170E-1,-7.635590737E-5,-6.108472589E-4,8.399150101E-4
7.172538540E-1,-6.872031372E-4,0.000000000E0,-3.817795368E-4
7.196798440E-1,1.756185899E-3,1.221694518E-3,1.450762269E-3
7.221058330E-1,5.344913807E-4,1.221694518E-3,2.290677221E-4
7.245318230E-1,1.145338640E-3,0.000000000E0,-9.926267667E-4
7.269577600E-1,-7.635590737E-5,1.221694518E-3,-3.817795368E-4
7.293837500E-1,-6.872031372E-4,6.108472589E-4,2.290677221E-4
7.318097390E-1,-7.635590737E-5,0.000000000E0,2.290677221E-4
7.342357290E-1,-6.872031372E-4,-6.108472589E-4,2.290677221E-4
7.366616670E-1,-6.872031372E-4,-6.108472589E-4,-3.817795368E-4
7.390876560E-1,-7.635590737E-5,-1.221694518E-3,2.290677221E-4
7.415136460E-1,5.344913807E-4,0.000000000E0,8.399150101E-4
7.439396350E-1,1.756185899E-3,6.108472589E-4,1.450762269E-3
7.463655730E-1,5.344913807E-4,-6.108472589E-4,8.399150101E-4
7.487915620E-1,1.756185899E-3,6.108472589E-4,-3.817795368E-4
7.512175520E-1,5.344913807E-4,-6.108472589E-4,2.290677221E-4
7.536435420E-1,-7.635590737E-5,6.108472589E-4,2.290677221E-4
7.560694790E-1,-7.635590737E-5,0.000000000E0,2.290677221E-4
7.584954690E-1,5.344913807E-4,-1.221694518E-3,-3.817795368E-4
7.609214580E-1,5.344913807E-4,-6.108472589E-4,-3.817795368E-4
7.633474480E-1,-6.872031372E-4,0.000000000E0,2.290677221E-4
7.657733850E-1,-1.298050396E-3,-6.108472589E-4,2.061609412E-3
7.681993750E-1,-6.872031372E-4,0.000000000E0,8.399150101E-4
7.706253640E-1,-6.872031372E-4,6.108472589E-4,2.290677221E-4
7.730513020E-1,2.367033157E-3,6.108472589E-4,8.399150101E-4
7.754772920E-1,-6.872031372E-4,0.000000000E0,2.290677221E-4
7.779032810E-1,5.344913807E-4,6.108472589E-4,8.399150101E-4
7.803292710E-1,-7.635590737E-5,0.000000000E0,-3.817795368E-4
7.827552080E-1,-7.635590737E-5,0.000000000E0,2.290677221E-4
7.851811980E-1,5.344913807E-4,-6.108472589E-4,2.290677221E-4
7.876071870E-1,-6.872031372E-4,-6.108472589E-4,2.290677221E-4
7.900331770E-1,-6.872031372E-4,6.108472589E-4,1.450762269E-3
7.924591140E-1,1.145338640E-3,6.108472589E-4,-3.817795368E-4
7.948851040E-1,5.344913807E-4,6.108472589E-4,-9.926267667E-4
7.973110940E-1,5.344913807E-4,6.108472589E-4,2.290677221E-4
7.997370830E-1,-7.635590737E-5,-1.832541777E-3,-3.817795368E-4
8.021630210E-1,1.145338640E-3,-6.108472589E-4,8.399150101E-4
8.045890100E-1,2.367033157E-3,0.000000000E0,2.290677221E-4
8.070150000E-1,1.756185899E-3,1.832541777E-3,2.290677221E-4
8.094409890E-1,1.756185899E-3,1.221694518E-3,-3.817795368E-4
8.118669270E-1,5.344913807E-4,0.000000000E0,-3.817795368E-4
8.142929170E-1,5.344913807E-4,0.000000000E0,8.399150101E-4
8.167189060E-1,-7.635590737E-5,0.000000000E0,2.290677221E-4
8.191448960E-1,5.344913807E-4,6.108472589E-4,2.290677221E-4
8.215708330E-1,5.344913807E-4,-6.108472589E-4,1.450762269E-3
8.239968230E-1,-6.872031372E-4,1.832541777E-3,1.450762269E-3
8.264228120E-1,5.344913807E-4,0.000000000E0,2.290677221E-4
8.288487500E-1,1.756185899E-3,6.108472589E-4,8.399150101E-4
8.312747390E-1,1.756185899E-3,1.832541777E-3,1.450762269E-3
8.337007290E-1,-7.635590737E-5,6.108472589E-4,8.399150101E-4
8.361267190E-1,1.145338640E-3,-6.108472589E-4,1.450762269E-3
8.385527080E-1,5.344913807E-4,6.108472589E-4,-3.817795368E-4
8.409786460E-1,5.344913807E-4,0.000000000E0,8.399150101E-4
8.434046350E-1,1.145338640E-3,-6.108472589E-4,2.290677221E-4
8.458306250E-1,-7.635590737E-5,0.000000000E0,2.290677221E-4
8.482565620E-1,-6.872031372E-4,6.108472589E-4,2.290677221E-4
8.506825520E-1,-6.872031372E-4,-1.832541777E-3,1.450762269E-3
8.531085420E-1,1.756185899E-3,-6.108472589E-4,2.290677221E-4
8.555345310E-1,5.344913807E-4,-6.108472589E-4,-9.926267667E-4
8.579604690E-1,1.145338640E-3,1.221694518E-3,2.290677221E-4
8.603864580E-1,-7.635590737E-5,0.000000000E0,2.290677221E-4
8.628124480E-1,5.344913807E-4,6.108472589E-4,-3.817795368E-4
8.652384370E-1,5.344913807E-4,-1.221694518E-3,-3.817795368E-4
8.676643750E-1,5.344913807E-4,-6.108472589E-4,2.061609412E-3
8.700903640E-1,-7.635590737E-5,-6.108472589E-4,2.290677221E-4
8.725163540E-1,-7.635590737E-5,-1.221694518E-3,1.450762269E-3
8.749423440E-1,2.367033157E-3,6.108472589E-4,-3.817795368E-4
8.773682810E-1,-7.635590737E-5,1.221694518E-3,2.290677221E-4
8.797942710E-1,1.145338640E-3,-1.221694518E-3,-9.926267667E-4
8.822202600E-1,1.756185899E-3,-1.221694518E-3,-9.926267667E-4
8.846462500E-1,5.344913807E-4,-1.221694518E-3,-3.817795368E-4
8.870721870E-1,-7.635590737E-5,-1.221694518E-3,8.399150101E-4
8.894981770E-1,5.344913807E-4,6.108472589E-4,-3.817795368E-4
8.919241670E-1,-7.635590737E-5,0.000000000E0,-3.817795368E-4
8.943501560E-1,-6.872031372E-4,-6.108472589E-4,2.061609412E-3
8.967760940E-1,-6.872031372E-4,0.000000000E0,-3.817795368E-4
8.992020830E-1,-7.635590737E-5,-6.108472589E-4,2.290677221E-4
9.016280730E-1,5.344913807E-4,-6.108472589E-4,-9.926267667E-4
9.040540100E-1,5.344913807E-4,0.000000000E0,2.290677221E-4
9.064800000E-1,-7.635590737E-5,-6.108472589E-4,2.290677221E-4
9.089059890E-1,5.344913807E-4,0.000000000E0,2.290677221E-4
9.113319790E-1,-7.635590737E-5,-6.108472589E-4,2.290677221E-4
9.137579690E-1,5.344913807E-4,0.000000000E0,-3.817795368E-4
9.161839060E-1,-7.635590737E-5,-6.108472589E-4,1.450762269E-3
9.186098960E-1,-6.872031372E-4,-6.108472589E-4,2.290677221E-4
9.210358850E-1,-1.298050396E-3,6.108472589E-4,2.290677221E-4
9.234618230E-1,5.344913807E-4,-6.108472589E-4,-3.817795368E-4
9.258878120E-1,-1.298050396E-3,0.000000000E0,8.399150101E-4
9.283138020E-1,-7.635590737E-5,6.108472589E-4,2.290677221E-4
9.307397920E-1,5.344913807E-4,1.221694518E-3,2.290677221E-4
9.331657290E-1,1.145338640E-3,-6.108472589E-4,-9.926267667E-4
9.355917190E-1,1.145338640E-3,6.108472589E-4,-3.817795368E-4
9.380177080E-1,-1.298050396E-3,0.000000000E0,8.399150101E-4
9.404436980E-1,1.145338640E-3,0.000000000E0,-3.817795368E-4
9.428696350E-1,5.344913807E-4,0.000000000E0,2.290677221E-4
9.452956250E-1,-7.635590737E-5,6.108472589E-4,-3.817795368E-4
9.477216140E-1,-7.635590737E-5,1.221694518E-3,2.290677221E-4
9.501476040E-1,1.145338640E-3,6.108472589E-4,-9.926267667E-4
9.525735420E-1,1.145338640E-3,0.000000000E0,2.290677221E-4
9.549995310E-1,5.344913807E-4,0.000000000E0,-3.817795368E-4
9.574255210E-1,1.145338640E-3,-1.221694518E-3,-3.817795368E-4
9.598515100E-1,5.344913807E-4,-6.108472589E-4,-3.817795368E-4
9.622774480E-1,5.344913807E-4,-6.108472589E-4,2.290677221E-4
9.647034370E-1,2.367033157E-3,-6.108472589E-4,1.450762269E-3
9.671294270E-1,1.756185899E-3,0.000000000E0,-3.817795368E-4
9.695554170E-1,1.145338640E-3,-6.108472589E-4,2.290677221E-4
9.719813540E-1,-6.872031372E-4,0.000000000E0,8.399150101E-4
9.744073440E-1,1.145338640E-3,6.108472589E-4,2.290677221E-4
9.768333330E-1,1.145338640E-3,0.000000000E0,-1.603474026E-3
9.792592710E-1,-7.635590737E-5,6.108472589E-4,8.399150101E-4
9.816852600E-1,5.344913807E-4,1.832541777E-3,2.290677221E-4
9.841112500E-1,-7.635590737E-5,1.221694518E-3,1.450762269E-3
9.865372390E-1,1.145338640E-3,3.665083554E-3,8.399150101E-4
9.889632290E-1,5.344913807E-4,1.221694518E-3,-9.926267667E-4
9.913891670E-1,5.344913807E-4,6.108472589E-4,2.290677221E-4
9.938151560E-1,5.344913807E-4,-6.108472589E-4,-3.817795368E-4
9.962411460E-1,5.344913807E-4,1.221694518E-3,-9.926267667E-4
9.986671350E-1,1.145338640E-3,0.000000000E0,-3.817795368E-4
1.001093073E0,-6.872031372E-4,-6.108472589E-4,2.290677221E-4
1.003519062E0,1.145338640E-3,6.108472589E-4,8.399150101E-4
1.005945052E0,1.756185899E-3,0.000000000E0,2.290677221E-4
1.008371042E0,-6.872031372E-4,-6.108472589E-4,-3.817795368E-4
1.010796979E0,1.145338640E-3,1.221694518E-3,-9.926267667E-4
1.013222969E0,-7.635590737E-5,-6.108472589E-4,8.399150101E-4
1.015648958E0,-7.635590737E-5,0.000000000E0,2.290677221E-4
1.018074948E0,1.145338640E-3,-6.108472589E-4,2.290677221E-4
1.020500885E0,5.344913807E-4,-6.108472589E-4,2.290677221E-4
1.022926875E0,5.344913807E-4,-6.108472589E-4,-3.817795368E-4
1.025352864E0,5.344913807E-4,-1.221694518E-3,2.290677221E-4
1.027778854E0,1.145338640E-3,0.000000000E0,-3.817795368E-4
1.030204792E0,-7.635590737E-5,6.108472589E-4,1.450762269E-3
1.032630781E0,5.344913807E-4,-1.832541777E-3,-3.817795368E-4
1.035056771E0,5.344913807E-4,-6.108472589E-4,-9.926267667E-4
1.037482760E0,1.756185899E-3,-6.108472589E-4,-9.926267667E-4
1.039908698E0,1.145338640E-3,-1.832541777E-3,-3.817795368E-4
1.042334687E0,-6.872031372E-4,1.221694518E-3,-3.817795368E-4
1.044760677E0,-7.635590737E-5,0.000000000E0,8.399150101E-4
1.047186667E0,5.344913807E-4,6.108472589E-4,8.399150101E-4
1.049612604E0,-6.872031372E-4,-1.221694518E-3,2.290677221E-4
1.052038594E0,-7.635590737E-5,-1.221694518E-3,8.399150101E-4
1.054464583E0,1.756185899E-3,-6.108472589E-4,8.399150101E-4
1.056890573E0,1.145338640E-3,1.221694518E-3,-3.817795368E-4
1.059316510E0,5.344913807E-4,-6.108472589E-4,2.290677221E-4
1.061742500E0,-6.872031372E-4,0.000000000E0,8.399150101E-4
1.064168489E0,1.145338640E-3,0.000000000E0,8.399150101E-4
1.066594479E0,5.344913807E-4,2.443389036E-3,2.290677221E-4
1.069020417E0,5.344913807E-4,1.221694518E-3,-1.603474026E-3
1.071446406E0,1.145338640E-3,6.108472589E-4,-3.817795368E-4
1.073872396E0,-7.635590737E-5,6.108472589E-4,-9.926267667E-4
1.076298385E0,1.756185899E-3,-1.221694518E-3,-3.817795368E-4
1.078724323E0,5.344913807E-4,-1.221694518E-3,2.061609412E-3
1.081150312E0,-6.872031372E-4,0.000000000E0,8.399150101E-4
1.083576302E0,5.344913807E-4,0.000000000E0,8.399150101E-4
1.086002292E0,1.756185899E-3,6.108472589E-4,-3.817795368E-4
1.088428229E0,1.756185899E-3,-1.221694518E-3,-9.926267667E-4
1.090854219E0,5.344913807E-4,0.000000000E0,1.450762269E-3
1.093280208E0,1.145338640E-3,-6.108472589E-4,2.290677221E-4
1.095706198E0,1.756185899E-3,6.108472589E-4,2.290677221E-4
1.098132135E0,1.756185899E-3,0.000000000E0,-3.817795368E-4
1.100558125E0,1.756185899E-3,0.000000000E0,8.399150101E-4
1.102984114E0,-7.635590737E-5,6.108472589E-4,8.399150101E-4
1.105410104E0,2.367033157E-3,-6.108472589E-4,1.450762269E-3
1.107836042E0,2.977880416E-3,-2.443389036E-3,-1.603474026E-3
1.110262031E0,1.756185899E-3,-1.221694518E-3,-9.926267667E-4
1.112688021E0,1.756185899E-3,0.000000000E0,1.450762269E-3
1.115114010E0,1.145338640E-3,2.443389036E-3,8.399150101E-4
1.117539948E0,-6.872031372E-4,-6.108472589E-4,2.290677221E-4
1.119965937E0,5.344913807E-4,-2.443389036E-3,8.399150101E-4
1.122391927E0,-1.298050396E-3,-1.221694518E-3,8.399150101E-4
1.124817917E0,-7.635590737E-5,6.108472589E-4,-9.926267667E-4
1.127243854E0,1.145338640E-3,6.108472589E-4,2.290677221E-4
1.129669844E0,5.344913807E-4,-6.108472589E-4,-3.817795368E-4
1.132095833E0,5.344913807E-4,0.000000000E0,-3.817795368E-4
1.134521823E0,-6.872031372E-4,-1.221694518E-3,-3.817795368E-4
1.136947760E0,1.756185899E-3,-6.108472589E-4,-3.817795368E-4
1.139373750E0,5.344913807E-4,0.000000000E0,-3.817795368E-4
1.141799739E0,-7.635590737E-5,0.000000000E0,8.399150101E-4
1.144225729E0,1.145338640E-3,6.108472589E-4,8.399150101E-4
1.146651667E0,-6.872031372E-4,6.108472589E-4,-3.817795368E-4
1.149077656E0,1.145338640E-3,1.221694518E-3,2.290677221E-4
1.151503646E0,1.145338640E-3,-6.108472589E-4,8.399150101E-4
1.153929635E0,1.145338640E-3,-1.832541777E-3,2.290677221E-4
1.156355573E0,5.344913807E-4,1.221694518E-3,2.290677221E-4
1.158781562E0,5.344913807E-4,1.832541777E-3,2.290677221E-4
1.161207552E0,1.145338640E-3,0.000000000E0,2.290677221E-4
1.163633542E0,5.344913807E-4,6.108472589E-4,8.399150101E-4
1.166059479E0,5.344913807E-4,6.108472589E-4,-3.817795368E-4
1.168485469E0,1.145338640E-3,-1.221694518E-3,-3.817795368E-4
1.170911458E0,5.344913807E-4,6.108472589E-4,2.290677221E-4
1.173337448E0,-7.635590737E-5,1.221694518E-3,-9.926267667E-4
1.175763385E0,-7.635590737E-5,0.000000000E0,2.290677221E-4
1.178189375E0,5.344913807E-4,1.221694518E-3,-3.817795368E-4
1.180615364E0,5.344913807E-4,6.108472589E-4,1.450762269E-3
1.183041354E0,5.344913807E-4,6.108472589E-4,8.399150101E-4
1.185467292E0,5.344913807E-4,0.000000000E0,2.290677221E-4
1.187893281E0,5.344913807E-4,-1.221694518E-3,2.290677221E-4
1.190319271E0,1.145338640E-3,-6.108472589E-4,2.290677221E-4
1.192745260E0,-7.635590737E-5,-6.108472589E-4,-3.817795368E-4
1.195171198E0,5.344913807E-4,-6.108472589E-4,-3.817795368E-4
1.197597187E0,-1.298050396E-3,-6.108472589E-4,2.290677221E-4
1.200023177E0,-6.872031372E-4,-6.108472589E-4,-1.603474026E-3
1.202449167E0,1.145338640E-3,0.000000000E0,-2.214321401E-3
1.204875156E0,5.344913807E-4,6.108472589E-4,-1.603474026E-3
1.207301094E0,5.344913807E-4,-6.108472589E-4,-9.926267667E-4
1.209727083E0,5.344913807E-4,0.000000000E0,-9.926267667E-4
1.212153073E0,5.344913807E-4,0.000000000E0,-9.926267667E-4
1.214579062E0,1.756185899E-3,2.443389036E-3,-3.817795368E-4
1.217005000E0,1.145338640E-3,0.000000000E0,8.399150101E-4
1.219430989E0,-7.635590737E-5,0.000000000E0,-3.817795368E-4
1.221856979E0,1.145338640E-3,0.000000000E0,-3.817795368E-4
1.224282917E0,5.344913807E-4,-6.108472589E-4,2.290677221E-4
1.226708906E0,5.344913807E-4,6.108472589E-4,2.290677221E-4
1.229134896E0,1.145338640E-3,1.221694518E-3,8.399150101E-4
1.231560885E0,1.756185899E-3,6.108472589E-4,2.290677221E-4
1.233986823E0,5.344913807E-4,6.108472589E-4,8.399150101E-4
1.236412812E0,1.756185899E-3,0.000000000E0,1.450762269E-3
1.238838802E0,1.145338640E-3,1.832541777E-3,8.399150101E-4
1.241264792E0,-7.635590737E-5,-6.108472589E-4,2.290677221E-4
1.243690781E0,5.344913807E-4,-6.108472589E-4,2.290677221E-4
1.246116719E0,-6.872031372E-4,-6.108472589E-4,2.290677221E-4
1.248542708E0,-1.298050396E-3,0.000000000E0,1.450762269E-3
1.250968698E0,5.344913807E-4,0.000000000E0,2.290677221E-4
1.253394687E0,-6.872031372E-4,-6.108472589E-4,-3.817795368E-4
1.255820625E0,-6.872031372E-4,0.000000000E0,-9.926267667E-4
1.258246614E0,-7.635590737E-5,-1.221694518E-3,2.290677221E-4
1.260672604E0,1.145338640E-3,-1.221694518E-3,-3.817795368E-4
1.263098594E0,-7.635590737E-5,0.000000000E0,-3.817795368E-4
1.265524531E0,5.344913807E-4,6.108472589E-4,8.399150101E-4
1.267950521E0,5.344913807E-4,0.000000000E0,2.290677221E-4
1.270376510E0,1.145338640E-3,6.108472589E-4,8.399150101E-4
1.272802500E0,5.344913807E-4,6.108472589E-4,8.399150101E-4
1.275228437E0,-7.635590737E-5,6.108472589E-4,8.399150101E-4
1.277654427E0,5.344913807E-4,0.000000000E0,8.399150101E-4
1.280080417E0,1.756185899E-3,-1.221694518E-3,2.290677221E-4
1.282506406E0,5.344913807E-4,-1.221694518E-3,2.290677221E-4
1.284932344E0,-7.635590737E-5,6.108472589E-4,2.290677221E-4
1.287358333E0,-7.635590737E-5,1.221694518E-3,-3.817795368E-4
1.289784323E0,1.145338640E-3,6.108472589E-4,-3.817795368E-4
1.292210312E0,-6.872031372E-4,2.443389036E-3,-9.926267667E-4
1.294636250E0,5.344913807E-4,-6.108472589E-4,-3.817795368E-4
1.297062239E0,-7.635590737E-5,0.000000000E0,-3.817795368E-4
1.299488229E0,1.756185899E-3,6.108472589E-4,-3.817795368E-4
1.301914219E0,2.367033157E-3,6.108472589E-4,2.290677221E-4
1.304340156E0,5.344913807E-4,-1.221694518E-3,1.450762269E-3
1.306766146E0,-1.908897655E-3,-6.108472589E-4,2.290677221E-4
1.309192135E0,5.344913807E-4,-1.221694518E-3,2.290677221E-4
1.311618125E0,1.145338640E-3,-6.108472589E-4,-3.817795368E-4
1.314044062E0,5.344913807E-4,6.108472589E-4,-2.214321401E-3
1.316470052E0,1.145338640E-3,0.000000000E0,-9.926267667E-4
1.318896042E0,2.367033157E-3,0.000000000E0,-3.817795368E-4
1.321322031E0,1.145338640E-3,1.221694518E-3,-9.926267667E-4
1.323747969E0,1.756185899E-3,6.108472589E-4,-3.817795368E-4
1.326173958E0,1.145338640E-3,-6.108472589E-4,2.290677221E-4
1.328599948E0,1.145338640E-3,-1.221694518E-3,-3.817795368E-4
1.331025937E0,5.344913807E-4,6.108472589E-4,8.399150101E-4
1.333451927E0,5.344913807E-4,0.000000000E0,1.450762269E-3
1.335877864E0,-7.635590737E-5,0.000000000E0,-3.817795368E-4
1.338303854E0,-7.635590737E-5,-6.108472589E-4,2.290677221E-4
1.340729844E0,5.344913807E-4,0.000000000E0,2.290677221E-4
1.343155833E0,5.344913807E-4,-6.108472589E-4,2.290677221E-4
1.345581771E0,5.344913807E-4,-1.832541777E-3,2.290677221E-4
1.348007760E0,5.344913807E-4,6.108472589E-4,1.450762269E-3
1.350433750E0,-7.635590737E-5,1.221694518E-3,-3.817795368E-4
1.352859739E0,5.344913807E-4,0.000000000E0,2.290677221E-4
1.355285677E0,-7.635590737E-5,6.108472589E-4,8.399150101E-4
1.357711667E0,-7.635590737E-5,0.000000000E0,8.399150101E-4
1.360137656E0,5.344913807E-4,0.000000000E0,2.290677221E-4
1.362563646E0,1.145338640E-3,6.108472589E-4,-3.817795368E-4
1.364989583E0,1.221694518E-3,-0.000000000E0,1.527118147E-4
1.367415573E0,-0.000000000E0,6.108472589E-4,-4.581354442E-4
1.369841562E0,-0.000000000E0,6.108472589E-4,-1.068982761E-3
1.372267552E0,-7.635590737E-5,-0.000000000E0,7.635590737E-4
1.374693489E0,-2.519744914E-3,1.221694518E-3,1.527118147E-4
1.377119479E0,-6.872031372E-4,-6.108472589E-4,1.374406274E-3
1.379545469E0,1.145338640E-3,-1.221694518E-3,-4.581354442E-4
1.381971458E0,-7.635590737E-5,-6.108472589E-4,-1.068982761E-3
1.384397396E0,1.145338640E-3,-0.000000000E0,-1.068982761E-3
1.386823385E0,5.344913807E-4,-0.000000000E0,-4.581354442E-4
1.389249375E0,-6.872031372E-4,-6.108472589E-4,-4.581354442E-4
1.391675364E0,-6.872031372E-4,-1.832541777E-3,7.635590737E-4
1.394101302E0,-1.298050396E-3,-0.000000000E0,-4.581354442E-4
1.396527292E0,-6.872031372E-4,1.221694518E-3,-4.581354442E-4
1.398953281E0,-7.635590737E-5,-6.108472589E-4,-4.581354442E-4
1.401379271E0,-7.635590737E-5,-6.108472589E-4,7.635590737E-4
1.403805260E0,-1.298050396E-3,-0.000000000E0,1.527118147E-4
1.406231198E0,-7.635590737E-5,-6.108472589E-4,1.527118147E-4
1.408657187E0,-6.872031372E-4,-0.000000000E0,7.635590737E-4
1.411083177E0,-7.635590737E-5,6.108472589E-4,7.635590737E-4
1.413509167E0,5.344913807E-4,1.221694518E-3,1.527118147E-4
1.415935104E0,-6.872031372E-4,6.108472589E-4,-1.679830020E-3
1.418361094E0,-7.635590737E-5,-1.221694518E-3,-4.581354442E-4
1.420787083E0,-6.872031372E-4,-6.108472589E-4,-1.679830020E-3
1.423213021E0,1.145338640E-3,-6.108472589E-4,-4.581354442E-4
1.425639010E0,5.344913807E-4,6.108472589E-4,1.374406274E-3
1.428065000E0,-7.635590737E-5,1.221694518E-3,7.635590737E-4
1.430490989E0,6.108472589E-4,-0.000000000E0,-4.581354442E-4
1.432916979E0,-1.221694518E-3,-6.108472589E-4,-4.581354442E-4
1.435342917E0,-0.000000000E0,-0.000000000E0,-4.581354442E-4
1.437768906E0,-0.000000000E0,1.221694518E-3,-1.679830020E-3
1.440194896E0,-6.108472589E-4,-0.000000000E0,1.527118147E-4
1.442620885E0,-6.108472589E-4,-6.108472589E-4,1.527118147E-4
1.445046823E0,-0.000000000E0,-0.000000000E0,-4.581354442E-4
1.447472812E0,-0.000000000E0,6.108472589E-4,-4.581354442E-4
1.449898802E0,6.108472589E-4,-1.221694518E-3,7.635590737E-4
1.452324792E0,6.108472589E-4,1.221694518E-3,-4.581354442E-4
1.454750729E0,6.108472589E-4,1.221694518E-3,7.635590737E-4
1.457176719E0,6.108472589E-4,-0.000000000E0,-1.068982761E-3
1.459602708E0,6.108472589E-4,-0.000000000E0,1.527118147E-4
1.462028698E0,-0.000000000E0,-1.221694518E-3,-4.581354442E-4
1.464454635E0,-0.000000000E0,6.108472589E-4,-4.581354442E-4
1.466880625E0,1.832541777E-3,-1.221694518E-3,1.527118147E-4
1.469306614E0,-6.108472589E-4,-6.108472589E-4,7.635590737E-4
1.471732604E0,-6.108472589E-4,6.108472589E-4,-1.068982761E-3
1.474158542E0,1.221694518E-3,6.108472589E-4,-4.581354442E-4
1.476584531E0,1.221694518E-3,-0.000000000E0,7.635590737E-4
1.479010521E0,-0.000000000E0,6.108472589E-4,7.635590737E-4
1.481436510E0,-0.000000000E0,-0.000000000E0,1.527118147E-4
1.483862500E0,-6.108472589E-4,-1.221694518E-3,-1.068982761E-3
1.486288437E0,-0.000000000E0,-0.000000000E0,1.527118147E-4
1.488714427E0,6.108472589E-4,6.108472589E-4,7.635590737E-4
1.491140417E0,-6.108472589E-4,6.108472589E-4,1.374406274E-3
1.493566406E0,-6.108472589E-4,-0.000000000E0,1.527118147E-4
1.495992344E0,-6.108472589E-4,-0.000000000E0,-1.068982761E-3
1.498418333E0,-0.000000000E0,6.108472589E-4,-4.581354442E-4
1.500844323E0,-0.000000000E0,-6.108472589E-4,-4.581354442E-4
1.503270312E0,-6.108472589E-4,-1.221694518E-3,-1.068982761E-3
1.505696250E0,-6.108472589E-4,-0.000000000E0,1.527118147E-4
1.508122239E0,-0.000000000E0,6.108472589E-4,7.635590737E-4
1.510548229E0,-0.000000000E0,1.832541777E-3,7.635590737E-4
1.512974219E0,-0.000000000E0,1.832541777E-3,-4.581354442E-4
1.515400156E0,-0.000000000E0,6.108472589E-4,-4.581354442E-4
1.517826146E0,-0.000000000E0,-0.000000000E0,2.290677221E-4
1.520252135E0,6.108472589E-4,6.108472589E-4,-3.817795368E-4
1.522678125E0,1.221694518E-3,1.221694518E-3,-9.926267667E-4
1.525104062E0,1.221694518E-3,1.221694518E-3,2.290677221E-4
1.527530052E0,6.108472589E-4,-1.221694518E-3,-3.817795368E-4
1.529956042E0,-0.000000000E0,-6.108472589E-4,2.290677221E-4
1.532382031E0,-0.000000000E0,-6.108472589E-4,2.290677221E-4
1.534808021E0,-0.000000000E0,-0.000000000E0,1.450762269E-3
1.537233958E0,1.221694518E-3,-1.221694518E-3,2.290677221E-4
1.539659948E0,-0.000000000E0,-0.000000000E0,2.290677221E-4
1.542085937E0,-0.000000000E0,1.221694518E-3,-3.817795368E-4
1.544511927E0,-0.000000000E0,-6.108472589E-4,-3.817795368E-4
1.546937864E0,-6.108472589E-4,-6.108472589E-4,1.450762269E-3
1.549363854E0,6.108472589E-4,-1.832541777E-3,8.399150101E-4
1.551789844E0,1.832541777E-3,-0.000000000E0,-3.817795368E-4
1.554215833E0,-0.000000000E0,1.221694518E-3,2.290677221E-4
1.556641771E0,-0.000000000E0,6.108472589E-4,-3.817795368E-4
1.559067760E0,-0.000000000E0,-1.221694518E-3,-1.603474026E-3
1.561493750E0,-0.000000000E0,-6.108472589E-4,2.290677221E-4
1.563919739E0,-0.000000000E0,-6.108472589E-4,2.290677221E-4
1.566345677E0,-0.000000000E0,-6.108472589E-4,-1.603474026E-3
1.568771667E0,-0.000000000E0,-1.221694518E-3,-3.817795368E-4
1.571197656E0,-6.108472589E-4,1.832541777E-3,-9.926267667E-4
1.573623646E0,6.108472589E-4,-6.108472589E-4,2.290677221E-4
1.576049583E0,6.108472589E-4,-0.000000000E0,8.399150101E-4
1.578475573E0,-6.108472589E-4,-6.108472589E-4,8.399150101E-4
1.580901562E0,-0.000000000E0,-6.108472589E-4,-9.926267667E-4
1.583327552E0,6.108472589E-4,-0.000000000E0,-9.926267667E-4
1.585753542E0,1.221694518E-3,6.108472589E-4,2.290677221E-4
1.588179479E0,6.108472589E-4,6.108472589E-4,8.399150101E-4
1.590605469E0,-6.108472589E-4,-0.000000000E0,2.290677221E-4
1.593031458E0,6.108472589E-4,-0.000000000E0,8.399150101E-4
1.595457448E0,-0.000000000E0,-1.221694518E-3,8.399150101E-4
1.597883385E0,-6.108472589E-4,-6.108472589E-4,-3.817795368E-4
1.600309375E0,-0.000000000E0,-6.108472589E-4,-3.817795368E-4
1.602735364E0,6.108472589E-4,6.108472589E-4,2.290677221E-4
1.605161354E0,-6.108472589E-4,-0.000000000E0,8.399150101E-4
1.607587292E0,-0.000000000E0,-0.000000000E0,-3.817795368E-4
1.610013281E0,-6.108472589E-4,-6.108472589E-4,-3.817795368E-4
1.612439271E0,-1.832541777E-3,-0.000000000E0,-3.817795368E-4
1.614865260E0,-6.108472589E-4,6.108472589E-4,-3.817795368E-4
1.617291198E0,5.344913807E-4,1.221694518E-3,-9.926267667E-4
1.619717187E0,-7.635590737E-5,1.221694518E-3,2.290677221E-4
1.622143177E0,-7.635590737E-5,-6.108472589E-4,-3.817795368E-4
1.624569167E0,-7.635590737E-5,6.108472589E-4,2.290677221E-4
1.626995156E0,-1.298050396E-3,-0.000000000E0,8.399150101E-4
1.629421094E0,-6.872031372E-4,6.108472589E-4,1.450762269E-3
1.631847083E0,-6.872031372E-4,-0.000000000E0,2.290677221E-4
1.634273073E0,1.145338640E-3,-0.000000000E0,8.399150101E-4
1.636699062E0,-6.872031372E-4,6.108472589E-4,8.399150101E-4
1.639125000E0,1.145338640E-3,6.108472589E-4,-3.817795368E-4
1.641550989E0,5.344913807E-4,6.108472589E-4,-3.817795368E-4
1.643976979E0,1.145338640E-3,-6.108472589E-4,2.290677221E-4
1.646402969E0,1.145338640E-3,-0.000000000E0,2.061609412E-3
1.648828906E0,-6.872031372E-4,6.108472589E-4,8.399150101E-4
1.651254896E0,-7.635590737E-5,-1.221694518E-3,2.290677221E-4
1.653680885E0,-6.872031372E-4,-6.108472589E-4,2.290677221E-4
1.656106875E0,-6.872031372E-4,-0.000000000E0,1.450762269E-3
1.658532812E0,1.145338640E-3,-6.108472589E-4,1.450762269E-3
1.660958802E0,5.344913807E-4,-0.000000000E0,2.290677221E-4
1.663384792E0,1.145338640E-3,1.832541777E-3,2.290677221E-4
1.665810781E0,1.756185899E-3,-0.000000000E0,-3.817795368E-4
1.668236771E0,-1.298050396E-3,-0.000000000E0,2.290677221E-4
1.670662708E0,1.145338640E-3,-6.108472589E-4,-3.817795368E-4
1.673088698E0,-6.872031372E-4,6.108472589E-4,-3.817795368E-4
1.675514687E0,-7.635590737E-5,-6.108472589E-4,-3.817795368E-4
1.677940677E0,-7.635590737E-5,6.108472589E-4,-3.817795368E-4
1.680366614E0,-1.298050396E-3,1.832541777E-3,2.290677221E-4
1.682792604E0,-7.635590737E-5,6.108472589E-4,8.399150101E-4
1.685218594E0,-7.635590737E-5,-6.108472589E-4,8.399150101E-4
1.687644583E0,5.344913807E-4,-6.108472589E-4,2.290677221E-4
1.690070521E0,-1.298050396E-3,1.221694518E-3,-3.817795368E-4
1.692496510E0,-6.872031372E-4,-0.000000000E0,1.450762269E-3
1.694922500E0,5.344913807E-4,6.108472589E-4,8.399150101E-4
1.697348489E0,-7.635590737E-5,1.221694518E-3,2.290677221E-4
1.699774427E0,-1.298050396E-3,6.108472589E-4,2.290677221E-4
1.702200417E0,-7.635590737E-5,1.221694518E-3,2.290677221E-4
1.704626406E0,-7.635590737E-5,-0.000000000E0,2.061609412E-3
1.707052396E0,1.145338640E-3,-6.108472589E-4,2.290677221E-4
1.709478385E0,-7.635590737E-5,-6.108472589E-4,2.290677221E-4
1.711904323E0,-6.872031372E-4,-6.108472589E-4,-9.926267667E-4
1.714330312E0,-7.635590737E-5,-6.108472589E-4,2.290677221E-4
1.716756302E0,5.344913807E-4,-0.000000000E0,-3.817795368E-4
1.719182239E0,-7.635590737E-5,-1.221694518E-3,8.399150101E-4
1.721608229E0,5.344913807E-4,-6.108472589E-4,2.290677221E-4
1.724034219E0,-7.635590737E-5,-0.000000000E0,2.290677221E-4
1.726460208E0,-6.872031372E-4,-0.000000000E0,2.290677221E-4
1.728886198E0,-6.872031372E-4,-0.000000000E0,-9.926267667E-4
1.731312135E0,1.145338640E-3,6.108472589E-4,-1.603474026E-3
1.733738125E0,5.344913807E-4,-0.000000000E0,-1.603474026E-3
1.736164114E0,5.344913807E-4,-0.000000000E0,-3.817795368E-4
1.738590104E0,-6.872031372E-4,-0.000000000E0,2.290677221E-4
1.741016042E0,-6.872031372E-4,6.108472589E-4,2.290677221E-4
1.743442031E0,-6.872031372E-4,1.221694518E-3,-2.214321401E-3
1.745868021E0,-7.635590737E-5,-0.000000000E0,-3.817795368E-4
1.748294010E0,-7.635590737E-5,-6.108472589E-4,2.290677221E-4
1.750719948E0,-7.635590737E-5,6.108472589E-4,2.290677221E-4
1.753145937E0,-1.298050396E-3,-1.221694518E-3,1.527118147E-4
1.755571927E0,-6.872031372E-4,6.108472589E-4,-4.581354442E-4
1.757997917E0,-1.298050396E-3,-1.221694518E-3,1.527118147E-4
1.760423906E0,-1.298050396E-3,-1.221694518E-3,1.527118147E-4
1.762849844E0,-1.908897655E-3,6.108472589E-4,7.635590737E-4
1.765275833E0,-6.872031372E-4,1.221694518E-3,7.635590737E-4
1.767701823E0,-6.872031372E-4,6.108472589E-4,1.374406274E-3
1.770127812E0,-7.635590737E-5,-6.108472589E-4,-4.581354442E-4
1.772553750E0,-7.635590737E-5,-0.000000000E0,-4.581354442E-4
1.774979739E0,-7.635590737E-5,6.108472589E-4,-1.679830020E-3
1.777405729E0,5.344913807E-4,6.108472589E-4,-1.068982761E-3
1.779831719E0,-7.635590737E-5,6.108472589E-4,1.527118147E-4
1.782257656E0,-6.872031372E-4,-1.221694518E-3,7.635590737E-4
1.784683646E0,-7.635590737E-5,-0.000000000E0,1.527118147E-4
1.787109635E0,5.344913807E-4,-0.000000000E0,-1.068982761E-3
1.789535625E0,-7.635590737E-5,-0.000000000E0,1.374406274E-3
1.791961614E0,5.344913807E-4,-1.221694518E-3,1.374406274E-3
1.794387552E0,-7.635590737E-5,-7.635590737E-5,1.527118147E-4
1.796813542E0,-7.635590737E-5,-7.635590737E-5,-4.581354442E-4
1.799239531E0,5.344913807E-4,-7.635590737E-5,-1.679830020E-3
1.801665521E0,5.344913807E-4,-7.635590737E-5,7.635590737E-4
1.804091458E0,5.344913807E-4,-6.872031372E-4,-4.581354442E-4
1.806517448E0,-6.872031372E-4,-7.635590737E-5,-4.581354442E-4
1.808943437E0,-1.298050396E-3,-7.635590737E-5,7.635590737E-4
1.811369427E0,-1.298050396E-3,5.344913807E-4,1.985253533E-3
1.813795364E0,1.145338640E-3,-6.872031372E-4,7.635590737E-4
1.816221354E0,1.145338640E-3,-7.635590737E-5,1.527118147E-4
1.818647344E0,5.344913807E-4,-7.635590737E-5,-1.068982761E-3
1.821073333E0,1.145338640E-3,-1.908897655E-3,-4.581354442E-4
1.823499271E0,5.344913807E-4,-7.635590737E-5,-1.068982761E-3
1.825925260E0,-7.635590737E-5,-6.872031372E-4,1.527118147E-4
1.828351250E0,-1.908897655E-3,-7.635590737E-5,1.527118147E-4
1.830777239E0,5.344913807E-4,5.344913807E-4,1.527118147E-4
1.833203177E0,-7.635590737E-5,-1.298050396E-3,1.374406274E-3
1.835629167E0,-0.000000000E0,-6.872031372E-4,1.527118147E-4
1.838055156E0,-6.108472589E-4,5.344913807E-4,1.985253533E-3
1.840481146E0,-0.000000000E0,5.344913807E-4,7.635590737E-4
1.842907083E0,6.108472589E-4,1.145338640E-3,7.635590737E-4
1.845333073E0,-6.108472589E-4,5.344913807E-4,1.527118147E-4
1.847759062E0,6.108472589E-4,-7.635590737E-5,-4.581354442E-4
1.850185052E0,-1.221694518E-3,-6.872031372E-4,-1.068982761E-3
1.852611042E0,6.108472589E-4,-6.872031372E-4,7.635590737E-4
1.855036979E0,-0.000000000E0,-0.000000000E0,-4.581354442E-4
1.857462969E0,-0.000000000E0,-0.000000000E0,-1.068982761E-3
1.859888958E0,-0.000000000E0,1.221694518E-3,-1.068982761E-3
1.862314948E0,-0.000000000E0,1.221694518E-3,-1.068982761E-3
1.864740885E0,6.108472589E-4,6.108472589E-4,1.374406274E-3
1.867166875E0,-0.000000000E0,6.108472589E-4,-4.581354442E-4
1.869592864E0,6.108472589E-4,-0.000000000E0,-4.581354442E-4
1.872018854E0,-0.000000000E0,-0.000000000E0,7.635590737E-4
1.874444792E0,6.108472589E-4,-1.221694518E-3,7.635590737E-4
1.876870781E0,6.108472589E-4,-1.832541777E-3,7.635590737E-4
1.879296771E0,1.221694518E-3,-0.000000000E0,1.527118147E-4
1.881722760E0,1.221694518E-3,1.221694518E-3,-4.581354442E-4
1.884148750E0,-6.108472589E-4,6.108472589E-4,1.374406274E-3
1.886574687E0,6.108472589E-4,6.108472589E-4,-1.679830020E-3
1.889000677E0,-0.000000000E0,-0.000000000E0,-4.581354442E-4
1.891426667E0,-0.000000000E0,-6.108472589E-4,1.527118147E-4
1.893852656E0,-0.000000000E0,-1.832541777E-3,1.374406274E-3
1.896278594E0,-0.000000000E0,-6.108472589E-4,7.635590737E-4
1.898704583E0,-6.108472589E-4,6.108472589E-4,1.527118147E-4
1.901130573E0,-0.000000000E0,-0.000000000E0,-4.581354442E-4
1.903556562E0,-0.000000000E0,-0.000000000E0,-4.581354442E-4
1.905982500E0,-6.108472589E-4,-6.108472589E-4,1.374406274E-3
1.908408489E0,-1.221694518E-3,6.108472589E-4,1.527118147E-4
1.910834479E0,-6.108472589E-4,-0.000000000E0,7.635590737E-4
1.913260469E0,6.108472589E-4,-1.221694518E-3,7.635590737E-4
1.915686406E0,-0.000000000E0,6.108472589E-4,7.635590737E-4
1.918112396E0,1.832541777E-3,-1.221694518E-3,1.527118147E-4
1.920538385E0,6.108472589E-4,-0.000000000E0,1.527118147E-4
1.922964375E0,-6.108472589E-4,-1.832541777E-3,-4.581354442E-4
1.925390364E0,-0.000000000E0,-0.000000000E0,-4.581354442E-4
1.927816302E0,-0.000000000E0,6.108472589E-4,-4.581354442E-4
1.930242292E0,-0.000000000E0,-6.108472589E-4,7.635590737E-4
1.932668281E0,6.108472589E-4,-1.221694518E-3,1.527118147E-4
1.935094271E0,-1.221694518E-3,-0.000000000E0,1.527118147E-4
1.937520208E0,6.108472589E-4,-6.108472589E-4,7.635590737E-4
1.939946198E0,6.108472589E-4,-0.000000000E0,1.985253533E-3
1.942372187E0,-6.108472589E-4,-1.832541777E-3,1.374406274E-3
1.944798177E0,-1.221694518E-3,-1.221694518E-3,1.527118147E-4
1.947224114E0,-0.000000000E0,-1.221694518E-3,1.527118147E-4
1.949650104E0,-0.000000000E0,-0.000000000E0,-4.581354442E-4
1.952076094E0,1.221694518E-3,-6.108472589E-4,-1.679830020E-3
1.954502083E0,6.108472589E-4,-6.108472589E-4,1.527118147E-4
1.956928073E0,-0.000000000E0,-1.221694518E-3,1.527118147E-4
1.959354010E0,6.108472589E-4,-0.000000000E0,1.374406274E-3
1.961780000E0,-0.000000000E0,6.108472589E-4,-1.068982761E-3
1.964205989E0,-0.000000000E0,-0.000000000E0,-4.581354442E-4
1.966631979E0,-6.108472589E-4,-1.221694518E-3,-4.581354442E-4
1.969057917E0,-0.000000000E0,1.221694518E-3,1.374406274E-3
1.971483906E0,-6.108472589E-4,-6.108472589E-4,1.527118147E-4
1.973909896E0,6.108472589E-4,6.108472589E-4,7.635590737E-4
1.976335885E0,-0.000000000E0,-0.000000000E0,1.527118147E-4
1.978761823E0,-0.000000000E0,-0.000000000E0,-4.581354442E-4
1.981187812E0,-6.108472589E-4,-6.108472589E-4,-1.679830020E-3
1.983613802E0,1.221694518E-3,6.108472589E-4,1.527118147E-4
1.986039792E0,-6.108472589E-4,0.000000000E0,7.635590737E-4
1.988465781E0,6.108472589E-4,0.000000000E0,7.635590737E-4
1.990891719E0,-0.000000000E0,0.000000000E0,7.635590737E-4
1.993317708E0,6.108472589E-4,6.108472589E-4,7.635590737E-5
1.995743698E0,-0.000000000E0,-6.108472589E-4,7.635590737E-5
1.998169687E0,-0.000000000E0,1.221694518E-3,-1.145338640E-3
2.000595625E0,1.221694518E-3,6.108472589E-4,-5.344913807E-4
2.003021614E0,1.221694518E-3,-1.221694518E-3,-5.344913807E-4
2.005447604E0,-6.108472589E-4,0.000000000E0,-5.344913807E-4
2.007873594E0,1.221694518E-3,0.000000000E0,7.635590737E-5
2.010299531E0,-0.000000000E0,6.108472589E-4,6.872031372E-4
2.012725521E0,-1.221694518E-3,6.108472589E-4,-5.344913807E-4
2.015151510E0,-6.108472589E-4,0.000000000E0,-5.344913807E-4
2.017577500E0,-6.108472589E-4,-6.108472589E-4,-2.367033157E-3
2.020003489E0,-0.000000000E0,0.000000000E0,-1.145338640E-3
2.022429427E0,-0.000000000E0,-1.221694518E-3,7.635590737E-5
2.024855417E0,-0.000000000E0,0.000000000E0,6.872031372E-4
2.027281406E0,-0.000000000E0,0.000000000E0,7.635590737E-5
2.029707396E0,-6.108472589E-4,-1.221694518E-3,7.635590737E-5
2.032133333E0,6.108472589E-4,7.635590737E-5,-5.344913807E-4
2.034559323E0,-0.000000000E0,7.635590737E-5,7.635590737E-5
2.036985312E0,-0.000000000E0,7.635590737E-5,-5.344913807E-4
2.039411302E0,-6.108472589E-4,-5.344913807E-4,-5.344913807E-4
2.041837239E0,6.108472589E-4,1.298050396E-3,7.635590737E-5
2.044263229E0,-0.000000000E0,7.635590737E-5,6.872031372E-4
2.046689219E0,-0.000000000E0,7.635590737E-5,6.872031372E-4
2.049115208E0,6.108472589E-4,1.298050396E-3,-5.344913807E-4
2.051541146E0,-6.108472589E-4,-5.344913807E-4,7.635590737E-5
2.053967135E0,-6.108472589E-4,1.298050396E-3,-1.145338640E-3
2.056393125E0,-0.000000000E0,7.635590737E-5,-1.145338640E-3
2.058819114E0,6.108472589E-4,6.872031372E-4,6.872031372E-4
2.061245104E0,6.108472589E-4,6.872031372E-4,6.872031372E-4
2.063671042E0,-0.000000000E0,7.635590737E-5,-1.756185899E-3
2.066097031E0,6.108472589E-4,7.635590737E-5,7.635590737E-5
2.068523021E0,6.108472589E-4,7.635590737E-5,7.635590737E-5
2.070949010E0,-0.000000000E0,6.872031372E-4,-1.145338640E-3
2.073374948E0,1.221694518E-3,6.872031372E-4,-1.756185899E-3
2.075800937E0,-0.000000000E0,6.872031372E-4,-5.344913807E-4
2.078226927E0,6.108472589E-4,-5.344913807E-4,-5.344913807E-4
2.080652917E0,6.108472589E-4,6.872031372E-4,-5.344913807E-4
2.083078854E0,6.108472589E-4,6.872031372E-4,-1.145338640E-3
2.085504844E0,-0.000000000E0,6.872031372E-4,6.872031372E-4
2.087930833E0,-1.221694518E-3,1.298050396E-3,-5.344913807E-4
2.090356823E0,-0.000000000E0,6.872031372E-4,7.635590737E-5
2.092782812E0,-1.908897655E-3,7.635590737E-5,7.635590737E-5
2.095208750E0,-7.635590737E-5,6.872031372E-4,-1.145338640E-3
2.097634739E0,1.145338640E-3,6.872031372E-4,7.635590737E-5
2.100060729E0,5.344913807E-4,-5.344913807E-4,6.872031372E-4
2.102486719E0,5.344913807E-4,-5.344913807E-4,7.635590737E-5
2.104912656E0,-7.635590737E-5,-5.344913807E-4,-1.145338640E-3
2.107338646E0,-6.872031372E-4,1.298050396E-3,1.908897655E-3
2.109764635E0,1.145338640E-3,-5.344913807E-4,1.298050396E-3
2.112190625E0,-1.298050396E-3,7.635590737E-5,7.635590737E-5
2.114616614E0,-7.635590737E-5,7.635590737E-5,-1.145338640E-3
2.117042552E0,5.344913807E-4,-5.344913807E-4,7.635590737E-5
2.119468542E0,-1.298050396E-3,6.872031372E-4,-5.344913807E-4
2.121894531E0,-7.635590737E-5,7.635590737E-5,-5.344913807E-4
2.124320521E0,5.344913807E-4,-5.344913807E-4,7.635590737E-5
2.126746458E0,-1.298050396E-3,-1.145338640E-3,-5.344913807E-4
2.129172448E0,-6.872031372E-4,-5.344913807E-4,-5.344913807E-4
2.131598437E0,5.344913807E-4,-5.344913807E-4,-5.344913807E-4
2.134024427E0,-7.635590737E-5,-1.145338640E-3,-5.344913807E-4
2.136450364E0,-6.872031372E-4,6.872031372E-4,-5.344913807E-4
2.138876354E0,5.344913807E-4,6.872031372E-4,1.527118147E-4
2.141302344E0,-7.635590737E-5,7.635590737E-5,7.635590737E-4
2.143728333E0,-1.298050396E-3,6.872031372E-4,1.374406274E-3
2.146154323E0,-1.298050396E-3,-1.145338640E-3,7.635590737E-4
2.148580260E0,-6.872031372E-4,-5.344913807E-4,1.527118147E-4
2.151006250E0,-1.908897655E-3,-1.145338640E-3,1.527118147E-4
2.153432239E0,-6.872031372E-4,6.872031372E-4,1.374406274E-3
2.155858229E0,1.145338640E-3,7.635590737E-5,1.527118147E-4
2.158284167E0,-7.635590737E-5,-1.145338640E-3,-4.581354442E-4
2.160710156E0,-6.872031372E-4,-1.756185899E-3,7.635590737E-4
2.163136146E0,5.344913807E-4,-1.145338640E-3,7.635590737E-4
2.165562135E0,5.344913807E-4,7.635590737E-5,-4.581354442E-4
2.167988073E0,5.344913807E-4,7.635590737E-5,-4.581354442E-4
2.170414062E0,-7.635590737E-5,6.872031372E-4,-4.581354442E-4
2.172840052E0,-7.635590737E-5,6.872031372E-4,-4.581354442E-4
2.175266042E0,5.344913807E-4,1.298050396E-3,7.635590737E-4
2.177691979E0,1.756185899E-3,6.872031372E-4,-1.068982761E-3
2.180117969E0,5.344913807E-4,1.298050396E-3,7.635590737E-4
2.182543958E0,5.344913807E-4,7.635590737E-5,-1.679830020E-3
2.184969948E0,5.344913807E-4,1.298050396E-3,7.635590737E-4
2.187395937E0,1.756185899E-3,7.635590737E-5,-4.581354442E-4
2.189821875E0,5.344913807E-4,-1.145338640E-3,-1.068982761E-3
2.192247864E0,1.145338640E-3,-1.145338640E-3,-4.581354442E-4
2.194673854E0,-7.635590737E-5,-5.344913807E-4,7.635590737E-4
2.197099844E0,1.145338640E-3,7.635590737E-5,1.374406274E-3
2.199525781E0,1.145338640E-3,7.635590737E-5,7.635590737E-4
2.201951771E0,-7.635590737E-5,-1.145338640E-3,-4.581354442E-4
2.204377760E0,-1.298050396E-3,-1.145338640E-3,-4.581354442E-4
2.206803750E0,-7.635590737E-5,-5.344913807E-4,7.635590737E-4
2.209229739E0,5.344913807E-4,7.635590737E-5,7.635590737E-4
2.211655677E0,-7.635590737E-5,1.298050396E-3,1.985253533E-3
2.214081667E0,1.145338640E-3,1.298050396E-3,7.635590737E-4
2.216507656E0,-7.635590737E-5,-1.756185899E-3,1.527118147E-4
2.218933646E0,1.145338640E-3,7.635590737E-5,-4.581354442E-4
2.221359635E0,-7.635590737E-5,7.635590737E-5,1.527118147E-4
2.223785573E0,-6.872031372E-4,7.635590737E-5,-1.068982761E-3
2.226211562E0,-1.298050396E-3,6.872031372E-4,7.635590737E-4
2.228637552E0,-6.872031372E-4,7.635590737E-5,1.374406274E-3
2.231063542E0,-6.872031372E-4,-5.344913807E-4,1.527118147E-4
2.233489479E0,-7.635590737E-5,-1.145338640E-3,7.635590737E-4
2.235915469E0,-7.635590737E-5,-5.344913807E-4,1.527118147E-4
2.238341458E0,5.344913807E-4,-1.145338640E-3,-4.581354442E-4
2.240767448E0,5.344913807E-4,-1.145338640E-3,1.527118147E-4
2.243193385E0,-7.635590737E-5,-5.344913807E-4,1.374406274E-3
2.245619375E0,5.344913807E-4,6.872031372E-4,-1.068982761E-3
2.248045364E0,-6.872031372E-4,1.908897655E-3,-1.068982761E-3
2.250471354E0,-6.872031372E-4,6.872031372E-4,7.635590737E-4
2.252897292E0,-6.872031372E-4,-5.344913807E-4,1.374406274E-3
2.255323281E0,-6.872031372E-4,-5.344913807E-4,7.635590737E-4
2.257749271E0,-6.872031372E-4,-1.145338640E-3,-4.581354442E-4
2.260175260E0,5.344913807E-4,6.872031372E-4,1.527118147E-4
2.262601250E0,-7.635590737E-5,6.872031372E-4,7.635590737E-4
2.265027187E0,-7.635590737E-5,7.635590737E-5,1.527118147E-4
2.267453177E0,-6.872031372E-4,7.635590737E-5,1.374406274E-3
2.269879167E0,5.344913807E-4,-5.344913807E-4,7.635590737E-4
2.272305156E0,5.344913807E-4,7.635590737E-5,7.635590737E-4
2.274731094E0,-7.635590737E-5,-1.145338640E-3,1.527118147E-4
2.277157083E0,5.344913807E-4,7.635590737E-5,7.635590737E-4
2.279583073E0,-7.635590737E-5,6.872031372E-4,1.374406274E-3
2.282009062E0,-6.872031372E-4,7.635590737E-5,7.635590737E-4
2.284435000E0,-7.635590737E-5,-1.145338640E-3,-4.581354442E-4
2.286860989E0,-7.635590737E-5,-5.344913807E-4,-1.068982761E-3
2.289286979E0,-6.872031372E-4,7.635590737E-5,-1.679830020E-3
2.291712969E0,-6.872031372E-4,6.872031372E-4,-1.068982761E-3
2.294138958E0,5.344913807E-4,-5.344913807E-4,1.527118147E-4
2.296564896E0,-6.872031372E-4,-1.145338640E-3,-4.581354442E-4
2.298990885E0,-6.872031372E-4,-5.344913807E-4,1.527118147E-4
2.301416875E0,-6.872031372E-4,-5.344913807E-4,7.635590737E-4
2.303842864E0,-6.872031372E-4,-5.344913807E-4,-4.581354442E-4
2.306268802E0,-7.635590737E-5,-5.344913807E-4,1.527118147E-4
2.308694792E0,1.145338640E-3,1.908897655E-3,1.527118147E-4
2.311120781E0,-1.908897655E-3,7.635590737E-5,1.527118147E-4
2.313546771E0,-6.872031372E-4,-1.145338640E-3,-1.068982761E-3
2.315972760E0,-6.872031372E-4,-1.756185899E-3,7.635590737E-4
2.318398698E0,5.344913807E-4,-1.145338640E-3,1.374406274E-3
2.320824687E0,5.344913807E-4,7.635590737E-5,1.527118147E-4
2.323250677E0,5.344913807E-4,6.872031372E-4,7.635590737E-4
2.325676667E0,5.344913807E-4,6.872031372E-4,1.527118147E-4
2.328102604E0,5.344913807E-4,7.635590737E-5,-1.068982761E-3
2.330528594E0,-1.908897655E-3,7.635590737E-5,-4.581354442E-4
2.332954583E0,-6.872031372E-4,-5.344913807E-4,1.527118147E-4
2.335380573E0,-7.635590737E-5,7.635590737E-5,1.527118147E-4
2.337806510E0,-6.872031372E-4,1.298050396E-3,7.635590737E-5
2.340232500E0,-6.872031372E-4,7.635590737E-5,-5.344913807E-4
2.342658489E0,5.344913807E-4,6.872031372E-4,-5.344913807E-4
2.345084479E0,-7.635590737E-5,7.635590737E-5,7.635590737E-5
2.347510469E0,-6.872031372E-4,-1.145338640E-3,-5.344913807E-4
2.349936406E0,1.145338640E-3,6.872031372E-4,-5.344913807E-4
2.352362396E0,1.756185899E-3,6.872031372E-4,-1.756185899E-3
2.354788385E0,5.344913807E-4,-5.344913807E-4,-5.344913807E-4
2.357214375E0,-7.635590737E-5,-1.145338640E-3,-1.145338640E-3
2.359640312E0,-1.908897655E-3,-1.145338640E-3,7.635590737E-5
2.362066302E0,-6.872031372E-4,1.298050396E-3,7.635590737E-5
2.364492292E0,-7.635590737E-5,6.872031372E-4,7.635590737E-5
2.366918281E0,-7.635590737E-5,1.298050396E-3,1.298050396E-3
2.369344219E0,-7.635590737E-5,-1.145338640E-3,-1.145338640E-3
2.371770208E0,-6.872031372E-4,-5.344913807E-4,-2.367033157E-3
2.374196198E0,1.756185899E-3,-1.145338640E-3,-1.145338640E-3
2.376622187E0,-7.635590737E-5,7.635590737E-5,-5.344913807E-4
2.379048177E0,-7.635590737E-5,6.872031372E-4,7.635590737E-5
2.381474114E0,-7.635590737E-5,1.908897655E-3,7.635590737E-5
2.383900104E0,-1.298050396E-3,-5.344913807E-4,-1.145338640E-3
2.386326094E0,-7.635590737E-5,7.635590737E-5,-5.344913807E-4
2.388752083E0,-6.872031372E-4,6.872031372E-4,6.872031372E-4
2.391178021E0,5.344913807E-4,-1.756185899E-3,7.635590737E-5
2.393604010E0,-7.635590737E-5,1.527118147E-4,-1.145338640E-3
2.396030000E0,-6.872031372E-4,1.527118147E-4,-5.344913807E-4
2.398455989E0,-1.298050396E-3,-4.581354442E-4,7.635590737E-5
2.400881979E0,-6.872031372E-4,1.374406274E-3,6.872031372E-4
2.403307917E0,1.145338640E-3,1.527118147E-4,-1.756185899E-3
2.405733906E0,-7.635590737E-5,7.635590737E-4,6.872031372E-4
2.408159896E0,-1.298050396E-3,7.635590737E-4,7.635590737E-5
2.410585885E0,5.344913807E-4,-1.068982761E-3,-5.344913807E-4
2.413011823E0,-7.635590737E-5,1.527118147E-4,7.635590737E-5
2.415437812E0,-1.298050396E-3,1.527118147E-4,7.635590737E-5
2.417863802E0,-1.908897655E-3,1.527118147E-4,7.635590737E-5
2.420289792E0,-7.635590737E-5,7.635590737E-4,1.298050396E-3
2.422715729E0,-7.635590737E-5,1.527118147E-4,1.908897655E-3
2.425141719E0,-7.635590737E-5,1.527118147E-4,-1.145338640E-3
2.427567708E0,-7.635590737E-5,-4.581354442E-4,-5.344913807E-4
2.429993698E0,-7.635590737E-5,-4.581354442E-4,7.635590737E-5
2.432419687E0,5.344913807E-4,-4.581354442E-4,-5.344913807E-4
2.434845625E0,-7.635590737E-5,1.527118147E-4,7.635590737E-5
2.437271614E0,5.344913807E-4,7.635590737E-4,1.527118147E-4
2.439697604E0,1.145338640E-3,1.374406274E-3,7.635590737E-4
2.442123594E0,-1.221694518E-3,-1.068982761E-3,-4.581354442E-4
2.444549531E0,-0.000000000E0,-4.581354442E-4,7.635590737E-4
2.446975521E0,6.108472589E-4,-4.581354442E-4,1.527118147E-4
2.449401510E0,-6.108472589E-4,-4.581354442E-4,-4.581354442E-4
2.451827500E0,-6.108472589E-4,-1.068982761E-3,-1.679830020E-3
2.454253489E0,1.221694518E-3,7.635590737E-4,-4.581354442E-4
2.456679427E0,-1.221694518E-3,1.527118147E-4,-4.581354442E-4
2.459105417E0,6.108472589E-4,-4.581354442E-4,1.374406274E-3
2.461531406E0,1.221694518E-3,-1.068982761E-3,7.635590737E-4
2.463957396E0,6.108472589E-4,-1.068982761E-3,-1.679830020E-3
2.466383333E0,6.108472589E-4,-1.068982761E-3,-1.679830020E-3
2.468809323E0,-6.108472589E-4,-1.068982761E-3,7.635590737E-4
2.471235312E0,-0.000000000E0,1.527118147E-4,-4.581354442E-4
2.473661302E0,6.108472589E-4,1.527118147E-4,-4.581354442E-4
2.476087239E0,6.108472589E-4,-4.581354442E-4,-4.581354442E-4
2.478513229E0,6.108472589E-4,1.527118147E-4,-4.581354442E-4
2.480939219E0,1.221694518E-3,-1.068982761E-3,7.635590737E-4
2.483365208E0,-0.000000000E0,1.527118147E-4,7.635590737E-4
2.485791198E0,-6.108472589E-4,-4.581354442E-4,-4.581354442E-4
2.488217135E0,-6.108472589E-4,7.635590737E-4,-4.581354442E-4
2.490643125E0,-0.000000000E0,1.374406274E-3,-4.581354442E-4
2.493069114E0,6.108472589E-4,1.527118147E-4,-4.581354442E-4
2.495495104E0,6.108472589E-4,-4.581354442E-4,1.527118147E-4
2.497921042E0,6.108472589E-4,1.527118147E-4,1.374406274E-3
2.500347031E0,-0.000000000E0,1.527118147E-4,7.635590737E-4
2.502773021E0,1.832541777E-3,7.635590737E-4,7.635590737E-4
2.505199010E0,6.108472589E-4,-4.581354442E-4,-4.581354442E-4
2.507625000E0,-0.000000000E0,1.527118147E-4,1.374406274E-3
2.510050937E0,6.108472589E-4,7.635590737E-4,-4.581354442E-4
2.512476927E0,-0.000000000E0,-4.581354442E-4,-1.068982761E-3
2.514902917E0,-6.108472589E-4,-4.581354442E-4,7.635590737E-4
2.517328906E0,6.108472589E-4,7.635590737E-4,-4.581354442E-4
2.519754844E0,6.108472589E-4,1.527118147E-4,-4.581354442E-4
2.522180833E0,-6.108472589E-4,1.527118147E-4,-1.068982761E-3
2.524606823E0,-6.108472589E-4,1.527118147E-4,-4.581354442E-4
2.527032812E0,-6.108472589E-4,-1.068982761E-3,-1.068982761E-3
2.529458802E0,-0.000000000E0,-1.068982761E-3,7.635590737E-4
2.531884739E0,-0.000000000E0,1.527118147E-4,1.527118147E-4
2.534310729E0,-0.000000000E0,1.985253533E-3,1.374406274E-3
2.536736719E0,-6.108472589E-4,1.527118147E-4,1.527118147E-4
2.539162708E0,-6.108472589E-4,1.527118147E-4,1.374406274E-3
2.541588646E0,-6.108472589E-4,1.374406274E-3,1.527118147E-4
2.544014635E0,-6.108472589E-4,1.527118147E-4,-4.581354442E-4
2.546440625E0,-0.000000000E0,-4.581354442E-4,7.635590737E-4
2.548866614E0,6.108472589E-4,1.527118147E-4,1.527118147E-4
2.551292552E0,-1.221694518E-3,-4.581354442E-4,-4.581354442E-4
2.553718542E0,-6.108472589E-4,-4.581354442E-4,-1.068982761E-3
2.556144531E0,-6.108472589E-4,-1.068982761E-3,-4.581354442E-4
2.558570521E0,6.108472589E-4,7.635590737E-4,-1.679830020E-3
2.560996510E0,6.108472589E-4,1.527118147E-4,1.527118147E-4
2.563422448E0,-0.000000000E0,-4.581354442E-4,7.635590737E-4
2.565848437E0,-0.000000000E0,1.527118147E-4,1.527118147E-4
2.568274427E0,-0.000000000E0,-4.581354442E-4,7.635590737E-4
2.570700417E0,-0.000000000E0,-4.581354442E-4,1.527118147E-4
2.573126354E0,-1.221694518E-3,1.527118147E-4,1.527118147E-4
2.575552344E0,-0.000000000E0,-4.581354442E-4,7.635590737E-4
2.577978333E0,-6.108472589E-4,-4.581354442E-4,1.527118147E-4
2.580404323E0,-0.000000000E0,-4.581354442E-4,1.527118147E-4
2.582830260E0,6.108472589E-4,-1.068982761E-3,1.374406274E-3
2.585256250E0,1.221694518E-3,1.527118147E-4,1.527118147E-4
2.587682239E0,6.108472589E-4,1.374406274E-3,7.635590737E-4
2.590108229E0,-0.000000000E0,1.527118147E-4,1.527118147E-4
2.592534219E0,-0.000000000E0,1.374406274E-3,1.527118147E-4
2.594960156E0,-0.000000000E0,-4.581354442E-4,1.527118147E-4
2.597386146E0,-6.108472589E-4,7.635590737E-4,1.527118147E-4
2.599812135E0,-0.000000000E0,7.635590737E-4,1.374406274E-3
2.602238125E0,6.108472589E-4,-4.581354442E-4,1.374406274E-3
2.604664062E0,-1.221694518E-3,1.527118147E-4,7.635590737E-4
2.607090052E0,-6.108472589E-4,-1.679830020E-3,1.527118147E-4
2.609516042E0,-0.000000000E0,-4.581354442E-4,1.527118147E-4
2.611942031E0,-0.000000000E0,-4.581354442E-4,-4.581354442E-4
2.614368021E0,6.108472589E-4,-4.581354442E-4,-2.290677279E-3
2.616793958E0,-6.108472589E-4,-1.068982761E-3,-1.068982761E-3
2.619219948E0,1.221694518E-3,-1.068982761E-3,-4.581354442E-4
2.621645937E0,-1.221694518E-3,-4.581354442E-4,7.635590737E-4
2.624071927E0,-6.108472589E-4,-1.068982761E-3,7.635590737E-4
2.626497864E0,-1.221694518E-3,7.635590737E-4,1.374406274E-3
2.628923854E0,6.108472589E-4,-1.068982761E-3,1.527118147E-4
2.631349844E0,-0.000000000E0,-4.581354442E-4,7.635590737E-4
2.633775833E0,-0.000000000E0,7.635590737E-4,1.527118147E-4
2.636201823E0,-0.000000000E0,7.635590737E-4,7.635590737E-4
2.638627760E0,-1.832541777E-3,-4.581354442E-4,1.527118147E-4
2.641053750E0,-2.443389036E-3,-4.581354442E-4,-4.581354442E-4
2.643479739E0,-2.443389036E-3,1.527118147E-4,-4.581354442E-4
2.645905729E0,-6.108472589E-4,1.527118147E-4,1.374406274E-3
2.648331667E0,6.108472589E-4,-1.068982761E-3,1.374406274E-3
2.650757656E0,6.108472589E-4,1.527118147E-4,1.985253533E-3
2.653183646E0,6.108472589E-4,7.635590737E-4,-4.581354442E-4
2.655609635E0,6.108472589E-4,7.635590737E-4,1.527118147E-4
2.658035573E0,-6.108472589E-4,1.374406274E-3,1.527118147E-4
2.660461562E0,-1.221694518E-3,1.527118147E-4,7.635590737E-4
2.662887552E0,-6.108472589E-4,-4.581354442E-4,1.527118147E-4
2.665313542E0,1.832541777E-3,-1.068982761E-3,7.635590737E-4
2.667739531E0,-1.221694518E-3,1.527118147E-4,1.374406274E-3
2.670165469E0,0.000000000E0,1.527118147E-4,1.527118147E-4
2.672591458E0,-6.108472589E-4,1.527118147E-4,1.527118147E-4
2.675017448E0,-6.108472589E-4,-1.068982761E-3,-1.068982761E-3
2.677443437E0,2.443389036E-3,-1.068982761E-3,-1.679830020E-3
2.679869375E0,1.832541777E-3,-4.581354442E-4,-1.068982761E-3
2.682295364E0,0.000000000E0,1.527118147E-4,-1.068982761E-3
2.684721354E0,0.000000000E0,1.527118147E-4,1.527118147E-4
2.687147344E0,1.221694518E-3,7.635590737E-4,-1.068982761E-3
2.689573333E0,0.000000000E0,1.374406274E-3,-4.581354442E-4
2.691999271E0,-6.108472589E-4,1.527118147E-4,1.527118147E-4
2.694425260E0,0.000000000E0,1.527118147E-4,1.527118147E-4
2.696851250E0,6.108472589E-4,1.527118147E-4,1.985253533E-3
2.699277239E0,1.221694518E-3,1.527118147E-4,7.635590737E-4
2.701703177E0,1.221694518E-3,1.527118147E-4,-4.581354442E-4
2.704129167E0,6.108472589E-4,-1.068982761E-3,1.527118147E-4
2.706555156E0,6.108472589E-4,-4.581354442E-4,-4.581354442E-4
2.708981146E0,6.108472589E-4,-4.581354442E-4,-4.581354442E-4
2.711407083E0,1.221694518E-3,1.527118147E-4,1.527118147E-4
2.713833073E0,6.108472589E-4,1.527118147E-4,1.527118147E-4
2.716259062E0,0.000000000E0,-4.581354442E-4,1.527118147E-4
2.718685052E0,0.000000000E0,7.635590737E-4,-4.581354442E-4
2.721111042E0,0.000000000E0,1.527118147E-4,-4.581354442E-4
2.723536979E0,-6.108472589E-4,-4.581354442E-4,1.527118147E-4
2.725962969E0,6.108472589E-4,-1.068982761E-3,-4.581354442E-4
2.728388958E0,0.000000000E0,-1.068982761E-3,-4.581354442E-4
2.730814948E0,-1.221694518E-3,-3.817795368E-4,-4.581354442E-4
2.733240885E0,-6.108472589E-4,2.290677221E-4,1.985253533E-3
2.735666875E0,0.000000000E0,2.290677221E-4,-1.068982761E-3
2.738092864E0,-1.221694518E-3,8.399150101E-4,-4.581354442E-4
2.740518854E0,0.000000000E0,-3.817795368E-4,1.527118147E-4
2.742944844E0,-6.108472589E-4,-3.817795368E-4,-4.581354442E-4
2.745370781E0,0.000000000E0,8.399150101E-4,-4.581354442E-4
2.747796771E0,6.108472589E-4,2.290677221E-4,-1.068982761E-3
2.750222760E0,-6.108472589E-4,2.290677221E-4,7.635590737E-4
2.752648750E0,0.000000000E0,2.290677221E-4,1.985253533E-3
2.755074687E0,1.221694518E-3,2.290677221E-4,1.527118147E-4
2.757500677E0,0.000000000E0,8.399150101E-4,7.635590737E-5
2.759926667E0,6.108472589E-4,1.450762269E-3,7.635590737E-5
2.762352656E0,1.221694518E-3,2.290677221E-4,-5.344913807E-4
2.764778646E0,-6.108472589E-4,2.290677221E-4,-1.145338640E-3
2.767204583E0,-6.108472589E-4,2.290677221E-4,-1.756185899E-3
2.769630573E0,-1.221694518E-3,-1.603474026E-3,-5.344913807E-4
2.772056562E0,0.000000000E0,8.399150101E-4,-5.344913807E-4
2.774482552E0,1.221694518E-3,2.290677221E-4,-1.145338640E-3
2.776908489E0,-6.108472589E-4,8.399150101E-4,-1.145338640E-3
2.779334479E0,0.000000000E0,-3.817795368E-4,-5.344913807E-4
2.781760469E0,6.108472589E-4,8.399150101E-4,-5.344913807E-4
2.784186458E0,6.108472589E-4,2.061609412E-3,1.298050396E-3
2.786612448E0,0.000000000E0,8.399150101E-4,7.635590737E-5
2.789038385E0,6.108472589E-4,-3.817795368E-4,7.635590737E-5
2.791464375E0,-6.108472589E-4,-3.817795368E-4,7.635590737E-5
2.793890364E0,-6.108472589E-4,2.290677221E-4,7.635590737E-5
2.796316354E0,0.000000000E0,2.290677221E-4,-5.344913807E-4
2.798742292E0,-6.108472589E-4,8.399150101E-4,6.872031372E-4
2.801168281E0,0.000000000E0,2.290677221E-4,7.635590737E-5
2.803594271E0,6.108472589E-4,-3.817795368E-4,-1.756185899E-3
2.806020260E0,6.108472589E-4,8.399150101E-4,7.635590737E-5
2.808446198E0,0.000000000E0,2.290677221E-4,6.872031372E-4
2.810872187E0,-6.108472589E-4,-3.817795368E-4,6.872031372E-4
2.813298177E0,-1.221694518E-3,-3.817795368E-4,-5.344913807E-4
2.815724167E0,6.108472589E-4,2.290677221E-4,-5.344913807E-4
2.818150156E0,-1.221694518E-3,-9.926267667E-4,6.872031372E-4
2.820576094E0,1.832541777E-3,-3.817795368E-4,-4.581354442E-4
2.823002083E0,6.108472589E-4,8.399150101E-4,-4.581354442E-4
2.825428073E0,6.108472589E-4,8.399150101E-4,1.527118147E-4
2.827854062E0,-6.108472589E-4,1.450762269E-3,-4.581354442E-4
2.830280000E0,0.000000000E0,-3.817795368E-4,1.527118147E-4
2.832705989E0,-6.108472589E-4,2.290677221E-4,-4.581354442E-4
2.835131979E0,6.108472589E-4,2.290677221E-4,1.527118147E-4
2.837557969E0,1.832541777E-3,2.290677221E-4,1.527118147E-4
2.839983958E0,1.221694518E-3,2.290677221E-4,1.374406274E-3
2.842409896E0,0.000000000E0,8.399150101E-4,1.374406274E-3
2.844835885E0,-6.108472589E-4,2.290677221E-4,-1.068982761E-3
2.847261875E0,-6.108472589E-4,8.399150101E-4,1.527118147E-4
2.849687864E0,-1.221694518E-3,7.635590737E-4,-4.581354442E-4
2.852113802E0,0.000000000E0,-4.581354442E-4,-4.581354442E-4
2.854539792E0,6.108472589E-4,1.527118147E-4,7.635590737E-4
2.856965781E0,6.108472589E-4,1.527118147E-4,1.527118147E-4
2.859391771E0,-1.832541777E-3,-4.581354442E-4,7.635590737E-4
2.861817760E0,-1.221694518E-3,-4.581354442E-4,7.635590737E-4
2.864243698E0,0.000000000E0,7.635590737E-4,-1.068982761E-3
2.866669687E0,6.108472589E-4,-4.581354442E-4,-1.068982761E-3
2.869095677E0,-6.108472589E-4,1.527118147E-4,-1.679830020E-3
2.871521667E0,-6.108472589E-4,-1.068982761E-3,-1.068982761E-3
2.873947604E0,0.000000000E0,1.527118147E-4,-4.581354442E-4
2.876373594E0,-6.108472589E-4,7.635590737E-4,-4.581354442E-4
2.878799583E0,-1.832541777E-3,-4.581354442E-4,1.527118147E-4
2.881225573E0,-1.221694518E-3,7.635590737E-4,7.635590737E-4
2.883651562E0,-6.108472589E-4,1.374406274E-3,1.374406274E-3
2.886077500E0,6.108472589E-4,7.635590737E-4,7.635590737E-4
2.888503489E0,0.000000000E0,1.527118147E-4,-4.581354442E-4
2.890929479E0,0.000000000E0,2.596100792E-3,1.527118147E-4
2.893355469E0,-1.221694518E-3,1.374406274E-3,-4.581354442E-4
2.895781406E0,6.108472589E-4,1.527118147E-4,-4.581354442E-4
2.898207396E0,0.000000000E0,-4.581354442E-4,-4.581354442E-4
2.900633385E0,-6.108472589E-4,1.527118147E-4,-4.581354442E-4
2.903059375E0,0.000000000E0,1.527118147E-4,1.527118147E-4
2.905485312E0,-6.108472589E-4,1.527118147E-4,1.527118147E-4
2.907911302E0,0.000000000E0,1.527118147E-4,1.527118147E-4
2.910337292E0,-1.221694518E-3,1.527118147E-4,1.527118147E-4
2.912763281E0,0.000000000E0,1.527118147E-4,-1.068982761E-3
2.915189271E0,0.000000000E0,7.635590737E-4,-1.679830020E-3
2.917615208E0,1.221694518E-3,-1.068982761E-3,-1.068982761E-3
2.920041198E0,1.832541777E-3,1.527118147E-4,-4.581354442E-4
2.922467187E0,-6.108472589E-4,7.635590737E-4,1.527118147E-4
2.924893177E0,6.108472589E-4,-4.581354442E-4,1.527118147E-4
2.927319167E0,6.108472589E-4,1.527118147E-4,1.374406274E-3
2.929745104E0,-6.108472589E-4,-4.581354442E-4,-1.068982761E-3
2.932171094E0,-1.221694518E-3,-4.581354442E-4,7.635590737E-4
2.934597083E0,-6.108472589E-4,1.527118147E-4,7.635590737E-4
2.937023073E0,-6.108472589E-4,1.374406274E-3,-4.581354442E-4
2.939449010E0,0.000000000E0,1.527118147E-4,-1.068982761E-3
2.941875000E0,6.108472589E-4,1.527118147E-4,1.527118147E-4
2.944300989E0,6.108472589E-4,7.635590737E-4,7.635590737E-4
2.946726979E0,0.000000000E0,-4.581354442E-4,7.635590737E-4
2.949152917E0,-1.221694518E-3,-4.581354442E-4,7.635590737E-4
2.951578906E0,0.000000000E0,7.635590737E-4,1.374406274E-3
2.954004896E0,-1.221694518E-3,1.527118147E-4,1.527118147E-4
2.956430885E0,-1.221694518E-3,1.527118147E-4,7.635590737E-4
2.958856875E0,0.000000000E0,1.374406274E-3,1.985253533E-3
2.961282812E0,1.221694518E-3,-4.581354442E-4,1.527118147E-4
2.963708802E0,6.108472589E-4,-4.581354442E-4,1.527118147E-4
2.966134792E0,1.221694518E-3,1.527118147E-4,7.635590737E-4
2.968560781E0,0.000000000E0,7.635590737E-4,-1.068982761E-3
2.970986771E0,0.000000000E0,6.872031372E-4,-1.679830020E-3
2.973412708E0,-6.108472589E-4,6.872031372E-4,1.527118147E-4
2.975838698E0,0.000000000E0,6.872031372E-4,1.527118147E-4
2.978264687E0,0.000000000E0,7.635590737E-5,-1.679830020E-3
2.980690677E0,-6.108472589E-4,6.872031372E-4,-4.581354442E-4
2.983116614E0,0.000000000E0,-1.756185899E-3,-4.581354442E-4
2.985542604E0,0.000000000E0,-1.145338640E-3,-1.679830020E-3
2.987968594E0,0.000000000E0,-5.344913807E-4,7.635590737E-4
2.990394583E0,-6.108472589E-4,-5.344913807E-4,1.527118147E-4
2.992820521E0,-6.108472589E-4,7.635590737E-5,7.635590737E-4
2.995246510E0,-1.832541777E-3,-1.756185899E-3,-4.581354442E-4
2.997672500E0,0.000000000E0,-1.756185899E-3,1.527118147E-4
3.000098489E0,0.000000000E0,-1.756185899E-3,1.527118147E-4
3.002524479E0,1.221694518E-3,-5.344913807E-4,7.635590737E-4
3.004950417E0,1.221694518E-3,-1.145338640E-3,7.635590737E-4
3.007376406E0,-6.108472589E-4,7.635590737E-5,1.985253533E-3
3.009802396E0,-1.221694518E-3,7.635590737E-5,7.635590737E-4
3.012228385E0,-6.108472589E-4,7.635590737E-5,1.527118147E-4
3.014654323E0,-6.108472589E-4,-1.145338640E-3,7.635590737E-4
3.017080312E0,-6.108472589E-4,-5.344913807E-4,-4.581354442E-4
3.019506302E0,-1.221694518E-3,1.908897655E-3,1.527118147E-4
3.021932292E0,0.000000000E0,1.298050396E-3,-4.581354442E-4
3.024358281E0,7.635590737E-5,1.298050396E-3,1.527118147E-4
3.026784219E0,-5.344913807E-4,1.298050396E-3,-4.581354442E-4
3.029210208E0,-5.344913807E-4,1.908897655E-3,-4.581354442E-4
3.031636198E0,6.872031372E-4,-5.344913807E-4,1.527118147E-4
3.034062187E0,6.872031372E-4,7.635590737E-5,-4.581354442E-4
3.036488125E0,1.298050396E-3,1.298050396E-3,7.635590737E-4
3.038914114E0,-5.344913807E-4,6.872031372E-4,1.985253533E-3
3.041340104E0,-5.344913807E-4,6.872031372E-4,7.635590737E-4
3.043766094E0,7.635590737E-5,6.872031372E-4,-1.068982761E-3
3.046192083E0,6.872031372E-4,7.635590737E-5,1.527118147E-4
3.048618021E0,-1.145338640E-3,-5.344913807E-4,1.527118147E-4
3.051044010E0,7.635590737E-5,-5.344913807E-4,1.527118147E-4
3.053470000E0,1.298050396E-3,-5.344913807E-4,-4.581354442E-4
3.055895989E0,6.872031372E-4,-1.145338640E-3,-4.581354442E-4
3.058321927E0,6.872031372E-4,6.872031372E-4,-4.581354442E-4
3.060747917E0,-5.344913807E-4,7.635590737E-5,1.527118147E-4
3.063173906E0,7.635590737E-5,7.635590737E-5,1.374406274E-3
3.065599896E0,7.635590737E-5,7.635590737E-5,1.527118147E-4
3.068025885E0,6.872031372E-4,-5.344913807E-4,-4.581354442E-4
3.070451823E0,-1.145338640E-3,6.872031372E-4,1.527118147E-4
3.072877812E0,-5.344913807E-4,6.872031372E-4,7.635590737E-4
3.075303802E0,-5.344913807E-4,-1.145338640E-3,-4.581354442E-4
3.077729792E0,-1.145338640E-3,7.635590737E-5,1.374406274E-3
3.080155729E0,-1.145338640E-3,7.635590737E-5,-4.581354442E-4
3.082581719E0,7.635590737E-5,-1.145338640E-3,-4.581354442E-4
3.085007708E0,6.872031372E-4,7.635590737E-5,1.527118147E-4
3.087433698E0,6.872031372E-4,7.635590737E-5,-4.581354442E-4
3.089859687E0,7.635590737E-5,7.635590737E-5,-1.068982761E-3
3.092285625E0,7.635590737E-5,7.635590737E-5,7.635590737E-4
3.094711614E0,6.872031372E-4,-1.145338640E-3,-4.581354442E-4
3.097137604E0,6.872031372E-4,-5.344913807E-4,-4.581354442E-4
3.099563594E0,7.635590737E-5,-1.145338640E-3,-4.581354442E-4
3.101989531E0,1.298050396E-3,-5.344913807E-4,-1.068982761E-3
3.104415521E0,7.635590737E-5,7.635590737E-5,1.527118147E-4
3.106841510E0,-5.344913807E-4,6.872031372E-4,-1.679830020E-3
3.109267500E0,7.635590737E-5,-5.344913807E-4,1.527118147E-4
3.111693437E0,-1.145338640E-3,-5.344913807E-4,-4.581354442E-4
3.114119427E0,6.872031372E-4,-5.344913807E-4,-4.581354442E-4
3.116545417E0,6.872031372E-4,6.872031372E-4,-4.581354442E-4
3.118971406E0,6.872031372E-4,-5.344913807E-4,-1.068982761E-3
3.121397396E0,7.635590737E-5,1.298050396E-3,-4.581354442E-4
3.123823333E0,7.635590737E-5,1.298050396E-3,7.635590737E-4
3.126249323E0,-5.344913807E-4,7.635590737E-5,1.527118147E-4
3.128675312E0,7.635590737E-5,6.872031372E-4,1.527118147E-4
3.131101302E0,-1.145338640E-3,-1.756185899E-3,7.635590737E-4
3.133527292E0,6.872031372E-4,-2.367033157E-3,-1.068982761E-3
3.135953229E0,6.872031372E-4,6.872031372E-4,-4.581354442E-4
3.138379219E0,6.872031372E-4,6.872031372E-4,-4.581354442E-4
3.140805208E0,-5.344913807E-4,6.872031372E-4,-1.068982761E-3
3.143231198E0,-5.344913807E-4,7.635590737E-5,-4.581354442E-4
3.145657135E0,1.298050396E-3,6.872031372E-4,1.527118147E-4
3.148083125E0,7.635590737E-5,6.872031372E-4,7.635590737E-4
3.150509114E0,6.872031372E-4,-1.145338640E-3,1.527118147E-4
3.152935104E0,-5.344913807E-4,-1.145338640E-3,1.527118147E-4
3.155361094E0,7.635590737E-5,7.635590737E-5,7.635590737E-4
3.157787031E0,6.872031372E-4,-1.145338640E-3,-4.581354442E-4
3.160213021E0,-1.145338640E-3,-1.145338640E-3,-4.581354442E-4
3.162639010E0,6.872031372E-4,7.635590737E-5,-1.679830020E-3
3.165065000E0,7.635590737E-5,7.635590737E-5,1.527118147E-4
3.167490937E0,7.635590737E-5,-5.344913807E-4,-4.581354442E-4
3.169916927E0,-5.344913807E-4,1.298050396E-3,-4.581354442E-4
3.172342917E0,6.872031372E-4,6.872031372E-4,1.527118147E-4
3.174768906E0,6.872031372E-4,7.635590737E-5,7.635590737E-4
3.177194844E0,-5.344913807E-4,-1.145338640E-3,-4.581354442E-4
3.179620833E0,7.635590737E-5,6.872031372E-4,1.527118147E-4
3.182046823E0,7.635590737E-5,7.635590737E-5,1.527118147E-4
3.184472812E0,7.635590737E-5,-5.344913807E-4,-1.679830020E-3
3.186898802E0,-5.344913807E-4,6.872031372E-4,-4.581354442E-4
3.189324739E0,-5.344913807E-4,7.635590737E-5,-1.068982761E-3
3.191750729E0,-5.344913807E-4,-1.756185899E-3,-1.068982761E-3
3.194176719E0,7.635590737E-5,-1.756185899E-3,-1.068982761E-3
3.196602708E0,7.635590737E-5,7.635590737E-5,7.635590737E-4
3.199028698E0,7.635590737E-5,-1.145338640E-3,7.635590737E-4
3.201454635E0,7.635590737E-5,7.635590737E-5,1.527118147E-4
3.203880625E0,-5.344913807E-4,-5.344913807E-4,1.374406274E-3
3.206306614E0,-1.145338640E-3,7.635590737E-5,1.374406274E-3
3.208732604E0,7.635590737E-5,6.872031372E-4,7.635590737E-4
3.211158542E0,6.872031372E-4,6.872031372E-4,-4.581354442E-4
3.213584531E0,7.635590737E-5,7.635590737E-5,1.527118147E-4
3.216010521E0,-1.145338640E-3,7.635590737E-5,1.527118147E-4
3.218436510E0,-1.145338640E-3,7.635590737E-5,-4.581354442E-4
3.220862500E0,-5.344913807E-4,6.872031372E-4,1.527118147E-4
3.223288437E0,7.635590737E-5,-5.344913807E-4,1.527118147E-4
3.225714427E0,7.635590737E-5,-5.344913807E-4,1.527118147E-4
3.228140417E0,-1.145338640E-3,1.908897655E-3,1.527118147E-4
3.230566406E0,-2.367033157E-3,6.872031372E-4,7.635590737E-4
3.232992344E0,6.872031372E-4,-5.344913807E-4,1.527118147E-4
3.235418333E0,-5.344913807E-4,6.872031372E-4,-1.068982761E-3
3.237844323E0,-5.344913807E-4,7.635590737E-5,1.527118147E-4
3.240270312E0,-5.344913807E-4,7.635590737E-5,7.635590737E-4
3.242696302E0,-5.344913807E-4,6.872031372E-4,1.527118147E-4
3.245122239E0,-1.145338640E-3,7.635590737E-5,2.290677221E-4
3.247548229E0,1.298050396E-3,6.872031372E-4,2.290677221E-4
3.249974219E0,7.635590737E-5,7.635590737E-5,-3.817795368E-4
3.252400208E0,1.298050396E-3,-1.145338640E-3,8.399150101E-4
3.254826146E0,6.872031372E-4,-5.344913807E-4,8.399150101E-4
3.257252135E0,-5.344913807E-4,7.635590737E-5,-3.817795368E-4
3.259678125E0,6.872031372E-4,-1.145338640E-3,-3.817795368E-4
3.262104114E0,1.908897655E-3,6.872031372E-4,2.290677221E-4
3.264530104E0,7.635590737E-5,7.635590737E-5,8.399150101E-4
3.266956042E0,-5.344913807E-4,6.872031372E-4,2.290677221E-4
3.269382031E0,7.635590737E-5,1.908897655E-3,2.290677221E-4
3.271808021E0,6.872031372E-4,6.872031372E-4,-9.926267667E-4
3.274234010E0,7.635590737E-5,6.872031372E-4,-1.603474026E-3
3.276659948E0,7.635590737E-5,7.635590737E-5,8.399150101E-4
3.279085937E0,-5.344913807E-4,-5.344913807E-4,2.290677221E-4
3.281511927E0,1.298050396E-3,1.298050396E-3,-3.817795368E-4
3.283937917E0,7.635590737E-5,7.635590737E-5,-3.817795368E-4
3.286363906E0,-5.344913807E-4,6.872031372E-4,-3.817795368E-4
3.288789844E0,7.635590737E-5,6.872031372E-4,-3.817795368E-4
3.291215833E0,-1.145338640E-3,7.635590737E-5,2.290677221E-4
3.293641823E0,-5.344913807E-4,7.635590737E-5,2.290677221E-4
3.296067812E0,1.298050396E-3,7.635590737E-5,2.290677221E-4
3.298493750E0,1.298050396E-3,6.872031372E-4,-9.926267667E-4
3.300919739E0,6.872031372E-4,2.519744914E-3,-3.817795368E-4
3.303345729E0,1.908897655E-3,7.635590737E-5,-3.817795368E-4
3.305771719E0,7.635590737E-5,-1.756185899E-3,2.290677221E-4
3.308197708E0,7.635590737E-5,-1.145338640E-3,2.290677221E-4
3.310623646E0,6.872031372E-4,-1.756185899E-3,8.399150101E-4
3.313049635E0,-5.344913807E-4,7.635590737E-5,8.399150101E-4
3.315475625E0,-1.145338640E-3,-5.344913807E-4,-1.603474026E-3
3.317901614E0,-1.145338640E-3,7.635590737E-5,2.290677221E-4
3.320327552E0,6.872031372E-4,1.298050396E-3,-3.817795368E-4
3.322753542E0,-1.145338640E-3,2.519744914E-3,8.399150101E-4
3.325179531E0,-5.344913807E-4,6.872031372E-4,-3.817795368E-4
3.327605521E0,6.872031372E-4,-1.145338640E-3,8.399150101E-4
3.330031510E0,6.872031372E-4,6.872031372E-4,1.450762269E-3
3.332457448E0,1.298050396E-3,-5.344913807E-4,2.290677221E-4
3.334883437E0,6.872031372E-4,7.635590737E-5,2.290677221E-4
3.337309427E0,7.635590737E-5,-1.145338640E-3,-9.926267667E-4
3.339735417E0,7.635590737E-5,-1.145338640E-3,-9.926267667E-4
3.342161354E0,7.635590737E-5,-5.344913807E-4,-9.926267667E-4
3.344587344E0,7.635590737E-5,7.635590737E-5,-3.817795368E-4
3.347013333E0,6.872031372E-4,-1.145338640E-3,2.290677221E-4
3.349439323E0,-5.344913807E-4,-1.756185899E-3,-1.603474026E-3
3.351865312E0,7.635590737E-5,1.298050396E-3,-3.817795368E-4
3.354291250E0,-5.344913807E-4,7.635590737E-5,-3.817795368E-4
3.356717239E0,-5.344913807E-4,-5.344913807E-4,8.399150101E-4
3.359143229E0,7.635590737E-5,-5.344913807E-4,-9.926267667E-4
3.361569219E0,6.872031372E-4,-5.344913807E-4,-3.817795368E-4
3.363995208E0,6.872031372E-4,-5.344913807E-4,-3.817795368E-4
3.366421146E0,1.298050396E-3,7.635590737E-5,-3.817795368E-4
3.368847135E0,2.519744914E-3,-1.756185899E-3,-3.817795368E-4
3.371273125E0,6.872031372E-4,6.872031372E-4,-9.926267667E-4
3.373699114E0,6.872031372E-4,7.635590737E-5,2.290677221E-4
3.376125052E0,-1.145338640E-3,-5.344913807E-4,8.399150101E-4
3.378551042E0,6.872031372E-4,6.872031372E-4,2.290677221E-4
3.380977031E0,1.298050396E-3,-1.145338640E-3,-9.926267667E-4
3.383403021E0,1.298050396E-3,7.635590737E-5,-3.817795368E-4
3.385829010E0,7.635590737E-5,-5.344913807E-4,2.290677221E-4
3.388254948E0,-1.145338640E-3,7.635590737E-5,2.290677221E-4
3.390680937E0,-5.344913807E-4,7.635590737E-5,2.290677221E-4
3.393106927E0,7.635590737E-5,-5.344913807E-4,8.399150101E-4
3.395532917E0,6.872031372E-4,-5.344913807E-4,-9.926267667E-4
3.397958854E0,7.635590737E-5,-5.344913807E-4,-2.214321401E-3
3.400384844E0,-5.344913807E-4,-5.344913807E-4,2.290677221E-4
3.402810833E0,-5.344913807E-4,-1.145338640E-3,8.399150101E-4
3.405236823E0,7.635590737E-5,1.298050396E-3,2.290677221E-4
3.407662812E0,-1.145338640E-3,7.635590737E-5,2.290677221E-4
3.410088750E0,7.635590737E-5,1.298050396E-3,-3.817795368E-4
3.412514739E0,7.635590737E-5,7.635590737E-5,2.290677221E-4
3.414940729E0,6.872031372E-4,-5.344913807E-4,8.399150101E-4
3.417366719E0,6.872031372E-4,1.908897655E-3,-3.817795368E-4
3.419792656E0,-5.344913807E-4,-5.344913807E-4,-3.817795368E-4
3.422218646E0,-1.145338640E-3,7.635590737E-5,-9.926267667E-4
3.424644635E0,-1.145338640E-3,7.635590737E-5,8.399150101E-4
3.427070625E0,7.635590737E-5,6.872031372E-4,-1.603474026E-3
3.429496562E0,1.298050396E-3,2.519744914E-3,2.290677221E-4
3.431922552E0,-5.344913807E-4,-5.344913807E-4,8.399150101E-4
3.434348542E0,-2.367033157E-3,6.872031372E-4,-3.817795368E-4
3.436774531E0,-5.344913807E-4,-1.756185899E-3,2.290677221E-4
3.439200521E0,1.298050396E-3,-5.344913807E-4,1.450762269E-3
3.441626458E0,7.635590737E-5,-5.344913807E-4,2.290677221E-4
3.444052448E0,-5.344913807E-4,6.872031372E-4,-3.817795368E-4
3.446478437E0,-5.344913807E-4,-5.344913807E-4,-3.817795368E-4
3.448904427E0,7.635590737E-5,7.635590737E-5,8.399150101E-4
3.451330417E0,-5.344913807E-4,7.635590737E-5,-3.817795368E-4
3.453756354E0,-1.145338640E-3,6.872031372E-4,8.399150101E-4
3.456182344E0,1.298050396E-3,7.635590737E-5,2.290677221E-4
3.458608333E0,6.872031372E-4,-5.344913807E-4,2.290677221E-4
3.461034323E0,7.635590737E-5,6.872031372E-4,2.290677221E-4
3.463460260E0,-1.756185899E-3,-5.344913807E-4,2.290677221E-4
3.465886250E0,7.635590737E-5,6.872031372E-4,-3.817795368E-4
3.468312239E0,6.872031372E-4,-1.145338640E-3,2.290677221E-4
3.470738229E0,7.635590737E-5,-1.145338640E-3,8.399150101E-4
3.473164219E0,-5.344913807E-4,7.635590737E-5,8.399150101E-4
3.475590156E0,-1.145338640E-3,7.635590737E-5,8.399150101E-4
3.478016146E0,-5.344913807E-4,1.298050396E-3,8.399150101E-4
3.480442135E0,6.872031372E-4,7.635590737E-5,2.290677221E-4
3.482868125E0,-5.344913807E-4,-1.145338640E-3,8.399150101E-4
3.485294062E0,1.298050396E-3,-5.344913807E-4,2.290677221E-4
3.487720052E0,7.635590737E-5,6.872031372E-4,8.399150101E-4
3.490146042E0,-5.344913807E-4,-1.145338640E-3,-3.817795368E-4
3.492572031E0,7.635590737E-5,-1.145338640E-3,-3.817795368E-4
3.494998021E0,-1.145338640E-3,6.872031372E-4,-3.817795368E-4
3.497423958E0,6.872031372E-4,-1.145338640E-3,8.399150101E-4
3.499849948E0,-5.344913807E-4,-5.344913807E-4,-3.817795368E-4
3.502275937E0,1.298050396E-3,-5.344913807E-4,-3.817795368E-4
3.504701927E0,1.298050396E-3,-5.344913807E-4,8.399150101E-4
3.507127864E0,7.635590737E-5,-5.344913807E-4,1.450762269E-3
3.509553854E0,7.635590737E-5,7.635590737E-5,8.399150101E-4
3.511979844E0,7.635590737E-5,-5.344913807E-4,2.290677221E-4
3.514405833E0,-5.344913807E-4,6.872031372E-4,2.290677221E-4
3.516831823E0,6.872031372E-4,7.635590737E-5,-3.817795368E-4
3.519257760E0,1.298050396E-3,7.635590737E-5,2.061609412E-3
3.521683750E0,1.908897655E-3,-1.145338640E-3,-3.817795368E-4
3.524109739E0,7.635590737E-5,6.872031372E-4,-3.817795368E-4
3.526535729E0,1.298050396E-3,-5.344913807E-4,-3.817795368E-4
3.528961719E0,6.872031372E-4,-5.344913807E-4,1.450762269E-3
3.531387656E0,7.635590737E-5,7.635590737E-5,2.290677221E-4
3.533813646E0,7.635590737E-5,6.872031372E-4,8.399150101E-4
3.536239635E0,1.298050396E-3,-5.344913807E-4,-9.926267667E-4
3.538665625E0,1.908897655E-3,7.635590737E-5,2.290677221E-4
3.541091562E0,7.635590737E-5,-5.344913807E-4,-9.926267667E-4
3.543517552E0,6.872031372E-4,1.298050396E-3,1.450762269E-3
3.545943542E0,7.635590737E-5,6.872031372E-4,-3.817795368E-4
3.548369531E0,7.635590737E-5,6.872031372E-4,-2.214321401E-3
3.550795521E0,7.635590737E-5,-5.344913807E-4,2.290677221E-4
3.553221458E0,1.298050396E-3,-5.344913807E-4,2.290677221E-4
3.555647448E0,6.872031372E-4,-1.756185899E-3,-3.817795368E-4
3.558073437E0,-1.756185899E-3,-5.344913807E-4,-3.817795368E-4
3.560499375E0,-5.344913807E-4,7.635590737E-5,8.399150101E-4
3.562925364E0,-1.756185899E-3,-5.344913807E-4,8.399150101E-4
3.565351354E0,7.635590737E-5,7.635590737E-5,1.450762269E-3
3.567777344E0,-1.145338640E-3,7.635590737E-5,8.399150101E-4
3.570203333E0,1.221694518E-3,-5.344913807E-4,-1.603474026E-3
3.572629271E0,6.108472589E-4,7.635590737E-5,2.290677221E-4
3.575055260E0,-6.108472589E-4,6.872031372E-4,-3.817795368E-4
3.577481250E0,0.000000000E0,7.635590737E-5,2.290677221E-4
3.579907239E0,-6.108472589E-4,-5.344913807E-4,-9.926267667E-4
3.582333229E0,0.000000000E0,2.519744914E-3,8.399150101E-4
3.584759167E0,-1.832541777E-3,7.635590737E-5,8.399150101E-4
3.587185156E0,1.221694518E-3,6.872031372E-4,1.450762269E-3
3.589611146E0,1.221694518E-3,2.519744914E-3,8.399150101E-4
3.592037135E0,-6.108472589E-4,6.872031372E-4,-3.817795368E-4
3.594463125E0,6.108472589E-4,-5.344913807E-4,2.061609412E-3
3.596889062E0,1.221694518E-3,7.635590737E-4,2.290677221E-4
3.599315052E0,6.108472589E-4,-4.581354442E-4,-3.817795368E-4
3.601741042E0,6.108472589E-4,-4.581354442E-4,-3.817795368E-4
3.604167031E0,-6.108472589E-4,1.527118147E-4,2.290677221E-4
3.606592969E0,-6.108472589E-4,-4.581354442E-4,-9.926267667E-4
3.609018958E0,-1.221694518E-3,-4.581354442E-4,2.290677221E-4
3.611444948E0,0.000000000E0,1.374406274E-3,8.399150101E-4
3.613870937E0,6.108472589E-4,7.635590737E-4,8.399150101E-4
3.616296927E0,0.000000000E0,-1.068982761E-3,-3.817795368E-4
3.618722864E0,0.000000000E0,-4.581354442E-4,1.450762269E-3
3.621148854E0,6.108472589E-4,1.527118147E-4,2.290677221E-4
3.623574844E0,-1.832541777E-3,1.374406274E-3,2.290677221E-4
3.626000833E0,-6.108472589E-4,-4.581354442E-4,2.290677221E-4
3.628426771E0,0.000000000E0,7.635590737E-4,-9.926267667E-4
3.630852760E0,6.108472589E-4,-1.068982761E-3,1.450762269E-3
3.633278750E0,-6.108472589E-4,-4.581354442E-4,2.290677221E-4
3.635704739E0,0.000000000E0,7.635590737E-4,8.399150101E-4
3.638130729E0,6.108472589E-4,-1.068982761E-3,-9.926267667E-4
3.640556667E0,-1.221694518E-3,-4.581354442E-4,2.290677221E-4
3.642982656E0,6.108472589E-4,1.527118147E-4,2.290677221E-4
3.645408646E0,-1.221694518E-3,2.596100792E-3,7.635590737E-4
3.647834635E0,0.000000000E0,1.527118147E-4,1.374406274E-3
3.650260625E0,6.108472589E-4,1.527118147E-4,-4.581354442E-4
3.652686562E0,0.000000000E0,7.635590737E-4,1.374406274E-3
3.655112552E0,-0.000000000E0,1.374406274E-3,1.527118147E-4
3.657538542E0,-0.000000000E0,1.527118147E-4,-4.581354442E-4
3.659964531E0,-0.000000000E0,1.374406274E-3,1.374406274E-3
3.662390469E0,6.108472589E-4,1.374406274E-3,-4.581354442E-4
3.664816458E0,-6.108472589E-4,-4.581354442E-4,1.527118147E-4
3.667242448E0,-0.000000000E0,-4.581354442E-4,7.635590737E-4
3.669668437E0,-6.108472589E-4,1.527118147E-4,1.527118147E-4
3.672094375E0,-0.000000000E0,1.527118147E-4,-4.581354442E-4
3.674520364E0,1.221694518E-3,1.374406274E-3,-1.068982761E-3
3.676946354E0,-1.221694518E-3,1.527118147E-4,-4.581354442E-4
3.679372344E0,-6.108472589E-4,7.635590737E-5,-4.581354442E-4
3.681798333E0,-6.108472589E-4,7.635590737E-5,1.527118147E-4
3.684224271E0,-1.221694518E-3,-1.145338640E-3,1.374406274E-3
3.686650260E0,-1.221694518E-3,7.635590737E-5,-4.581354442E-4
3.689076250E0,6.108472589E-4,-5.344913807E-4,1.527118147E-4
3.691502239E0,6.108472589E-4,7.635590737E-5,7.635590737E-4
3.693928229E0,1.221694518E-3,7.635590737E-5,1.374406274E-3
3.696354167E0,-1.221694518E-3,-1.145338640E-3,7.635590737E-4
3.698780156E0,-1.221694518E-3,7.635590737E-5,-4.581354442E-4
3.701206146E0,6.108472589E-4,6.872031372E-4,7.635590737E-4
3.703632135E0,1.221694518E-3,-5.344913807E-4,-4.581354442E-4
3.706058073E0,6.108472589E-4,1.908897655E-3,1.374406274E-3
3.708484062E0,-6.108472589E-4,6.872031372E-4,1.374406274E-3
3.710910052E0,-0.000000000E0,-5.344913807E-4,-4.581354442E-4
3.713336042E0,-6.108472589E-4,1.298050396E-3,-4.581354442E-4
3.715762031E0,-6.108472589E-4,-5.344913807E-4,7.635590737E-4
3.718187969E0,-0.000000000E0,7.635590737E-5,1.527118147E-4
3.720613958E0,1.221694518E-3,1.298050396E-3,1.527118147E-4
3.723039948E0,6.108472589E-4,6.872031372E-4,-1.068982761E-3
3.725465937E0,1.832541777E-3,7.635590737E-5,1.527118147E-4
3.727891927E0,6.108472589E-4,-5.344913807E-4,7.635590737E-4
3.730317864E0,6.108472589E-4,6.872031372E-4,1.527118147E-4
3.732743854E0,-0.000000000E0,7.635590737E-5,1.527118147E-4
3.735169844E0,-0.000000000E0,-5.344913807E-4,7.635590737E-4
3.737595833E0,-0.000000000E0,6.872031372E-4,1.374406274E-3
3.740021771E0,-0.000000000E0,6.872031372E-4,7.635590737E-4
3.742447760E0,-0.000000000E0,-5.344913807E-4,7.635590737E-5
3.744873750E0,-6.108472589E-4,7.635590737E-5,6.872031372E-4
3.747299739E0,1.221694518E-3,6.872031372E-4,7.635590737E-5
3.749725677E0,-6.108472589E-4,-5.344913807E-4,-5.344913807E-4
3.752151667E0,-0.000000000E0,6.872031372E-4,-1.145338640E-3
3.754577656E0,-0.000000000E0,7.635590737E-5,-1.145338640E-3
3.757003646E0,-0.000000000E0,-1.145338640E-3,-5.344913807E-4
3.759429635E0,-0.000000000E0,6.872031372E-4,7.635590737E-5
3.761855573E0,-6.108472589E-4,6.872031372E-4,-1.145338640E-3
3.764281562E0,1.832541777E-3,6.872031372E-4,-1.145338640E-3
3.766707552E0,6.108472589E-4,7.635590737E-5,7.635590737E-5
3.769133542E0,-6.108472589E-4,1.298050396E-3,6.872031372E-4
3.771559479E0,-0.000000000E0,1.908897655E-3,-1.145338640E-3
3.773985469E0,6.108472589E-4,7.635590737E-5,-5.344913807E-4
3.776411458E0,-0.000000000E0,7.635590737E-5,7.635590737E-5
3.778837448E0,-1.832541777E-3,-1.145338640E-3,7.635590737E-5
3.781263437E0,-0.000000000E0,-5.344913807E-4,6.872031372E-4
3.783689375E0,-0.000000000E0,7.635590737E-5,-1.756185899E-3
3.786115364E0,6.108472589E-4,-1.756185899E-3,7.635590737E-5
3.788541354E0,6.108472589E-4,7.635590737E-5,7.635590737E-5
3.790967344E0,-6.108472589E-4,-1.145338640E-3,6.872031372E-4
3.793393333E0,-0.000000000E0,6.872031372E-4,7.635590737E-5
3.795819271E0,6.108472589E-4,7.635590737E-5,-1.145338640E-3
3.798245260E0,-0.000000000E0,-5.344913807E-4,-5.344913807E-4
3.800671250E0,-0.000000000E0,-1.145338640E-3,-5.344913807E-4
3.803097239E0,6.108472589E-4,7.635590737E-5,6.872031372E-4
3.805523229E0,1.221694518E-3,-5.344913807E-4,-5.344913807E-4
3.807949167E0,-0.000000000E0,-5.344913807E-4,1.908897655E-3
3.810375156E0,-0.000000000E0,1.298050396E-3,6.872031372E-4
3.812801146E0,-0.000000000E0,-5.344913807E-4,7.635590737E-5
3.815227135E0,6.108472589E-4,-5.344913807E-4,-1.756185899E-3
3.817653073E0,6.108472589E-4,7.635590737E-5,-5.344913807E-4
3.820079062E0,-0.000000000E0,-6.108472589E-4,-5.344913807E-4
3.822505052E0,6.108472589E-4,-6.108472589E-4,-1.145338640E-3
3.824931042E0,6.108472589E-4,-6.108472589E-4,-1.756185899E-3
3.827357031E0,-0.000000000E0,6.108472589E-4,-1.145338640E-3
3.829782969E0,-1.221694518E-3,1.221694518E-3,-5.344913807E-4
3.832208958E0,-1.221694518E-3,0.000000000E0,-5.344913807E-4
3.834634948E0,6.108472589E-4,-6.108472589E-4,-5.344913807E-4
3.837060937E0,6.108472589E-4,-6.108472589E-4,6.872031372E-4
3.839486875E0,-0.000000000E0,0.000000000E0,6.872031372E-4
3.841912864E0,-0.000000000E0,-6.108472589E-4,-1.145338640E-3
3.844338854E0,-0.000000000E0,-6.108472589E-4,-1.145338640E-3
3.846764844E0,6.108472589E-4,-6.108472589E-4,1.298050396E-3
3.849190781E0,-6.108472589E-4,6.108472589E-4,6.872031372E-4
3.851616771E0,-1.832541777E-3,6.108472589E-4,1.298050396E-3
3.854042760E0,6.108472589E-4,0.000000000E0,7.635590737E-5
3.856468750E0,-0.000000000E0,-6.108472589E-4,-5.344913807E-4
3.858894739E0,-0.000000000E0,0.000000000E0,1.298050396E-3
3.861320677E0,-0.000000000E0,6.108472589E-4,7.635590737E-5
3.863746667E0,-0.000000000E0,-1.832541777E-3,-5.344913807E-4
3.866172656E0,-6.108472589E-4,0.000000000E0,6.872031372E-4
3.868598646E0,-1.221694518E-3,-6.108472589E-4,1.298050396E-3
3.871024635E0,-6.108472589E-4,0.000000000E0,-5.344913807E-4
3.873450573E0,-0.000000000E0,0.000000000E0,-5.344913807E-4
3.875876562E0,-6.108472589E-4,1.221694518E-3,1.298050396E-3
3.878302552E0,-0.000000000E0,0.000000000E0,7.635590737E-5
3.880728542E0,1.221694518E-3,1.221694518E-3,-1.145338640E-3
3.883154479E0,-6.108472589E-4,6.108472589E-4,6.872031372E-4
3.885580469E0,-6.108472589E-4,-6.108472589E-4,-1.145338640E-3
3.888006458E0,-1.221694518E-3,0.000000000E0,2.519744914E-3
3.890432448E0,-0.000000000E0,-6.108472589E-4,-5.344913807E-4
3.892858437E0,-6.108472589E-4,0.000000000E0,7.635590737E-5
3.895284375E0,-0.000000000E0,6.108472589E-4,7.635590737E-5
3.897710364E0,-0.000000000E0,1.221694518E-3,1.908897655E-3
3.900136354E0,-0.000000000E0,6.108472589E-4,7.635590737E-5
3.902562344E0,-0.000000000E0,-6.108472589E-4,6.872031372E-4
3.904988333E0,-6.108472589E-4,0.000000000E0,6.872031372E-4
3.907414271E0,6.108472589E-4,0.000000000E0,-5.344913807E-4
3.909840260E0,6.108472589E-4,0.000000000E0,6.872031372E-4
3.912266250E0,1.221694518E-3,0.000000000E0,-5.344913807E-4
3.914692239E0,-0.000000000E0,-6.108472589E-4,6.872031372E-4
3.917118177E0,-0.000000000E0,0.000000000E0,6.872031372E-4
3.919544167E0,6.108472589E-4,6.108472589E-4,-5.344913807E-4
3.921970156E0,6.108472589E-4,1.221694518E-3,-1.145338640E-3
3.924396146E0,-6.108472589E-4,1.221694518E-3,-1.145338640E-3
3.926822135E0,-0.000000000E0,-6.108472589E-4,-5.344913807E-4
3.929248073E0,-6.108472589E-4,6.108472589E-4,6.872031372E-4
3.931674062E0,-6.108472589E-4,-1.221694518E-3,6.872031372E-4
3.934100052E0,-1.221694518E-3,-1.221694518E-3,-1.756185899E-3
3.936526042E0,-6.108472589E-4,1.832541777E-3,7.635590737E-5
3.938951979E0,-0.000000000E0,6.108472589E-4,-1.145338640E-3
3.941377969E0,6.108472589E-4,-6.108472589E-4,6.872031372E-4
3.943803958E0,6.108472589E-4,-6.108472589E-4,7.635590737E-5
3.946229948E0,-6.108472589E-4,0.000000000E0,7.635590737E-5
3.948655937E0,-1.832541777E-3,0.000000000E0,-1.756185899E-3
3.951081875E0,6.108472589E-4,6.108472589E-4,-5.344913807E-4
3.953507864E0,6.108472589E-4,0.000000000E0,6.872031372E-4
3.955933854E0,-0.000000000E0,6.108472589E-4,-1.756185899E-3
3.958359844E0,-0.000000000E0,1.221694518E-3,6.872031372E-4
3.960785781E0,6.108472589E-4,6.108472589E-4,-5.344913807E-4
3.963211771E0,-6.108472589E-4,0.000000000E0,7.635590737E-5
3.965637760E0,-1.221694518E-3,-6.108472589E-4,-5.344913807E-4
3.968063750E0,-0.000000000E0,-6.108472589E-4,-5.344913807E-4
3.970489739E0,-0.000000000E0,-1.832541777E-3,7.635590737E-5
3.972915677E0,6.108472589E-4,-6.108472589E-4,6.872031372E-4
3.975341667E0,6.108472589E-4,0.000000000E0,7.635590737E-5
3.977767656E0,-6.108472589E-4,-1.221694518E-3,6.872031372E-4
3.980193646E0,-6.108472589E-4,-6.108472589E-4,-5.344913807E-4
3.982619583E0,-6.108472589E-4,6.108472589E-4,-1.145338640E-3
3.985045573E0,2.443389036E-3,0.000000000E0,-5.344913807E-4
3.987471562E0,1.221694518E-3,6.108472589E-4,7.635590737E-5
3.989897552E0,6.108472589E-4,6.108472589E-4,-5.344913807E-4
3.992323542E0,-6.108472589E-4,0.000000000E0,-5.344913807E-4
3.994749479E0,1.221694518E-3,-6.108472589E-4,-1.145338640E-3
3.997175469E0,-6.108472589E-4,-6.108472589E-4,7.635590737E-5
3.999601458E0,1.221694518E-3,-1.221694518E-3,6.872031372E-4
4.002027448E0,6.108472589E-4,6.108472589E-4,6.872031372E-4
4.004453437E0,-6.108472589E-4,0.000000000E0,-5.344913807E-4
4.006879375E0,-6.108472589E-4,-6.108472589E-4,1.298050396E-3
4.009305364E0,-1.221694518E-3,6.108472589E-4,-5.344913807E-4
4.011731354E0,-1.221694518E-3,-6.108472589E-4,7.635590737E-5
4.014157344E0,-0.000000000E0,6.108472589E-4,1.298050396E-3
4.016583281E0,6.108472589E-4,6.108472589E-4,7.635590737E-5
4.019009271E0,-0.000000000E0,6.108472589E-4,-5.344913807E-4
4.021435260E0,-0.000000000E0,1.221694518E-3,-5.344913807E-4
4.023861250E0,-0.000000000E0,1.221694518E-3,-5.344913807E-4
4.026287239E0,-0.000000000E0,-6.108472589E-4,7.635590737E-5
4.028713177E0,6.108472589E-4,0.000000000E0,7.635590737E-5
4.031139167E0,6.108472589E-4,6.108472589E-4,-1.145338640E-3
4.033565156E0,-6.108472589E-4,-6.108472589E-4,-5.344913807E-4
4.035991146E0,-1.221694518E-3,0.000000000E0,1.298050396E-3
4.038417083E0,-0.000000000E0,0.000000000E0,7.635590737E-5
4.040843073E0,-0.000000000E0,6.108472589E-4,-1.145338640E-3
4.043269062E0,6.108472589E-4,-6.108472589E-4,-1.145338640E-3
4.045695052E0,-1.221694518E-3,6.108472589E-4,6.872031372E-4
4.048121042E0,-1.221694518E-3,-1.221694518E-3,1.298050396E-3
4.050547031E0,-0.000000000E0,-6.108472589E-4,-5.344913807E-4
4.052972969E0,-6.108472589E-4,-1.832541777E-3,-5.344913807E-4
4.055398958E0,-6.108472589E-4,0.000000000E0,-1.145338640E-3
4.057824948E0,-1.221694518E-3,-1.221694518E-3,-5.344913807E-4
4.060250937E0,-1.221694518E-3,0.000000000E0,6.872031372E-4
4.062676875E0,-2.443389036E-3,6.108472589E-4,7.635590737E-5
4.065102864E0,-6.108472589E-4,6.108472589E-4,6.872031372E-4
4.067528854E0,-6.108472589E-4,0.000000000E0,7.635590737E-5
4.069954844E0,-0.000000000E0,6.108472589E-4,6.872031372E-4
4.072380781E0,1.221694518E-3,6.108472589E-4,6.872031372E-4
4.074806771E0,6.108472589E-4,1.832541777E-3,6.872031372E-4
4.077232760E0,6.108472589E-4,0.000000000E0,-5.344913807E-4
4.079658750E0,0.000000000E0,-6.108472589E-4,-1.145338640E-3
4.082084739E0,0.000000000E0,-1.221694518E-3,-1.145338640E-3
4.084510677E0,1.221694518E-3,1.221694518E-3,-5.344913807E-4
4.086936667E0,0.000000000E0,0.000000000E0,-5.344913807E-4
4.089362656E0,6.108472589E-4,0.000000000E0,-1.145338640E-3
4.091788646E0,-6.108472589E-4,-6.108472589E-4,-5.344913807E-4
4.094214635E0,6.108472589E-4,0.000000000E0,-5.344913807E-4
4.096640573E0,1.221694518E-3,6.108472589E-4,-5.344913807E-4
4.099066562E0,0.000000000E0,6.108472589E-4,-1.145338640E-3
4.101492552E0,-6.108472589E-4,6.108472589E-4,6.872031372E-4
4.103918542E0,0.000000000E0,-6.108472589E-4,7.635590737E-5
4.106344479E0,-6.108472589E-4,-1.221694518E-3,-5.344913807E-4
4.108770469E0,6.108472589E-4,0.000000000E0,-5.344913807E-4
4.111196458E0,0.000000000E0,-6.108472589E-4,-5.344913807E-4
4.113622448E0,-1.832541777E-3,1.221694518E-3,7.635590737E-5
4.116048437E0,-1.221694518E-3,-1.221694518E-3,-5.344913807E-4
4.118474375E0,0.000000000E0,0.000000000E0,-4.581354442E-4
4.120900364E0,-6.108472589E-4,6.108472589E-4,-1.679830020E-3
4.123326354E0,6.108472589E-4,0.000000000E0,-1.068982761E-3
4.125752344E0,6.108472589E-4,1.221694518E-3,-4.581354442E-4
4.128178281E0,-6.108472589E-4,6.108472589E-4,-1.068982761E-3
4.130604271E0,0.000000000E0,6.108472589E-4,1.527118147E-4
4.133030260E0,-6.108472589E-4,0.000000000E0,1.374406274E-3
4.135456250E0,-6.108472589E-4,0.000000000E0,1.527118147E-4
4.137882239E0,0.000000000E0,-1.221694518E-3,7.635590737E-4
4.140308177E0,-1.221694518E-3,0.000000000E0,1.527118147E-4
4.142734167E0,6.108472589E-4,-1.221694518E-3,1.527118147E-4
4.145160156E0,-6.108472589E-4,-0.000000000E0,-4.581354442E-4
4.147586146E0,0.000000000E0,-0.000000000E0,-4.581354442E-4
4.150012083E0,-6.108472589E-4,6.108472589E-4,1.527118147E-4
4.152438073E0,-1.221694518E-3,1.221694518E-3,1.527118147E-4
4.154864062E0,1.221694518E-3,-0.000000000E0,-1.068982761E-3
4.157290052E0,1.221694518E-3,1.221694518E-3,1.527118147E-4
4.159716042E0,6.108472589E-4,6.108472589E-4,7.635590737E-4
4.162141979E0,0.000000000E0,-0.000000000E0,1.527118147E-4
4.164567969E0,-5.344913807E-4,6.108472589E-4,-4.581354442E-4
4.166993958E0,7.635590737E-5,-0.000000000E0,1.985253533E-3
4.169419948E0,6.872031372E-4,-0.000000000E0,-1.068982761E-3
4.171845937E0,-5.344913807E-4,1.221694518E-3,-4.581354442E-4
4.174271875E0,-1.756185899E-3,-0.000000000E0,7.635590737E-4
4.176697864E0,-5.344913807E-4,-6.108472589E-4,1.527118147E-4
4.179123854E0,7.635590737E-5,-0.000000000E0,7.635590737E-4
4.181549844E0,7.635590737E-5,-6.108472589E-4,-1.068982761E-3
4.183975781E0,7.635590737E-5,-0.000000000E0,7.635590737E-4
4.186401771E0,6.872031372E-4,-0.000000000E0,1.527118147E-4
4.188827760E0,6.872031372E-4,-1.832541777E-3,-2.290677279E-3
4.191253750E0,-1.145338640E-3,-6.108472589E-4,-4.581354442E-4
4.193679739E0,-1.145338640E-3,-0.000000000E0,-1.679830020E-3
4.196105677E0,1.298050396E-3,-1.221694518E-3,1.527118147E-4
4.198531667E0,7.635590737E-5,-6.108472589E-4,-4.581354442E-4
4.200957656E0,6.872031372E-4,6.108472589E-4,-4.581354442E-4
4.203383646E0,6.872031372E-4,-0.000000000E0,7.635590737E-4
4.205809635E0,7.635590737E-5,1.221694518E-3,-4.581354442E-4
4.208235573E0,-1.756185899E-3,-6.108472589E-4,1.527118147E-4
4.210661562E0,7.635590737E-5,-6.108472589E-4,-4.581354442E-4
4.213087552E0,-2.367033157E-3,-6.108472589E-4,-4.581354442E-4
4.215513542E0,7.635590737E-5,-1.221694518E-3,-4.581354442E-4
4.217939479E0,7.635590737E-5,1.221694518E-3,-1.068982761E-3
4.220365469E0,6.872031372E-4,-0.000000000E0,-4.581354442E-4
4.222791458E0,-5.344913807E-4,6.108472589E-4,1.527118147E-4
4.225217448E0,6.872031372E-4,6.108472589E-4,1.527118147E-4
4.227643437E0,-5.344913807E-4,-0.000000000E0,1.527118147E-4
4.230069375E0,-1.145338640E-3,-6.108472589E-4,1.527118147E-4
4.232495364E0,6.872031372E-4,6.108472589E-4,-1.068982761E-3
4.234921354E0,6.872031372E-4,-0.000000000E0,-1.603474026E-3
4.237347344E0,6.872031372E-4,-0.000000000E0,2.290677221E-4
4.239773333E0,-5.344913807E-4,-6.108472589E-4,2.290677221E-4
4.242199271E0,-5.344913807E-4,-0.000000000E0,8.399150101E-4
4.244625260E0,-5.344913807E-4,6.108472589E-4,1.450762269E-3
4.247051250E0,7.635590737E-5,-0.000000000E0,2.290677221E-4
4.249477239E0,-5.344913807E-4,-0.000000000E0,2.290677221E-4
4.251903177E0,7.635590737E-5,-1.221694518E-3,-9.926267667E-4
4.254329167E0,6.872031372E-4,-6.108472589E-4,2.290677221E-4
4.256755156E0,6.872031372E-4,-0.000000000E0,-1.603474026E-3
4.259181146E0,7.635590737E-5,-1.221694518E-3,-3.817795368E-4
4.261607083E0,6.872031372E-4,6.108472589E-4,-3.817795368E-4
4.264033073E0,1.908897655E-3,-6.108472589E-4,-3.817795368E-4
4.266459062E0,6.872031372E-4,-6.108472589E-4,1.450762269E-3
4.268885052E0,6.872031372E-4,-6.108472589E-4,-3.817795368E-4
4.271311042E0,7.635590737E-5,1.832541777E-3,-9.926267667E-4
4.273736979E0,6.872031372E-4,-6.108472589E-4,-9.926267667E-4
4.276162969E0,-5.344913807E-4,-6.108472589E-4,-9.926267667E-4
4.278588958E0,7.635590737E-5,-1.221694518E-3,2.290677221E-4
4.281014948E0,-5.344913807E-4,1.221694518E-3,8.399150101E-4
4.283440937E0,-5.344913807E-4,1.832541777E-3,8.399150101E-4
4.285866875E0,7.635590737E-5,-0.000000000E0,2.290677221E-4
4.288292864E0,-5.344913807E-4,-0.000000000E0,-3.817795368E-4
4.290718854E0,7.635590737E-5,-6.108472589E-4,-3.817795368E-4
4.293144844E0,-5.344913807E-4,-6.108472589E-4,2.290677221E-4
4.295570833E0,7.635590737E-5,-0.000000000E0,8.399150101E-4
4.297996771E0,7.635590737E-5,6.108472589E-4,2.290677221E-4
4.300422760E0,-5.344913807E-4,-0.000000000E0,-9.926267667E-4
4.302848750E0,1.298050396E-3,-1.221694518E-3,-9.926267667E-4
4.305274739E0,1.298050396E-3,-1.832541777E-3,8.399150101E-4
4.307700677E0,6.872031372E-4,-1.221694518E-3,1.450762269E-3
4.310126667E0,6.872031372E-4,-2.443389036E-3,8.399150101E-4
4.312552656E0,1.298050396E-3,-0.000000000E0,2.290677221E-4
4.314978646E0,6.872031372E-4,-6.108472589E-4,-3.817795368E-4
4.317404635E0,-5.344913807E-4,-0.000000000E0,2.290677221E-4
4.319830573E0,6.872031372E-4,-1.832541777E-3,-3.817795368E-4
4.322256562E0,-5.344913807E-4,-6.108472589E-4,-3.817795368E-4
4.324682552E0,-5.344913807E-4,-0.000000000E0,2.290677221E-4
4.327108542E0,6.872031372E-4,6.108472589E-4,2.290677221E-4
4.329534479E0,6.872031372E-4,6.108472589E-4,8.399150101E-4
4.331960469E0,6.872031372E-4,-6.108472589E-4,-3.817795368E-4
4.334386458E0,6.872031372E-4,-6.108472589E-4,2.290677221E-4
4.336812448E0,1.298050396E-3,-6.108472589E-4,8.399150101E-4
4.339238437E0,6.872031372E-4,0.000000000E0,-3.817795368E-4
4.341664375E0,6.872031372E-4,1.221694518E-3,2.290677221E-4
4.344090364E0,7.635590737E-5,6.108472589E-4,8.399150101E-4
4.346516354E0,-5.344913807E-4,-1.221694518E-3,1.450762269E-3
4.348942344E0,-5.344913807E-4,-6.108472589E-4,2.290677221E-4
4.351368333E0,-5.344913807E-4,-6.108472589E-4,-3.054236295E-4
4.353794271E0,-5.344913807E-4,-1.221694518E-3,-3.054236295E-4
4.356220260E0,7.635590737E-5,-6.108472589E-4,-9.162708884E-4
4.358646250E0,-5.344913807E-4,-1.832541777E-3,9.162708884E-4
4.361072239E0,6.872031372E-4,6.108472589E-4,3.054236295E-4
4.363498229E0,1.298050396E-3,0.000000000E0,3.054236295E-4
4.365924167E0,7.635590737E-5,-6.108472589E-4,3.054236295E-4
4.368350156E0,7.635590737E-5,-6.108472589E-4,3.054236295E-4
4.370776146E0,1.298050396E-3,-6.108472589E-4,-3.054236295E-4
4.373202135E0,7.635590737E-5,6.108472589E-4,9.162708884E-4
4.375628073E0,6.872031372E-4,-6.108472589E-4,3.054236295E-4
4.378054062E0,7.635590737E-5,-1.832541777E-3,1.527118147E-3
4.380480052E0,-5.344913807E-4,-6.108472589E-4,-1.527118147E-3
4.382906042E0,7.635590737E-5,-6.108472589E-4,3.054236295E-4
4.385332031E0,-1.145338640E-3,-1.221694518E-3,9.162708884E-4
4.387757969E0,-5.344913807E-4,-6.108472589E-4,3.054236295E-4
4.390183958E0,6.872031372E-4,-5.344913807E-4,3.054236295E-4
4.392609948E0,6.872031372E-4,6.872031372E-4,-3.054236295E-4
4.395035937E0,6.872031372E-4,-5.344913807E-4,3.054236295E-4
4.397461875E0,6.872031372E-4,7.635590737E-5,-1.527118147E-3
4.399887864E0,-1.145338640E-3,6.872031372E-4,-3.054236295E-4
4.402313854E0,6.872031372E-4,-5.344913807E-4,3.054236295E-4
4.404739844E0,1.298050396E-3,7.635590737E-5,3.054236295E-4
4.407165833E0,1.298050396E-3,-5.344913807E-4,9.162708884E-4
4.409591771E0,-5.344913807E-4,6.872031372E-4,9.162708884E-4
4.412017760E0,7.635590737E-5,6.872031372E-4,9.162708884E-4
4.414443750E0,7.635590737E-5,6.872031372E-4,3.054236295E-4
4.416869739E0,7.635590737E-5,1.908897655E-3,9.162708884E-4
4.419295729E0,1.298050396E-3,-5.344913807E-4,3.054236295E-4
4.421721667E0,7.635590737E-5,7.635590737E-5,-3.054236295E-4
4.424147656E0,7.635590737E-5,7.635590737E-5,-9.926267667E-4
4.426573646E0,-1.145338640E-3,6.872031372E-4,1.450762269E-3
4.428999635E0,-2.367033157E-3,1.908897655E-3,-3.817795368E-4
4.431425573E0,-1.145338640E-3,7.635590737E-5,2.290677221E-4
4.433851562E0,7.635590737E-5,7.635590737E-5,2.061609412E-3
4.436277552E0,7.635590737E-5,6.872031372E-4,8.399150101E-4
4.438703542E0,-1.145338640E-3,6.872031372E-4,1.450762269E-3
4.441129479E0,-5.344913807E-4,-5.344913807E-4,8.399150101E-4
4.443555469E0,7.635590737E-5,1.298050396E-3,2.290677221E-4
4.445981458E0,0.000000000E0,-1.145338640E-3,-3.817795368E-4
4.448407448E0,-1.221694518E-3,7.635590737E-5,-3.817795368E-4
4.450833437E0,-6.108472589E-4,7.635590737E-5,-3.817795368E-4
4.453259427E0,-6.108472589E-4,1.298050396E-3,-1.603474026E-3
4.455685364E0,6.108472589E-4,-1.756185899E-3,-1.603474026E-3
4.458111354E0,0.000000000E0,-5.344913807E-4,2.290677221E-4
4.460537344E0,0.000000000E0,7.635590737E-5,8.399150101E-4
4.462963333E0,6.108472589E-4,-5.344913807E-4,2.290677221E-4
4.465389271E0,-6.108472589E-4,7.635590737E-5,-3.817795368E-4
4.467815260E0,0.000000000E0,-1.145338640E-3,-9.926267667E-4
4.470241250E0,6.108472589E-4,-4.581354442E-4,-9.926267667E-4
4.472667239E0,1.832541777E-3,-1.679830020E-3,8.399150101E-4
4.475093229E0,1.221694518E-3,7.635590737E-4,-3.817795368E-4
4.477519167E0,6.108472589E-4,-1.068982761E-3,2.290677221E-4
4.479945156E0,-6.108472589E-4,-4.581354442E-4,8.399150101E-4
4.482371146E0,0.000000000E0,-1.679830020E-3,2.290677221E-4
4.484797135E0,0.000000000E0,-4.581354442E-4,-3.817795368E-4
4.487223073E0,6.108472589E-4,1.374406274E-3,2.290677221E-4
4.489649062E0,0.000000000E0,1.527118147E-4,2.290677221E-4
4.492075052E0,-1.221694518E-3,-4.581354442E-4,2.290677221E-4
4.494501042E0,-6.108472589E-4,1.527118147E-4,2.290677221E-4
4.496927031E0,-6.108472589E-4,-1.068982761E-3,2.290677221E-4
4.499352969E0,-1.832541777E-3,7.635590737E-4,-9.926267667E-4
4.501778958E0,1.221694518E-3,-4.581354442E-4,1.450762269E-3
4.504204948E0,2.443389036E-3,1.374406274E-3,8.399150101E-4
4.506630937E0,1.832541777E-3,1.374406274E-3,2.290677221E-4
4.509056927E0,-1.221694518E-3,1.527118147E-4,2.290677221E-4
4.511482864E0,0.000000000E0,1.527118147E-4,2.290677221E-4
4.513908854E0,6.108472589E-4,7.635590737E-4,1.450762269E-3
4.516334844E0,-6.108472589E-4,7.635590737E-4,-9.926267667E-4
4.518760833E0,-6.108472589E-4,-4.581354442E-4,2.290677221E-4
4.521186771E0,6.108472589E-4,-1.068982761E-3,-3.817795368E-4
4.523612760E0,-6.108472589E-4,7.635590737E-4,-3.817795368E-4
4.526038750E0,1.221694518E-3,-1.068982761E-3,2.290677221E-4
4.528464739E0,1.832541777E-3,-4.581354442E-4,2.290677221E-4
4.530890729E0,-1.221694518E-3,1.374406274E-3,-3.817795368E-4
4.533316667E0,1.832541777E-3,-4.581354442E-4,-3.817795368E-4
4.535742656E0,0.000000000E0,-4.581354442E-4,-3.817795368E-4
4.538168646E0,0.000000000E0,1.527118147E-4,-3.817795368E-4
4.540594635E0,1.221694518E-3,1.527118147E-4,-3.817795368E-4
4.543020573E0,6.108472589E-4,7.635590737E-4,-9.926267667E-4
4.545446562E0,6.108472589E-4,-1.068982761E-3,2.290677221E-4
4.547872552E0,0.000000000E0,1.527118147E-4,1.450762269E-3
4.550298542E0,6.108472589E-4,-1.068982761E-3,2.290677221E-4
4.552724531E0,-6.108472589E-4,1.527118147E-4,-3.817795368E-4
4.555150521E0,1.832541777E-3,-4.581354442E-4,-3.817795368E-4
4.557576458E0,6.108472589E-4,1.527118147E-4,-1.603474026E-3
4.560002448E0,0.000000000E0,7.635590737E-4,2.290677221E-4
4.562428437E0,0.000000000E0,7.635590737E-4,-9.926267667E-4
4.564854375E0,0.000000000E0,1.527118147E-4,8.399150101E-4
4.567280364E0,-6.108472589E-4,-1.679830020E-3,2.290677221E-4
4.569706354E0,6.108472589E-4,-4.581354442E-4,2.290677221E-4
4.572132344E0,-6.108472589E-4,7.635590737E-4,8.399150101E-4
4.574558333E0,-6.108472589E-4,1.374406274E-3,-3.817795368E-4
4.576984271E0,-6.108472589E-4,-4.581354442E-4,-3.817795368E-4
4.579410260E0,-0.000000000E0,1.527118147E-4,2.290677221E-4
4.581836250E0,6.108472589E-4,7.635590737E-4,2.290677221E-4
4.584262239E0,6.108472589E-4,1.527118147E-4,2.290677221E-4
4.586688229E0,1.832541777E-3,-4.581354442E-4,8.399150101E-4
4.589114167E0,6.108472589E-4,-1.068982761E-3,-3.817795368E-4
4.591540156E0,-0.000000000E0,-4.581354442E-4,-9.926267667E-4
4.593966146E0,-0.000000000E0,7.635590737E-4,2.290677221E-4
4.596392135E0,-1.221694518E-3,1.527118147E-4,2.290677221E-4
4.598818125E0,1.221694518E-3,1.527118147E-4,2.290677221E-4
4.601244062E0,-6.108472589E-4,7.635590737E-4,2.290677221E-4
4.603670052E0,-6.108472589E-4,1.527118147E-4,-3.817795368E-4
4.606096042E0,1.221694518E-3,-4.581354442E-4,-9.926267667E-4
4.608522031E0,6.108472589E-4,1.527118147E-4,2.290677221E-4
4.610948021E0,6.108472589E-4,1.527118147E-4,8.399150101E-4
4.613373958E0,-6.108472589E-4,-1.068982761E-3,2.290677221E-4
4.615799948E0,-1.832541777E-3,1.527118147E-4,-3.817795368E-4
4.618225937E0,-0.000000000E0,7.635590737E-4,-3.817795368E-4
4.620651927E0,-0.000000000E0,-1.068982761E-3,-1.603474026E-3
4.623077864E0,-0.000000000E0,1.985253533E-3,-3.817795368E-4
4.625503854E0,-1.221694518E-3,1.374406274E-3,2.290677221E-4
4.627929844E0,-6.108472589E-4,-4.581354442E-4,-3.817795368E-4
4.630355833E0,-6.108472589E-4,1.527118147E-4,2.290677221E-4
4.632781823E0,5.344913807E-4,1.985253533E-3,2.290677221E-4
4.635207760E0,-7.635590737E-5,1.527118147E-4,-3.817795368E-4
4.637633750E0,-7.635590737E-5,1.527118147E-4,-3.817795368E-4
4.640059739E0,-7.635590737E-5,1.527118147E-4,-1.603474026E-3
4.642485729E0,-7.635590737E-5,-4.581354442E-4,8.399150101E-4
4.644911719E0,-6.872031372E-4,-4.581354442E-4,-3.817795368E-4
4.647337656E0,-6.872031372E-4,1.374406274E-3,8.399150101E-4
4.649763646E0,-6.872031372E-4,1.374406274E-3,-9.926267667E-4
4.652189635E0,-6.872031372E-4,-4.581354442E-4,2.290677221E-4
4.654615625E0,-7.635590737E-5,1.527118147E-4,2.290677221E-4
4.657041562E0,5.344913807E-4,7.635590737E-4,-3.817795368E-4
4.659467552E0,5.344913807E-4,-4.581354442E-4,8.399150101E-4
4.661893542E0,1.145338640E-3,7.635590737E-4,-3.817795368E-4
4.664319531E0,5.344913807E-4,1.527118147E-4,2.290677221E-4
4.666745521E0,-6.872031372E-4,1.527118147E-4,2.290677221E-4
4.669171458E0,5.344913807E-4,1.527118147E-4,8.399150101E-4
4.671597448E0,-6.872031372E-4,-1.068982761E-3,-3.817795368E-4
4.674023437E0,-1.298050396E-3,-1.068982761E-3,2.290677221E-4
4.676449427E0,-7.635590737E-5,1.527118147E-4,-9.926267667E-4
4.678875417E0,-1.908897655E-3,-1.068982761E-3,-3.817795368E-4
4.681301354E0,-6.872031372E-4,-1.068982761E-3,2.290677221E-4
4.683727344E0,-7.635590737E-5,-1.068982761E-3,8.399150101E-4
4.686153333E0,1.145338640E-3,7.635590737E-4,-9.926267667E-4
4.688579323E0,5.344913807E-4,-4.581354442E-4,-3.817795368E-4
4.691005260E0,5.344913807E-4,-1.068982761E-3,8.399150101E-4
4.693431250E0,-7.635590737E-5,7.635590737E-4,2.290677221E-4
4.695857239E0,-7.635590737E-5,-4.581354442E-4,-3.817795368E-4
4.698283229E0,-1.298050396E-3,1.527118147E-4,-3.817795368E-4
4.700709219E0,-7.635590737E-5,7.635590737E-4,-3.817795368E-4
4.703135156E0,5.344913807E-4,1.527118147E-4,8.399150101E-4
4.705561146E0,-1.298050396E-3,1.527118147E-4,2.290677221E-4
4.707987135E0,-1.298050396E-3,1.527118147E-4,8.399150101E-4
4.710413125E0,-7.635590737E-5,1.374406274E-3,1.450762269E-3
4.712839062E0,1.145338640E-3,1.985253533E-3,1.450762269E-3
4.715265052E0,-7.635590737E-5,-4.581354442E-4,2.290677221E-4
4.717691042E0,5.344913807E-4,7.635590737E-4,-3.817795368E-4
4.720117031E0,-7.635590737E-5,1.527118147E-4,2.290677221E-4
4.722543021E0,-6.872031372E-4,1.527118147E-4,8.399150101E-4
4.724968958E0,-6.872031372E-4,1.527118147E-4,8.399150101E-4
4.727394948E0,-1.298050396E-3,-4.581354442E-4,8.399150101E-4
4.729820937E0,-6.872031372E-4,1.527118147E-4,2.290677221E-4
4.732246927E0,-7.635590737E-5,7.635590737E-4,-3.817795368E-4
4.734672864E0,5.344913807E-4,1.374406274E-3,2.290677221E-4
4.737098854E0,-7.635590737E-5,7.635590737E-4,-9.926267667E-4
4.739524844E0,-6.872031372E-4,-1.068982761E-3,1.450762269E-3
4.741950833E0,-7.635590737E-5,-4.581354442E-4,2.290677221E-4
4.744376823E0,1.145338640E-3,1.527118147E-4,8.399150101E-4
4.746802812E0,-6.872031372E-4,1.374406274E-3,2.290677221E-4
4.749228750E0,-7.635590737E-5,-1.068982761E-3,-9.926267667E-4
4.751654739E0,-7.635590737E-5,-4.581354442E-4,8.399150101E-4
4.754080729E0,5.344913807E-4,1.527118147E-4,2.290677221E-4
4.756506719E0,-7.635590737E-5,-4.581354442E-4,-9.926267667E-4
4.758932656E0,-6.872031372E-4,-4.581354442E-4,8.399150101E-4
4.761358646E0,-1.908897655E-3,-1.068982761E-3,1.450762269E-3
4.763784635E0,-6.872031372E-4,-4.581354442E-4,1.450762269E-3
4.766210625E0,-7.635590737E-5,1.527118147E-4,2.290677221E-4
4.768636614E0,5.344913807E-4,1.527118147E-4,1.450762269E-3
4.771062552E0,-6.872031372E-4,1.527118147E-4,8.399150101E-4
4.773488542E0,-7.635590737E-5,7.635590737E-4,2.290677221E-4
4.775914531E0,5.344913807E-4,7.635590737E-4,-3.817795368E-4
4.778340521E0,-6.872031372E-4,2.596100792E-3,8.399150101E-4
4.780766510E0,-6.872031372E-4,1.527118147E-4,8.399150101E-4
4.783192448E0,1.145338640E-3,1.527118147E-4,1.450762269E-3
4.785618437E0,5.344913807E-4,1.985253533E-3,2.290677221E-4
4.788044427E0,-6.872031372E-4,1.527118147E-4,2.290677221E-4
4.790470417E0,5.344913807E-4,-4.581354442E-4,-3.817795368E-4
4.792896354E0,-7.635590737E-5,-1.068982761E-3,2.290677221E-4
4.795322344E0,-1.298050396E-3,-4.581354442E-4,2.290677221E-4
4.797748333E0,6.108472589E-4,-4.581354442E-4,-3.817795368E-4
4.800174323E0,-0.000000000E0,-4.581354442E-4,-3.817795368E-4
4.802600312E0,1.832541777E-3,-4.581354442E-4,-9.926267667E-4
4.805026250E0,-0.000000000E0,7.635590737E-4,-3.817795368E-4
4.807452239E0,-6.108472589E-4,1.374406274E-3,2.290677221E-4
4.809878229E0,-0.000000000E0,1.527118147E-4,1.527118147E-4
4.812304219E0,1.221694518E-3,7.635590737E-4,1.527118147E-4
4.814730156E0,6.108472589E-4,1.527118147E-4,7.635590737E-4
4.817156146E0,1.221694518E-3,1.527118147E-4,-1.068982761E-3
4.819582135E0,-0.000000000E0,1.527118147E-4,1.527118147E-4
4.822008125E0,6.108472589E-4,-4.581354442E-4,-4.581354442E-4
4.824434114E0,-6.108472589E-4,1.527118147E-4,1.527118147E-4
4.826860052E0,6.108472589E-4,1.527118147E-4,-4.581354442E-4
4.829286042E0,6.108472589E-4,7.635590737E-4,1.527118147E-4
4.831712031E0,1.221694518E-3,1.527118147E-4,-2.290677279E-3
4.834138021E0,6.108472589E-4,-5.344913807E-4,-1.068982761E-3
4.836563958E0,-6.108472589E-4,6.872031372E-4,1.374406274E-3
4.838989948E0,-0.000000000E0,7.635590737E-5,7.635590737E-4
4.841415937E0,6.108472589E-4,6.872031372E-4,1.527118147E-4
4.843841927E0,6.108472589E-4,7.635590737E-5,-1.068982761E-3
4.846267917E0,1.221694518E-3,7.635590737E-5,-1.679830020E-3
4.848693854E0,1.221694518E-3,7.635590737E-5,-4.581354442E-4
4.851119844E0,-0.000000000E0,6.872031372E-4,-1.679830020E-3
4.853545833E0,6.108472589E-4,-1.145338640E-3,-1.679830020E-3
4.855971823E0,-1.832541777E-3,6.872031372E-4,1.527118147E-4
4.858397812E0,-1.221694518E-3,-5.344913807E-4,1.527118147E-4
4.860823750E0,-6.108472589E-4,-5.344913807E-4,-4.581354442E-4
4.863249739E0,-1.832541777E-3,6.872031372E-4,-1.068982761E-3
4.865675729E0,-0.000000000E0,6.872031372E-4,-1.068982761E-3
4.868101719E0,-6.108472589E-4,7.635590737E-5,-4.581354442E-4
4.870527708E0,-1.221694518E-3,6.872031372E-4,-4.581354442E-4
4.872953646E0,-6.108472589E-4,6.872031372E-4,-4.581354442E-4
4.875379635E0,-6.108472589E-4,7.635590737E-5,-4.581354442E-4
4.877805625E0,-6.108472589E-4,6.872031372E-4,1.374406274E-3
4.880231614E0,-0.000000000E0,7.635590737E-5,-4.581354442E-4
4.882657604E0,-6.108472589E-4,6.872031372E-4,-1.068982761E-3
4.885083542E0,-0.000000000E0,6.872031372E-4,-4.581354442E-4
4.887509531E0,-6.108472589E-4,6.872031372E-4,7.635590737E-4
4.889935521E0,-0.000000000E0,6.872031372E-4,-4.581354442E-4
4.892361510E0,6.108472589E-4,6.872031372E-4,-4.581354442E-4
4.894787448E0,6.108472589E-4,7.635590737E-5,1.527118147E-4
4.897213437E0,1.221694518E-3,6.872031372E-4,7.635590737E-4
4.899639427E0,6.108472589E-4,7.635590737E-5,-4.581354442E-4
4.902065417E0,-0.000000000E0,6.872031372E-4,7.635590737E-4
4.904491354E0,1.221694518E-3,-1.145338640E-3,1.527118147E-4
4.906917344E0,-0.000000000E0,-1.145338640E-3,1.527118147E-4
4.909343333E0,-0.000000000E0,-5.344913807E-4,7.635590737E-4
4.911769323E0,-0.000000000E0,1.908897655E-3,7.635590737E-4
4.914195312E0,1.221694518E-3,-5.344913807E-4,-4.581354442E-4
4.916621250E0,-0.000000000E0,6.872031372E-4,-4.581354442E-4
4.919047239E0,-6.108472589E-4,-5.344913807E-4,-4.581354442E-4
4.921473229E0,-0.000000000E0,-5.344913807E-4,7.635590737E-4
