"Time (s)","Acceleration x (m/s^2)","Acceleration y (m/s^2)","Acceleration z (m/s^2)","Absolute acceleration (m/s^2)"
2.682480100E-2,-8.554340899E-2,-1.387837082E-1,-9.932906151E0,9.934243967E0
2.925063500E-2,-7.597211748E-2,-1.220339537E-1,-9.932906151E0,9.933946278E0
3.167652000E-2,-6.879365444E-2,-1.196411327E-1,-9.940084457E0,9.941042480E0
3.410240600E-2,-9.032905847E-2,-1.316052526E-1,-9.947262764E0,9.948543400E0
3.652829100E-2,-6.879365444E-2,-1.196411327E-1,-9.915857315E0,9.916817678E0
3.895417600E-2,-8.554340899E-2,-1.268195957E-1,-9.908679008E0,9.909859766E0
4.138001000E-2,-6.161518395E-2,-1.387837082E-1,-9.923035622E0,9.924197363E0
4.380589500E-2,-7.357929647E-2,-1.363908947E-1,-9.923035622E0,9.924245681E0
4.623178100E-2,-6.640082598E-2,-1.387837082E-1,-9.930213928E0,9.931405673E0
4.865766600E-2,-6.161518395E-2,-1.459621787E-1,-9.899106979E0,9.900374759E0
5.108355100E-2,-6.879365444E-2,-1.363908947E-1,-9.911071777E0,9.912248928E0
5.350938500E-2,-7.597211748E-2,-1.339980662E-1,-9.937691689E0,9.938885417E0
5.593527000E-2,-9.032905847E-2,-1.220339537E-1,-9.927821159E0,9.928982052E0
5.836115600E-2,-8.075776696E-2,-1.316052526E-1,-9.923035622E0,9.924236883E0
6.078704100E-2,-8.554340899E-2,-1.316052526E-1,-9.952048302E0,9.953286041E0
6.321292600E-2,-5.682953820E-2,-1.172483116E-1,-9.947262764E0,9.948116066E0
6.563876000E-2,-5.922235921E-2,-1.483550072E-1,-9.932906151E0,9.934190510E0
6.806464500E-2,-7.118647546E-2,-1.411765367E-1,-9.942477226E0,9.943734295E0
7.049053100E-2,-6.879365444E-2,-1.148554832E-1,-9.942477226E0,9.943378588E0
7.291641600E-2,-6.879365444E-2,-1.172483116E-1,-9.949655533E0,9.950584151E0
7.534230100E-2,-8.075776696E-2,-1.507478207E-1,-9.930213928E0,9.931686432E0
7.776813500E-2,-8.793623000E-2,-1.411765367E-1,-9.935298920E0,9.936691010E0
8.019402000E-2,-6.400800496E-2,-1.244267747E-1,-9.935298920E0,9.936284198E0
8.261990600E-2,-6.400800496E-2,-1.292124242E-1,-9.915857315E0,9.916905725E0
8.504579100E-2,-1.022931710E-1,-1.459621787E-1,-9.925428391E0,9.927028638E0
8.747167600E-2,-5.922235921E-2,-1.172483116E-1,-9.930213928E0,9.931082676E0
8.989751000E-2,-7.357929647E-2,-1.292124242E-1,-9.913464546E0,9.914579622E0
9.232339500E-2,-7.357929647E-2,-1.268195957E-1,-9.927821159E0,9.928903771E0
9.474928100E-2,-8.554340899E-2,-1.196411327E-1,-9.925428391E0,9.926518041E0
9.717516600E-2,-8.315058798E-2,-1.316052526E-1,-9.937691689E0,9.938910909E0
9.960105100E-2,-6.640082598E-2,-1.316052526E-1,-9.932906151E0,9.933999880E0
1.020268850E-1,-5.682953820E-2,-1.339980662E-1,-9.925428391E0,9.926495545E0
1.044527700E-1,-8.554340899E-2,-1.387837082E-1,-9.942477226E0,9.943813755E0
1.068786560E-1,-9.032905847E-2,-1.339980662E-1,-9.952048302E0,9.953360248E0
1.093045410E-1,-7.836493850E-2,-1.339980662E-1,-9.937691689E0,9.938903996E0
1.117304260E-1,-6.400800496E-2,-1.268195957E-1,-9.935298920E0,9.936314450E0
1.141562600E-1,-7.118647546E-2,-1.292124242E-1,-9.930213928E0,9.931309683E0
1.165821450E-1,-8.554340899E-2,-1.268195957E-1,-9.949655533E0,9.950831428E0
1.190080310E-1,-8.793623000E-2,-1.555334777E-1,-9.927821159E0,9.929428806E0
1.214339160E-1,-8.554340899E-2,-1.172483116E-1,-9.930213928E0,9.931274515E0
1.238598010E-1,-5.922235921E-2,-1.339980662E-1,-9.927821159E0,9.928902041E0
1.262856350E-1,-7.597211748E-2,-1.483550072E-1,-9.927821159E0,9.929220208E0
1.287115200E-1,-9.511470050E-2,-1.316052526E-1,-9.920642853E0,9.921971647E0
1.311374060E-1,-8.075776696E-2,-1.411765367E-1,-9.930213928E0,9.931545765E0
1.335632910E-1,-9.272187948E-2,-1.363908947E-1,-9.935298920E0,9.936667673E0
1.359891760E-1,-8.315058798E-2,-1.220339537E-1,-9.935298920E0,9.936396275E0
1.384150100E-1,-1.070788130E-1,-1.292124242E-1,-9.925428391E0,9.926846954E0
1.408408950E-1,-8.075776696E-2,-1.292124242E-1,-9.932906151E0,9.934074807E0
1.432667810E-1,-6.879365444E-2,-1.244267747E-1,-9.911071777E0,9.912091523E0
1.456926660E-1,-9.750752151E-2,-1.435693651E-1,-9.942477226E0,9.943991818E0
1.481185510E-1,-8.075776696E-2,-1.292124242E-1,-9.932906151E0,9.934074807E0
1.505443850E-1,-6.400800496E-2,-1.363908947E-1,-9.937691689E0,9.938833714E0
1.529702700E-1,-6.161518395E-2,-1.244267747E-1,-9.920642853E0,9.921614438E0
1.553961560E-1,-7.357929647E-2,-1.292124242E-1,-9.913464546E0,9.914579622E0
1.578220410E-1,-6.879365444E-2,-1.172483116E-1,-9.930213928E0,9.931144365E0
1.602479260E-1,-8.075776696E-2,-1.363908947E-1,-9.899106979E0,9.900375916E0
1.626737600E-1,-7.357929647E-2,-1.220339537E-1,-9.944869995E0,9.945890881E0
1.650996450E-1,-7.836493850E-2,-1.124626622E-1,-9.932906151E0,9.933851897E0
1.675255310E-1,-9.272187948E-2,-1.387837082E-1,-9.944869995E0,9.946270531E0
1.699514160E-1,-8.075776696E-2,-1.148554832E-1,-9.920642853E0,9.921636368E0
1.723773010E-1,-8.554340899E-2,-1.148554832E-1,-9.937691689E0,9.938723537E0
1.748031350E-1,-7.597211748E-2,-1.268195957E-1,-9.925428391E0,9.926529288E0
1.772290200E-1,-7.597211748E-2,-1.076770201E-1,-9.932906151E0,9.933780283E0
1.796549060E-1,-6.161518395E-2,-1.052841991E-1,-9.927821159E0,9.928570600E0
1.820807910E-1,-7.836493850E-2,-1.411765367E-1,-9.920642853E0,9.921956787E0
1.845066760E-1,-9.511470050E-2,-1.316052526E-1,-9.937691689E0,9.939018203E0
1.869325100E-1,-9.272187948E-2,-1.100698411E-1,-9.925428391E0,9.926471752E0
1.893583950E-1,-9.990034252E-2,-1.124626622E-1,-9.903892517E0,9.905034827E0
1.917842810E-1,-8.793623000E-2,-1.100698411E-1,-9.944869995E0,9.945867854E0
1.942101660E-1,-7.357929647E-2,-1.220339537E-1,-9.918250084E0,9.919273710E0
1.966360510E-1,-6.879365444E-2,-1.387837082E-1,-9.925428391E0,9.926637005E0
1.990618850E-1,-6.161518395E-2,-1.339980662E-1,-9.925428391E0,9.926524097E0
2.014877700E-1,-7.118647546E-2,-1.292124242E-1,-9.932906151E0,9.934001609E0
2.039136560E-1,-7.597211748E-2,-1.244267747E-1,-9.952048302E0,9.953116054E0
2.063395410E-1,-7.118647546E-2,-1.124626622E-1,-9.952048302E0,9.952938298E0
2.087654260E-1,-8.554340899E-2,-1.220339537E-1,-9.915857315E0,9.916977173E0
2.111912600E-1,-1.022931710E-1,-1.387837082E-1,-9.932906151E0,9.934402318E0
2.136171450E-1,-9.272187948E-2,-1.172483116E-1,-9.927821159E0,9.928946444E0
2.160430310E-1,-7.597211748E-2,-1.268195957E-1,-9.944869995E0,9.945968741E0
2.184689160E-1,-1.022931710E-1,-1.076770201E-1,-9.930213928E0,9.931324529E0
2.208948010E-1,-9.750752151E-2,-1.411765367E-1,-9.947262764E0,9.948742384E0
2.233206350E-1,-1.118644550E-1,-1.435693651E-1,-9.942477226E0,9.944142960E0
2.257465200E-1,-7.357929647E-2,-1.339980662E-1,-9.918250084E0,9.919428115E0
2.281724060E-1,-6.640082598E-2,-1.268195957E-1,-9.920642853E0,9.921675609E0
2.305982910E-1,-6.640082598E-2,-1.579262912E-1,-9.944869995E0,9.946345510E0
2.330241760E-1,-7.836493850E-2,-1.244267747E-1,-9.925428391E0,9.926517608E0
2.354500100E-1,-7.118647546E-2,-1.172483116E-1,-9.954441071E0,9.955386065E0
2.378758950E-1,-9.750752151E-2,-1.363908947E-1,-9.949655533E0,9.951068054E0
2.403017810E-1,-5.204389244E-2,-1.172483116E-1,-9.944869995E0,9.945697309E0
2.427276660E-1,-6.640082598E-2,-1.148554832E-1,-9.942477226E0,9.943362321E0
2.451535510E-1,-9.990034252E-2,-1.196411327E-1,-9.930213928E0,9.931437093E0
2.475793850E-1,-9.032905847E-2,-1.244267747E-1,-9.920642853E0,9.921834305E0
2.500052700E-1,-6.640082598E-2,-1.363908947E-1,-9.923035622E0,9.924195055E0
2.524311560E-1,-6.161518395E-2,-1.316052526E-1,-9.925428391E0,9.926492085E0
2.548570410E-1,-6.640082598E-2,-1.268195957E-1,-9.918250084E0,9.919283089E0
2.572829260E-1,-8.315058798E-2,-1.339980662E-1,-9.925428391E0,9.926681129E0
2.597087600E-1,-9.032905847E-2,-1.196411327E-1,-9.947262764E0,9.948392324E0
2.621346450E-1,-7.597211748E-2,-1.411765367E-1,-9.942477226E0,9.943769706E0
2.645605310E-1,-6.640082598E-2,-1.148554832E-1,-9.932906151E0,9.933792098E0
2.669864160E-1,-8.315058798E-2,-1.052841991E-1,-9.940084457E0,9.940989780E0
2.694123010E-1,-9.032905847E-2,-1.459621787E-1,-9.937691689E0,9.939174030E0
2.718381350E-1,-8.315058798E-2,-1.531406492E-1,-9.932906151E0,9.934434593E0
2.742640200E-1,-7.836493850E-2,-1.483550072E-1,-9.940084457E0,9.941500354E0
2.766899060E-1,-7.597211748E-2,-1.292124242E-1,-9.925428391E0,9.926560147E0
2.791157910E-1,-9.750752151E-2,-1.268195957E-1,-9.937691689E0,9.938979174E0
2.815416760E-1,-7.118647546E-2,-1.268195957E-1,-9.927821159E0,9.928886327E0
2.839675620E-1,-8.075776696E-2,-1.148554832E-1,-9.920642853E0,9.921636368E0
2.863933950E-1,-7.836493850E-2,-1.292124242E-1,-9.932906151E0,9.934055643E0
2.888192810E-1,-5.682953820E-2,-1.339980662E-1,-9.930213928E0,9.931280569E0
2.912451660E-1,-9.272187948E-2,-1.411765367E-1,-9.930213928E0,9.931650257E0
2.936710510E-1,-9.990034252E-2,-1.196411327E-1,-9.930213928E0,9.931437093E0
2.960969370E-1,-1.022931710E-1,-1.339980662E-1,-9.915857315E0,9.917290238E0
2.985227700E-1,-1.046859920E-1,-1.172483116E-1,-9.927821159E0,9.929065379E0
3.009486560E-1,-8.315058798E-2,-1.244267747E-1,-9.932906151E0,9.934033453E0
3.033745410E-1,-6.161518395E-2,-1.387837082E-1,-9.925428391E0,9.926589852E0
3.058004260E-1,-6.400800496E-2,-1.220339537E-1,-9.927821159E0,9.928777482E0
3.082262600E-1,-7.357929647E-2,-1.268195957E-1,-9.937691689E0,9.938773225E0
3.106521450E-1,-8.793623000E-2,-1.363908947E-1,-9.930213928E0,9.931539856E0
3.130780310E-1,-8.315058798E-2,-1.316052526E-1,-9.913464546E0,9.914686746E0
3.155039160E-1,-8.075776696E-2,-1.124626622E-1,-9.915857315E0,9.916823885E0
3.179298010E-1,-8.075776696E-2,-1.363908947E-1,-9.944869995E0,9.946133093E0
3.203556870E-1,-7.118647546E-2,-1.172483116E-1,-9.927821159E0,9.928768688E0
3.227815200E-1,-8.075776696E-2,-1.268195957E-1,-9.913464546E0,9.914604598E0
3.252074060E-1,-6.400800496E-2,-1.196411327E-1,-9.923035622E0,9.923963269E0
3.276332910E-1,-8.793623000E-2,-1.316052526E-1,-9.915857315E0,9.917120500E0
3.300591760E-1,-8.315058798E-2,-1.244267747E-1,-9.927821159E0,9.928949039E0
3.324850620E-1,-8.554340899E-2,-1.148554832E-1,-9.925428391E0,9.926461514E0
3.349108950E-1,-8.554340899E-2,-1.244267747E-1,-9.930213928E0,9.931361858E0
3.373367810E-1,-6.879365444E-2,-1.387837082E-1,-9.940084457E0,9.941291290E0
3.397626660E-1,-7.836493850E-2,-1.363908947E-1,-9.927821159E0,9.929067253E0
3.421885510E-1,-8.075776696E-2,-1.627119333E-1,-9.923035622E0,9.924698128E0
3.446144370E-1,-7.357929647E-2,-1.292124242E-1,-9.920642853E0,9.921757121E0
3.470402700E-1,-6.640082598E-2,-1.172483116E-1,-9.935298920E0,9.936212601E0
3.494661560E-1,-5.682953820E-2,-1.196411327E-1,-9.918250084E0,9.919134454E0
3.518920410E-1,-7.836493850E-2,-1.244267747E-1,-9.930213928E0,9.931302621E0
3.543179260E-1,-9.032905847E-2,-1.411765367E-1,-9.927821159E0,9.929235778E0
3.567438120E-1,-8.075776696E-2,-1.387837082E-1,-9.942477226E0,9.943773737E0
3.591696450E-1,-7.118647546E-2,-1.459621787E-1,-9.937691689E0,9.939018491E0
3.615955310E-1,-7.597211748E-2,-1.196411327E-1,-9.932906151E0,9.933917171E0
3.640214160E-1,-7.357929647E-2,-1.387837082E-1,-9.932906151E0,9.934148148E0
3.664473010E-1,-7.836493850E-2,-1.244267747E-1,-9.935298920E0,9.936387055E0
3.688731870E-1,-7.118647546E-2,-1.339980662E-1,-9.915857315E0,9.917018165E0
3.712990200E-1,-9.032905847E-2,-1.268195957E-1,-9.925428391E0,9.926649550E0
3.737249060E-1,-9.990034252E-2,-1.268195957E-1,-9.944869995E0,9.946180297E0
3.761507910E-1,-9.272187948E-2,-1.148554832E-1,-9.937691689E0,9.938787915E0
3.785766760E-1,-6.640082598E-2,-1.124626622E-1,-9.932906151E0,9.933764720E0
3.810025620E-1,-7.597211748E-2,-1.316052526E-1,-9.937691689E0,9.938853445E0
3.834283950E-1,-6.161518395E-2,-1.292124242E-1,-9.937691689E0,9.938722673E0
3.858542810E-1,-8.075776696E-2,-1.292124242E-1,-9.935298920E0,9.936467294E0
3.882801660E-1,-9.272187948E-2,-1.220339537E-1,-9.915857315E0,9.917041692E0
3.907060510E-1,-7.836493850E-2,-1.196411327E-1,-9.925428391E0,9.926458774E0
3.931319370E-1,-8.554340899E-2,-1.148554832E-1,-9.920642853E0,9.921676475E0
3.955577700E-1,-9.032905847E-2,-1.244267747E-1,-9.915857315E0,9.917049342E0
3.979836560E-1,-8.793623000E-2,-1.292124242E-1,-9.932906151E0,9.934135757E0
4.004095410E-1,-8.075776696E-2,-1.339980662E-1,-9.935298920E0,9.936530678E0
4.028354260E-1,-8.075776696E-2,-1.316052526E-1,-9.932906151E0,9.934106218E0
4.052613120E-1,-8.793623000E-2,-1.579262912E-1,-9.930213928E0,9.931858948E0
4.076871450E-1,-7.118647546E-2,-1.220339537E-1,-9.932906151E0,9.933910831E0
4.101130310E-1,-9.511470050E-2,-1.268195957E-1,-9.918250084E0,9.919516860E0
4.125389160E-1,-7.357929647E-2,-1.244267747E-1,-9.937691689E0,9.938742980E0
4.149648010E-1,-8.554340899E-2,-1.459621787E-1,-9.932906151E0,9.934346845E0
4.173906870E-1,-8.315058798E-2,-1.148554832E-1,-9.927821159E0,9.928833707E0
4.198165200E-1,-7.836493850E-2,-1.220339537E-1,-9.940084457E0,9.941142408E0
4.222424060E-1,-7.597211748E-2,-1.244267747E-1,-9.927821159E0,9.928891517E0
4.246682910E-1,-8.075776696E-2,-9.810572863E-2,-9.925428391E0,9.926241750E0
4.270941760E-1,-8.793623000E-2,-1.316052526E-1,-9.940084457E0,9.941344564E0
4.295200620E-1,-1.070788130E-1,-1.148554832E-1,-9.935298920E0,9.936539754E0
4.319458950E-1,-8.315058798E-2,-1.531406492E-1,-9.927821159E0,9.929350384E0
4.343717810E-1,-7.836493850E-2,-1.459621787E-1,-9.942477226E0,9.943857371E0
4.367976660E-1,-8.075776696E-2,-1.100698411E-1,-9.927821159E0,9.928759749E0
4.392235510E-1,-9.032905847E-2,-1.148554832E-1,-9.932906151E0,9.933980860E0
4.416494370E-1,-7.836493850E-2,-1.483550072E-1,-9.923035622E0,9.924453951E0
4.440752700E-1,-8.315058798E-2,-1.268195957E-1,-9.915857315E0,9.917016866E0
4.465011560E-1,-6.400800496E-2,-1.076770201E-1,-9.923035622E0,9.923826244E0
4.489270410E-1,-8.075776696E-2,-1.124626622E-1,-9.930213928E0,9.931179101E0
4.513529260E-1,-7.836493850E-2,-1.387837082E-1,-9.944869995E0,9.946147053E0
4.537788120E-1,-1.022931710E-1,-1.220339537E-1,-9.923035622E0,9.924313182E0
4.562046450E-1,-7.118647546E-2,-1.172483116E-1,-9.927821159E0,9.928768688E0
4.586305310E-1,-8.315058798E-2,-1.459621787E-1,-9.925428391E0,9.926849838E0
4.610564160E-1,-7.597211748E-2,-1.292124242E-1,-9.940084457E0,9.941214545E0
4.634823010E-1,-8.315058798E-2,-1.244267747E-1,-9.923035622E0,9.924164045E0
4.659081870E-1,-7.836493850E-2,-1.004985496E-1,-9.925428391E0,9.926246509E0
4.683340720E-1,-6.879365444E-2,-1.268195957E-1,-9.927821159E0,9.928869460E0
4.707599060E-1,-7.118647546E-2,-1.220339537E-1,-9.911071777E0,9.912078671E0
4.731857910E-1,-6.879365444E-2,-1.100698411E-1,-9.944869995E0,9.945717026E0
4.756116760E-1,-6.879365444E-2,-1.411765367E-1,-9.923035622E0,9.924278278E0
4.780375620E-1,-8.075776696E-2,-1.268195957E-1,-9.927821159E0,9.928959563E0
4.804634470E-1,-8.315058798E-2,-1.603191197E-1,-9.913464546E0,9.915109457E0
4.828892810E-1,-6.400800496E-2,-1.292124242E-1,-9.923035622E0,9.924083274E0
4.853151660E-1,-7.836493850E-2,-1.196411327E-1,-9.932906151E0,9.933935759E0
4.877410510E-1,-7.597211748E-2,-1.339980662E-1,-9.932906151E0,9.934100455E0
4.901669370E-1,-6.161518395E-2,-1.387837082E-1,-9.915857315E0,9.917019897E0
4.925928220E-1,-7.597211748E-2,-1.196411327E-1,-9.932906151E0,9.933917171E0
4.950186560E-1,-1.094716340E-1,-1.124626622E-1,-9.940084457E0,9.941323398E0
4.974445410E-1,-7.118647546E-2,-1.363908947E-1,-9.915857315E0,9.917050786E0
4.998704260E-1,-5.682953820E-2,-1.292124242E-1,-9.908679008E0,9.909684412E0
5.022963120E-1,-7.836493850E-2,-1.052841991E-1,-9.911071777E0,9.911940759E0
5.047221970E-1,-9.990034252E-2,-1.244267747E-1,-9.935298920E0,9.936580233E0
5.071480310E-1,-8.793623000E-2,-1.196411327E-1,-9.901499748E0,9.902612991E0
5.095739160E-1,-6.879365444E-2,-1.244267747E-1,-9.935298920E0,9.936316179E0
5.119998010E-1,-8.315058798E-2,-1.387837082E-1,-9.942477226E0,9.943793458E0
5.144256870E-1,-9.511470050E-2,-1.268195957E-1,-9.930213928E0,9.931479179E0
5.168515720E-1,-8.075776696E-2,-1.292124242E-1,-9.930213928E0,9.931382901E0
5.192774060E-1,-7.836493850E-2,-1.292124242E-1,-9.927821159E0,9.928971240E0
5.217032910E-1,-8.315058798E-2,-1.363908947E-1,-9.942477226E0,9.943760350E0
5.241291760E-1,-9.511470050E-2,-1.244267747E-1,-9.937691689E0,9.938925743E0
5.265550620E-1,-8.793623000E-2,-1.316052526E-1,-9.930213928E0,9.931475287E0
5.289809470E-1,-8.075776696E-2,-1.244267747E-1,-9.901499748E0,9.902610823E0
5.314067810E-1,-8.793623000E-2,-1.603191197E-1,-9.918250084E0,9.919935470E0
5.338326660E-1,-8.554340899E-2,-1.363908947E-1,-9.930213928E0,9.931518958E0
5.362585510E-1,-8.075776696E-2,-1.435693651E-1,-9.942477226E0,9.943841681E0
5.386844370E-1,-8.315058798E-2,-1.483550072E-1,-9.932906151E0,9.934361974E0
5.411103220E-1,-7.597211748E-2,-1.244267747E-1,-9.944869995E0,9.945938518E0
5.435361560E-1,-8.793623000E-2,-1.100698411E-1,-9.918250084E0,9.919250621E0
5.459620410E-1,-1.022931710E-1,-1.316052526E-1,-9.918250084E0,9.919650627E0
5.483879260E-1,-6.640082598E-2,-1.339980662E-1,-9.915857315E0,9.916984967E0
5.508138120E-1,-7.836493850E-2,-1.363908947E-1,-9.925428391E0,9.926674784E0
5.532396970E-1,-8.315058798E-2,-1.244267747E-1,-9.923035622E0,9.924164045E0
5.556655310E-1,-6.879365444E-2,-1.387837082E-1,-9.927821159E0,9.929029482E0
5.580914160E-1,-7.118647546E-2,-1.411765367E-1,-9.925428391E0,9.926687618E0
5.605173010E-1,-8.315058798E-2,-1.387837082E-1,-9.932906151E0,9.934223651E0
5.629431870E-1,-7.118647546E-2,-1.292124242E-1,-9.930213928E0,9.931309683E0
5.653690720E-1,-7.357929647E-2,-1.363908947E-1,-9.925428391E0,9.926638158E0
5.677949060E-1,-8.075776696E-2,-8.853443712E-2,-9.940084457E0,9.940806767E0
5.702207910E-1,-6.640082598E-2,-1.363908947E-1,-9.944869995E0,9.946026883E0
5.726466760E-1,-6.640082598E-2,-1.292124242E-1,-9.927821159E0,9.928884020E0
5.750725620E-1,-9.990034252E-2,-1.244267747E-1,-9.930213928E0,9.931495897E0
5.774984470E-1,-7.836493850E-2,-1.387837082E-1,-9.918250084E0,9.919530569E0
5.799243330E-1,-4.965107143E-2,-1.268195957E-1,-9.927821159E0,9.928755280E0
5.823501660E-1,-8.075776696E-2,-1.292124242E-1,-9.947262764E0,9.948429734E0
5.847760510E-1,-7.597211748E-2,-1.387837082E-1,-9.927821159E0,9.929081813E0
5.872019370E-1,-6.161518395E-2,-1.124626622E-1,-9.932906151E0,9.933733884E0
5.896278220E-1,-5.443671346E-2,-1.148554832E-1,-9.947262764E0,9.948074770E0
5.920537080E-1,-6.400800496E-2,-1.172483116E-1,-9.923035622E0,9.923934711E0
5.944795410E-1,-5.443671346E-2,-1.339980662E-1,-9.937691689E0,9.938744133E0
5.969054260E-1,-8.793623000E-2,-1.387837082E-1,-9.927821159E0,9.929180564E0
5.993313120E-1,-7.118647546E-2,-1.244267747E-1,-9.937691689E0,9.938725554E0
6.017571970E-1,-7.118647546E-2,-1.411765367E-1,-9.923035622E0,9.924295153E0
6.041830830E-1,-5.682953820E-2,-1.339980662E-1,-9.932906151E0,9.933972502E0
6.066089160E-1,-7.118647546E-2,-1.316052526E-1,-9.944869995E0,9.945995510E0
6.090348010E-1,-8.315058798E-2,-1.268195957E-1,-9.949655533E0,9.950811145E0
6.114606870E-1,-1.310070455E-1,-1.268195957E-1,-9.937691689E0,9.939364273E0
6.138865720E-1,-9.511470050E-2,-1.220339537E-1,-9.930213928E0,9.931419221E0
6.163124580E-1,-8.793623000E-2,-1.148554832E-1,-9.932906151E0,9.933959390E0
6.187382910E-1,-1.022931710E-1,-1.220339537E-1,-9.923035622E0,9.924313182E0
6.211641760E-1,-7.597211748E-2,-1.196411327E-1,-9.932906151E0,9.933917171E0
6.235900620E-1,-8.554340899E-2,-1.316052526E-1,-9.932906151E0,9.934146275E0
6.260159470E-1,-6.161518395E-2,-1.363908947E-1,-9.923035622E0,9.924164189E0
6.284418330E-1,-9.032905847E-2,-1.196411327E-1,-9.920642853E0,9.921775444E0
6.308676660E-1,-8.075776696E-2,-1.339980662E-1,-9.947262764E0,9.948493041E0
6.332935510E-1,-7.118647546E-2,-1.411765367E-1,-9.940084457E0,9.941341828E0
6.357194370E-1,-7.597211748E-2,-1.435693651E-1,-9.935298920E0,9.936626618E0
6.381453220E-1,-6.640082598E-2,-1.316052526E-1,-9.940084457E0,9.941177397E0
6.405712080E-1,-5.922235921E-2,-1.076770201E-1,-9.930213928E0,9.930974287E0
6.429970410E-1,-7.836493850E-2,-1.124626622E-1,-9.949655533E0,9.950599687E0
6.454229260E-1,-8.075776696E-2,-1.244267747E-1,-9.925428391E0,9.926536787E0
6.478488120E-1,-7.836493850E-2,-1.268195957E-1,-9.930213928E0,9.931332888E0
6.502746970E-1,-5.922235921E-2,-1.124626622E-1,-9.918250084E0,9.919064465E0
6.527005830E-1,-8.315058798E-2,-1.196411327E-1,-9.915857315E0,9.916927665E0
6.551264160E-1,-8.793623000E-2,-1.507478207E-1,-9.925428391E0,9.926962598E0
6.575523010E-1,-7.357929647E-2,-1.555334777E-1,-9.930213928E0,9.931704448E0
6.599781870E-1,-7.597211748E-2,-1.435693651E-1,-9.923035622E0,9.924364961E0
6.624040720E-1,-9.511470050E-2,-1.411765367E-1,-9.918250084E0,9.919710800E0
6.648299580E-1,-8.315058798E-2,-1.124626622E-1,-9.923035622E0,9.924021252E0
6.672557910E-1,-6.879365444E-2,-1.363908947E-1,-9.932906151E0,9.934080715E0
6.696816760E-1,-6.640082598E-2,-1.316052526E-1,-9.937691689E0,9.938784891E0
6.721075620E-1,-7.836493850E-2,-1.339980662E-1,-9.915857315E0,9.917072292E0
6.745334470E-1,-9.272187948E-2,-1.244267747E-1,-9.930213928E0,9.931426284E0
6.769593330E-1,-1.022931710E-1,-1.268195957E-1,-9.942477226E0,9.943812171E0
6.793851660E-1,-7.118647546E-2,-1.268195957E-1,-9.956833839E0,9.957895904E0
6.818110510E-1,-6.400800496E-2,-1.268195957E-1,-9.927821159E0,9.928837455E0
6.842369370E-1,-7.836493850E-2,-1.483550072E-1,-9.930213928E0,9.931631232E0
6.866628220E-1,-7.597211748E-2,-1.292124242E-1,-9.940084457E0,9.941214545E0
6.890887080E-1,-4.965107143E-2,-1.292124242E-1,-9.940084457E0,9.941048239E0
6.915145930E-1,-7.597211748E-2,-1.411765367E-1,-9.918250084E0,9.919545721E0
6.939404260E-1,-5.443671346E-2,-1.100698411E-1,-9.923035622E0,9.923795376E0
6.963663120E-1,-7.118647546E-2,-1.124626622E-1,-9.937691689E0,9.938582970E0
6.987921970E-1,-8.315058798E-2,-1.435693651E-1,-9.932906151E0,9.934291660E0
7.012180830E-1,-7.357929647E-2,-1.339980662E-1,-9.925428391E0,9.926605569E0
7.036439680E-1,-9.272187948E-2,-1.292124242E-1,-9.935298920E0,9.936571734E0
7.060698010E-1,-9.272187948E-2,-1.363908947E-1,-9.930213928E0,9.931583382E0
7.084956870E-1,-7.118647546E-2,-1.292124242E-1,-9.935298920E0,9.936394114E0
7.109215720E-1,-8.554340899E-2,-1.148554832E-1,-9.935298920E0,9.936331017E0
7.133474580E-1,-1.046859920E-1,-1.411765367E-1,-9.930213928E0,9.931769159E0
7.157733430E-1,-6.879365444E-2,-1.459621787E-1,-9.937691689E0,9.939001641E0
7.181991760E-1,-9.750752151E-2,-1.268195957E-1,-9.920642853E0,9.921932551E0
7.206250620E-1,-8.554340899E-2,-1.148554832E-1,-9.918250084E0,9.919283955E0
7.230509470E-1,-8.315058798E-2,-1.172483116E-1,-9.915857315E0,9.916899086E0
7.254768330E-1,-6.640082598E-2,-1.052841991E-1,-9.930213928E0,9.930994033E0
7.279027180E-1,-6.400800496E-2,-1.052841991E-1,-9.927821159E0,9.928585738E0
7.303285510E-1,-8.315058798E-2,-1.100698411E-1,-9.956833839E0,9.957789388E0
7.327544370E-1,-8.315058798E-2,-1.435693651E-1,-9.927821159E0,9.929207378E0
7.351803220E-1,-9.032905847E-2,-1.292124242E-1,-9.920642853E0,9.921895474E0
7.376062080E-1,-7.597211748E-2,-1.148554832E-1,-9.935298920E0,9.936253226E0
7.400320930E-1,-5.682953820E-2,-1.244267747E-1,-9.930213928E0,9.931156039E0
7.424579260E-1,-4.486542568E-2,-1.387837082E-1,-9.932906151E0,9.933976969E0
7.448838120E-1,-6.161518395E-2,-1.459621787E-1,-9.918250084E0,9.919515417E0
7.473096970E-1,-8.793623000E-2,-1.339980662E-1,-9.923035622E0,9.924329912E0
7.497355830E-1,-9.272187948E-2,-1.220339537E-1,-9.923035622E0,9.924219142E0
7.521614680E-1,-7.118647546E-2,-1.268195957E-1,-9.915857315E0,9.916923768E0
7.545873010E-1,-7.597211748E-2,-1.244267747E-1,-9.925428391E0,9.926499006E0
7.570131870E-1,-6.161518395E-2,-1.411765367E-1,-9.927821159E0,9.929016075E0
7.594390720E-1,-6.161518395E-2,-1.387837082E-1,-9.940084457E0,9.941244206E0
7.618649580E-1,-7.836493850E-2,-1.339980662E-1,-9.935298920E0,9.936511519E0
7.642908430E-1,-8.793623000E-2,-1.268195957E-1,-9.932906151E0,9.934104921E0
7.667167280E-1,-8.075776696E-2,-1.411765367E-1,-9.925428391E0,9.926760870E0
7.691425620E-1,-6.400800496E-2,-1.387837082E-1,-9.918250084E0,9.919427537E0
7.715684470E-1,-8.315058798E-2,-1.411765367E-1,-9.937691689E0,9.939042254E0
7.739943330E-1,-7.597211748E-2,-1.292124242E-1,-9.935298920E0,9.936429552E0
7.764202180E-1,-8.315058798E-2,-1.196411327E-1,-9.927821159E0,9.928890220E0
7.788461030E-1,-6.400800496E-2,-1.268195957E-1,-9.952048302E0,9.953062123E0
7.812719370E-1,-8.554340899E-2,-1.292124242E-1,-9.940084457E0,9.941292298E0
7.836978220E-1,-8.554340899E-2,-1.172483116E-1,-9.942477226E0,9.943536505E0
7.861237080E-1,-8.554340899E-2,-1.124626622E-1,-9.942477226E0,9.943481227E0
7.885495930E-1,-6.640082598E-2,-1.316052526E-1,-9.952048302E0,9.953139927E0
7.909754780E-1,-7.836493850E-2,-1.292124242E-1,-9.923035622E0,9.924186257E0
7.934013120E-1,-8.315058798E-2,-1.172483116E-1,-9.930213928E0,9.931254193E0
7.958271970E-1,-8.075776696E-2,-1.292124242E-1,-9.918250084E0,9.919420467E0
7.982530830E-1,-5.682953820E-2,-1.555334777E-1,-9.937691689E0,9.939071202E0
8.006789680E-1,-4.486542568E-2,-1.172483116E-1,-9.927821159E0,9.928614860E0
8.031048530E-1,-8.315058798E-2,-1.148554832E-1,-9.927821159E0,9.928833707E0
8.055306870E-1,-7.836493850E-2,-1.316052526E-1,-9.927821159E0,9.929002668E0
8.079565720E-1,-6.640082598E-2,-1.387837082E-1,-9.915857315E0,9.917050785E0
8.103824580E-1,-7.357929647E-2,-1.411765367E-1,-9.882357597E0,9.883639836E0
8.128083430E-1,-9.990034252E-2,-1.268195957E-1,-9.913464546E0,9.914778999E0
8.152342280E-1,-7.836493850E-2,-1.316052526E-1,-9.942477226E0,9.943656993E0
8.176601140E-1,-7.118647546E-2,-1.196411327E-1,-9.927821159E0,9.928797233E0
8.200859470E-1,-8.554340899E-2,-1.483550072E-1,-9.915857315E0,9.917335992E0
8.225118330E-1,-8.075776696E-2,-1.268195957E-1,-9.894321442E0,9.895463699E0
8.249377180E-1,-7.597211748E-2,-1.148554832E-1,-9.927821159E0,9.928776184E0
8.273636030E-1,-1.070788130E-1,-1.268195957E-1,-9.911071777E0,9.912461493E0
8.297894890E-1,-1.142572835E-1,-1.244267747E-1,-9.947262764E0,9.948697063E0
8.322153220E-1,-8.315058798E-2,-1.196411327E-1,-9.930213928E0,9.931282731E0
8.346412080E-1,-7.118647546E-2,-1.196411327E-1,-9.952048302E0,9.953021999E0
8.370670930E-1,-6.400800496E-2,-1.172483116E-1,-9.935298920E0,9.936196899E0
8.394929780E-1,-8.793623000E-2,-1.244267747E-1,-9.918250084E0,9.919420322E0
8.419188640E-1,-9.511470050E-2,-1.651047617E-1,-9.923035622E0,9.924864852E0
8.443446970E-1,-6.640082598E-2,-1.268195957E-1,-9.923035622E0,9.924068129E0
8.467705830E-1,-9.750752151E-2,-1.339980662E-1,-9.918250084E0,9.919634465E0
8.491964680E-1,-7.836493850E-2,-1.339980662E-1,-9.920642853E0,9.921857243E0
8.516223530E-1,-9.511470050E-2,-1.531406492E-1,-9.918250084E0,9.919888285E0
8.540482390E-1,-5.922235921E-2,-1.483550072E-1,-9.923035622E0,9.924321259E0
8.564740720E-1,-7.118647546E-2,-1.483550072E-1,-9.944869995E0,9.946231243E0
8.588999580E-1,-6.640082598E-2,-1.459621787E-1,-9.925428391E0,9.926723667E0
8.613258430E-1,-8.554340899E-2,-1.316052526E-1,-9.930213928E0,9.931454389E0
8.637517280E-1,-1.094716340E-1,-1.244267747E-1,-9.925428391E0,9.926811915E0
8.661776140E-1,-9.511470050E-2,-1.339980662E-1,-9.927821159E0,9.929180996E0
8.686034470E-1,-8.793623000E-2,-1.244267747E-1,-9.927821159E0,9.928990270E0
8.710293330E-1,-6.400800496E-2,-1.100698411E-1,-9.930213928E0,9.931030211E0
8.734552180E-1,-9.272187948E-2,-1.268195957E-1,-9.923035622E0,9.924279143E0
8.758811030E-1,-8.793623000E-2,-1.292124242E-1,-9.923035622E0,9.924266450E0
8.783069890E-1,-6.400800496E-2,-1.316052526E-1,-9.930213928E0,9.931292244E0
8.807328740E-1,-9.511470050E-2,-1.244267747E-1,-9.930213928E0,9.931448912E0
8.831587080E-1,-6.640082598E-2,-1.339980662E-1,-9.925428391E0,9.926554956E0
8.855845930E-1,-7.836493850E-2,-1.411765367E-1,-9.915857315E0,9.917171884E0
8.880104780E-1,-7.118647546E-2,-1.483550072E-1,-9.901499748E0,9.902866958E0
8.904363640E-1,-9.272187948E-2,-1.363908947E-1,-9.935298920E0,9.936667673E0
8.928622490E-1,-6.400800496E-2,-1.244267747E-1,-9.903892517E0,9.904880920E0
8.952880830E-1,-6.640082598E-2,-1.339980662E-1,-9.937691689E0,9.938816864E0
8.977139680E-1,-9.750752151E-2,-1.507478207E-1,-9.927821159E0,9.929444375E0
9.001398530E-1,-7.357929647E-2,-1.292124242E-1,-9.942477226E0,9.943589048E0
9.025657390E-1,-9.990034252E-2,-1.076770201E-1,-9.947262764E0,9.948347145E0
9.049916240E-1,-7.118647546E-2,-1.244267747E-1,-9.915857315E0,9.916893457E0
9.074174580E-1,-6.161518395E-2,-1.363908947E-1,-9.925428391E0,9.926556686E0
9.098433430E-1,-7.836493850E-2,-1.292124242E-1,-9.940084457E0,9.941233119E0
9.122692280E-1,-7.357929647E-2,-1.316052526E-1,-9.956833839E0,9.957975395E0
9.146951140E-1,-6.400800496E-2,-1.435693651E-1,-9.940084457E0,9.941327286E0
9.171209990E-1,-6.161518395E-2,-1.483550072E-1,-9.920642853E0,9.921943371E0
9.195468850E-1,-9.750752151E-2,-1.459621787E-1,-9.911071777E0,9.912626113E0
9.219727180E-1,-7.836493850E-2,-1.268195957E-1,-9.913464546E0,9.914585396E0
9.243986030E-1,-1.070788130E-1,-1.196411327E-1,-9.923035622E0,9.924334528E0
9.268244890E-1,-5.443671346E-2,-1.268195957E-1,-9.920642853E0,9.921602752E0
9.292503740E-1,-9.750752151E-2,-1.339980662E-1,-9.932906151E0,9.934288490E0
9.316762600E-1,-7.836493850E-2,-1.268195957E-1,-9.925428391E0,9.926547890E0
9.341020930E-1,-7.597211748E-2,-1.435693651E-1,-9.935298920E0,9.936626618E0
9.365279780E-1,-7.836493850E-2,-1.244267747E-1,-9.932906151E0,9.933994548E0
9.389538640E-1,-7.836493850E-2,-1.316052526E-1,-9.923035622E0,9.924217700E0
9.413797490E-1,-6.879365444E-2,-1.244267747E-1,-9.927821159E0,9.928839185E0
9.438056350E-1,-5.922235921E-2,-1.196411327E-1,-9.927821159E0,9.928718662E0
9.462314680E-1,-6.879365444E-2,-9.571290761E-2,-9.930213928E0,9.930913462E0
9.486573530E-1,-6.161518395E-2,-1.172483116E-1,-9.930213928E0,9.931097233E0
9.510832390E-1,-8.793623000E-2,-1.220339537E-1,-9.899106979E0,9.900249697E0
9.535091240E-1,-8.554340899E-2,-1.316052526E-1,-9.903892517E0,9.905136274E0
9.559350100E-1,-6.400800496E-2,-1.100698411E-1,-9.925428391E0,9.926245067E0
9.583608430E-1,-5.682953820E-2,-1.268195957E-1,-9.927821159E0,9.928793773E0
9.607867280E-1,-7.357929647E-2,-1.268195957E-1,-9.932906151E0,9.933988208E0
9.632126140E-1,-7.357929647E-2,-1.292124242E-1,-9.932906151E0,9.934019044E0
9.656384990E-1,-7.357929647E-2,-1.339980662E-1,-9.935298920E0,9.936474929E0
9.680643850E-1,-7.597211748E-2,-1.100698411E-1,-9.918250084E0,9.919151771E0
9.704902180E-1,-8.075776696E-2,-1.339980662E-1,-9.920642853E0,9.921876431E0
9.729161030E-1,-8.315058798E-2,-1.339980662E-1,-9.923035622E0,9.924288662E0
9.753419890E-1,-6.400800496E-2,-1.076770201E-1,-9.925428391E0,9.926218822E0
9.777678740E-1,-5.922235921E-2,-1.435693651E-1,-9.923035622E0,9.924250873E0
9.801937600E-1,-5.682953820E-2,-1.411765367E-1,-9.940084457E0,9.941249390E0
9.826196450E-1,-8.315058798E-2,-1.244267747E-1,-9.954441071E0,9.955565934E0
9.850454780E-1,-9.750752151E-2,-1.196411327E-1,-9.954441071E0,9.955637536E0
9.874713640E-1,-5.443671346E-2,-1.076770201E-1,-9.915857315E0,9.916591349E0
9.898972490E-1,-9.032905847E-2,-1.411765367E-1,-9.930213928E0,9.931628206E0
9.923231350E-1,-7.836493850E-2,-1.316052526E-1,-9.930213928E0,9.931395152E0
9.947490200E-1,-6.400800496E-2,-1.579262912E-1,-9.915857315E0,9.917321414E0
9.971748530E-1,-8.554340899E-2,-1.627119333E-1,-9.932906151E0,9.934607061E0
9.996007390E-1,-7.597211748E-2,-1.316052526E-1,-9.920642853E0,9.921806606E0
1.002026624E0,-8.793623000E-2,-1.292124242E-1,-9.927821159E0,9.929051395E0
1.004452510E0,-1.094716340E-1,-1.292124242E-1,-9.932906151E0,9.934349727E0
1.006878395E0,-8.554340899E-2,-1.124626622E-1,-9.918250084E0,9.919256537E0
1.009304228E0,-8.075776696E-2,-1.411765367E-1,-9.913464546E0,9.914798633E0
1.011730114E0,-5.922235921E-2,-1.292124242E-1,-9.932906151E0,9.933923079E0
1.014155999E0,-7.357929647E-2,-1.196411327E-1,-9.927821159E0,9.928814677E0
1.016581885E0,-6.161518395E-2,-1.124626622E-1,-9.927821159E0,9.928649317E0
1.019007770E0,-8.793623000E-2,-1.316052526E-1,-9.944869995E0,9.946129496E0
1.021433603E0,-9.032905847E-2,-1.220339537E-1,-9.947262764E0,9.948421388E0
1.023859489E0,-8.075776696E-2,-1.292124242E-1,-9.930213928E0,9.931382901E0
1.026285374E0,-8.793623000E-2,-1.292124242E-1,-9.930213928E0,9.931443867E0
1.028711260E0,-7.597211748E-2,-1.292124242E-1,-9.935298920E0,9.936429552E0
1.031137145E0,-5.922235921E-2,-9.810572863E-2,-9.927821159E0,9.928482512E0
1.033562978E0,-7.357929647E-2,-1.292124242E-1,-9.927821159E0,9.928934622E0
1.035988864E0,-7.597211748E-2,-1.268195957E-1,-9.915857315E0,9.916959275E0
1.038414749E0,-1.046859920E-1,-1.387837082E-1,-9.918250084E0,9.919773425E0
1.040840635E0,-9.272187948E-2,-1.339980662E-1,-9.925428391E0,9.926765917E0
1.043266520E0,-8.554340899E-2,-1.387837082E-1,-9.920642853E0,9.921982322E0
1.045692353E0,-8.315058798E-2,-1.292124242E-1,-9.920642853E0,9.921832718E0
1.048118239E0,-8.315058798E-2,-1.316052526E-1,-9.930213928E0,9.931434067E0
1.050544124E0,-8.793623000E-2,-1.459621787E-1,-9.932906151E0,9.934367737E0
1.052970010E0,-7.597211748E-2,-1.292124242E-1,-9.930213928E0,9.931345139E0
1.055395895E0,-9.032905847E-2,-1.483550072E-1,-9.925428391E0,9.926948035E0
1.057821781E0,-6.879365444E-2,-1.363908947E-1,-9.923035622E0,9.924211354E0
1.060247614E0,-7.357929647E-2,-1.459621787E-1,-9.925428391E0,9.926774280E0
1.062673499E0,-7.118647546E-2,-1.268195957E-1,-9.940084457E0,9.941148311E0
1.065099385E0,-6.400800496E-2,-1.435693651E-1,-9.927821159E0,9.929065523E0
1.067525270E0,-7.357929647E-2,-1.220339537E-1,-9.925428391E0,9.926451276E0
1.069951156E0,-6.161518395E-2,-1.004985496E-1,-9.930213928E0,9.930913606E0
1.072376989E0,-7.836493850E-2,-1.196411327E-1,-9.932906151E0,9.933935759E0
1.074802874E0,-5.682953820E-2,-1.148554832E-1,-9.906285286E0,9.907114088E0
1.077228760E0,-7.118647546E-2,-1.244267747E-1,-9.920642853E0,9.921678495E0
1.079654645E0,-9.990034252E-2,-1.316052526E-1,-9.911071777E0,9.912448930E0
1.082080531E0,-9.511470050E-2,-1.244267747E-1,-9.913464546E0,9.914701616E0
1.084506416E0,-6.400800496E-2,-1.411765367E-1,-9.923035622E0,9.924246258E0
1.086932249E0,-5.682953820E-2,-1.483550072E-1,-9.906285286E0,9.907559082E0
1.089358135E0,-6.640082598E-2,-1.507478207E-1,-9.925428391E0,9.926795188E0
1.091784020E0,-8.554340899E-2,-1.387837082E-1,-9.923035622E0,9.924374768E0
1.094209906E0,-8.315058798E-2,-1.316052526E-1,-9.925428391E0,9.926649117E0
1.096635791E0,-7.597211748E-2,-1.459621787E-1,-9.913464546E0,9.914830106E0
1.099061624E0,-7.118647546E-2,-1.196411327E-1,-9.923035622E0,9.924012166E0
1.101487510E0,-6.879365444E-2,-1.124626622E-1,-9.925428391E0,9.926303902E0
1.103913395E0,-1.046859920E-1,-1.459621787E-1,-9.920642853E0,9.922268830E0
1.106339281E0,-1.046859920E-1,-1.651047617E-1,-9.927821159E0,9.929745803E0
1.108765166E0,-8.554340899E-2,-1.459621787E-1,-9.944869995E0,9.946308956E0
1.111190999E0,-8.554340899E-2,-1.411765367E-1,-9.944869995E0,9.946239878E0
1.113616885E0,-7.597211748E-2,-1.244267747E-1,-9.925428391E0,9.926499006E0
1.116042770E0,-9.032905847E-2,-1.220339537E-1,-9.925428391E0,9.926589563E0
1.118468656E0,-7.357929647E-2,-1.244267747E-1,-9.913464546E0,9.914518407E0
1.120894541E0,-7.597211748E-2,-1.100698411E-1,-9.913464546E0,9.914366669E0
1.123320374E0,-8.315058798E-2,-1.148554832E-1,-9.940084457E0,9.941095756E0
1.125746260E0,-9.750752151E-2,-1.052841991E-1,-9.927821159E0,9.928858215E0
1.128172145E0,-8.075776696E-2,-1.196411327E-1,-9.915857315E0,9.916907891E0
1.130598031E0,-1.046859920E-1,-1.100698411E-1,-9.930213928E0,9.931375695E0
1.133023916E0,-7.357929647E-2,-1.292124242E-1,-9.925428391E0,9.926542122E0
1.135449801E0,-7.597211748E-2,-1.172483116E-1,-9.935298920E0,9.936281173E0
1.137875635E0,-7.357929647E-2,-1.244267747E-1,-9.947262764E0,9.948313044E0
1.140301520E0,-8.075776696E-2,-1.172483116E-1,-9.896714211E0,9.897738183E0
1.142727406E0,-6.640082598E-2,-1.339980662E-1,-9.925428391E0,9.926554956E0
1.145153291E0,-5.443671346E-2,-1.459621787E-1,-9.947262764E0,9.948482538E0
1.147579124E0,-7.597211748E-2,-1.363908947E-1,-9.925428391E0,9.926656183E0
1.150005010E0,-8.315058798E-2,-1.339980662E-1,-9.935298920E0,9.936550414E0
1.152430895E0,-8.554340899E-2,-9.810572863E-2,-9.927821159E0,9.928674402E0
1.154856781E0,-8.554340899E-2,-1.100698411E-1,-9.927821159E0,9.928799828E0
1.157282666E0,-9.272187948E-2,-1.292124242E-1,-9.956833839E0,9.958103901E0
1.159708551E0,-8.075776696E-2,-1.363908947E-1,-9.932906151E0,9.934170770E0
1.162134385E0,-5.682953820E-2,-1.387837082E-1,-9.913464546E0,9.914598823E0
1.164560270E0,-8.554340899E-2,-1.172483116E-1,-9.918250084E0,9.919311950E0
1.166986156E0,-7.118647546E-2,-1.339980662E-1,-9.927821159E0,9.928980611E0
1.169412041E0,-9.032905847E-2,-1.316052526E-1,-9.930213928E0,9.931496762E0
1.171837874E0,-8.793623000E-2,-1.363908947E-1,-9.932906151E0,9.934231720E0
1.174263812E0,-9.032905847E-2,-1.292124242E-1,-9.942477226E0,9.943727097E0
1.176689645E0,-1.046859920E-1,-1.387837082E-1,-9.935298920E0,9.936819647E0
1.179115531E0,-8.793623000E-2,-1.220339537E-1,-9.937691689E0,9.938829970E0
1.181541416E0,-8.315058798E-2,-1.244267747E-1,-9.925428391E0,9.926556542E0
1.183967301E0,-6.640082598E-2,-1.220339537E-1,-9.944869995E0,9.945840365E0
1.186393135E0,-6.640082598E-2,-1.052841991E-1,-9.932906151E0,9.933686045E0
1.188819020E0,-8.793623000E-2,-1.292124242E-1,-9.913464546E0,9.914696563E0
1.191244906E0,-8.075776696E-2,-1.292124242E-1,-9.932906151E0,9.934074807E0
1.193670791E0,-8.315058798E-2,-1.435693651E-1,-9.937691689E0,9.939076531E0
1.196096676E0,-6.400800496E-2,-1.387837082E-1,-9.954441071E0,9.955614244E0
1.198522562E0,-6.640082598E-2,-1.196411327E-1,-9.949655533E0,9.950596379E0
1.200948395E0,-8.554340899E-2,-1.316052526E-1,-9.942477226E0,9.943716157E0
1.203374281E0,-8.554340899E-2,-1.459621787E-1,-9.918250084E0,9.919692907E0
1.205800166E0,-7.357929647E-2,-1.220339537E-1,-9.927821159E0,9.928843798E0
1.208226051E0,-9.750752151E-2,-1.220339537E-1,-9.937691689E0,9.938919262E0
1.210651937E0,-7.357929647E-2,-1.292124242E-1,-9.908679008E0,9.909794622E0
1.213077770E0,-6.400800496E-2,-1.339980662E-1,-9.915857315E0,9.916969235E0
1.215503656E0,-7.357929647E-2,-1.148554832E-1,-9.927821159E0,9.928758163E0
1.217929541E0,-7.836493850E-2,-1.124626622E-1,-9.918250084E0,9.919197228E0
1.220355426E0,-8.075776696E-2,-1.316052526E-1,-9.927821159E0,9.929021842E0
1.222781312E0,-7.118647546E-2,-1.507478207E-1,-9.940084457E0,9.941482356E0
1.225207145E0,-6.640082598E-2,-1.268195957E-1,-9.918250084E0,9.919283089E0
1.227633031E0,-6.640082598E-2,-1.196411327E-1,-9.923035622E0,9.923978991E0
1.230058916E0,-6.161518395E-2,-1.172483116E-1,-9.923035622E0,9.923919566E0
1.232484801E0,-7.357929647E-2,-1.411765367E-1,-9.923035622E0,9.924312605E0
1.234910687E0,-8.554340899E-2,-1.316052526E-1,-9.932906151E0,9.934146275E0
1.237336520E0,-6.879365444E-2,-1.459621787E-1,-9.911071777E0,9.912385248E0
1.239762406E0,-7.597211748E-2,-1.483550072E-1,-9.920642853E0,9.922042914E0
1.242188291E0,-9.272187948E-2,-1.244267747E-1,-9.923035622E0,9.924248854E0
1.244614176E0,-6.161518395E-2,-1.124626622E-1,-9.927821159E0,9.928649317E0
1.247040062E0,-6.400800496E-2,-1.316052526E-1,-9.923035622E0,9.924114717E0
1.249465947E0,-8.315058798E-2,-1.244267747E-1,-9.927821159E0,9.928949039E0
1.251891781E0,-5.682953820E-2,-1.555334777E-1,-9.920642853E0,9.922024736E0
1.254317666E0,-4.486542568E-2,-1.244267747E-1,-9.920642853E0,9.921524557E0
1.256743551E0,-1.118644550E-1,-1.244267747E-1,-9.920642853E0,9.922053734E0
1.259169437E0,-6.640082598E-2,-1.220339537E-1,-9.935298920E0,9.936270225E0
1.261595322E0,-6.640082598E-2,-1.268195957E-1,-9.932906151E0,9.933937632E0
1.264021156E0,-5.922235921E-2,-1.387837082E-1,-9.935298920E0,9.936444677E0
1.266447041E0,-8.075776696E-2,-1.052841991E-1,-9.927821159E0,9.928707849E0
1.268872926E0,-7.118647546E-2,-1.220339537E-1,-9.915857315E0,9.916863723E0
1.271298812E0,-6.640082598E-2,-1.148554832E-1,-9.937691689E0,9.938577209E0
1.273724697E0,-7.597211748E-2,-1.387837082E-1,-9.940084457E0,9.941343556E0
1.276150531E0,-7.597211748E-2,-1.483550072E-1,-9.927821159E0,9.929220208E0
1.278576416E0,-4.965107143E-2,-1.435693651E-1,-9.913464546E0,9.914628420E0
1.281002301E0,-1.046859920E-1,-1.172483116E-1,-9.937691689E0,9.938934672E0
1.283428187E0,-4.725824669E-2,-1.148554832E-1,-9.940084457E0,9.940860332E0
1.285854072E0,-8.075776696E-2,-1.579262912E-1,-9.942477226E0,9.944059328E0
1.288279958E0,-7.118647546E-2,-1.196411327E-1,-9.930213928E0,9.931189766E0
1.290705791E0,-8.075776696E-2,-1.411765367E-1,-9.937691689E0,9.939022524E0
1.293131676E0,-1.094716340E-1,-1.268195957E-1,-9.942477226E0,9.943888608E0
1.295557562E0,-9.990034252E-2,-1.292124242E-1,-9.944869995E0,9.946211095E0
1.297983447E0,-8.075776696E-2,-1.316052526E-1,-9.932906151E0,9.934106218E0
1.300409333E0,-5.682953820E-2,-1.220339537E-1,-9.935298920E0,9.936210873E0
1.302835166E0,-8.793623000E-2,-1.172483116E-1,-9.942477226E0,9.943557379E0
1.305261051E0,-9.272187948E-2,-1.292124242E-1,-9.930213928E0,9.931487394E0
1.307686937E0,-6.640082598E-2,-1.268195957E-1,-9.944869995E0,9.945900236E0
1.310112822E0,-8.793623000E-2,-1.363908947E-1,-9.940084457E0,9.941409069E0
1.312538708E0,-7.118647546E-2,-1.507478207E-1,-9.923035622E0,9.924435922E0
1.314964593E0,-7.597211748E-2,-1.435693651E-1,-9.927821159E0,9.929149858E0
1.317390426E0,-5.922235921E-2,-1.316052526E-1,-9.925428391E0,9.926477521E0
1.319816312E0,-6.640082598E-2,-1.220339537E-1,-9.915857315E0,9.916830524E0
1.322242197E0,-9.272187948E-2,-1.339980662E-1,-9.932906151E0,9.934242670E0
1.324668083E0,-7.597211748E-2,-1.316052526E-1,-9.935298920E0,9.936460956E0
1.327093968E0,-7.597211748E-2,-1.387837082E-1,-9.925428391E0,9.926689348E0
1.329519801E0,-5.443671346E-2,-1.292124242E-1,-9.911071777E0,9.912063508E0
1.331945687E0,-5.682953820E-2,-1.268195957E-1,-9.913464546E0,9.914438568E0
1.334371572E0,-5.443671346E-2,-1.411765367E-1,-9.918250084E0,9.919404160E0
1.336797458E0,-8.075776696E-2,-1.339980662E-1,-9.935298920E0,9.936530678E0
1.339223343E0,-7.597211748E-2,-1.316052526E-1,-9.925428391E0,9.926591582E0
1.341649228E0,-8.075776696E-2,-1.292124242E-1,-9.927821159E0,9.928990414E0
1.344075062E0,-6.161518395E-2,-1.411765367E-1,-9.927821159E0,9.929016075E0
1.346500947E0,-7.836493850E-2,-1.316052526E-1,-9.923035622E0,9.924217700E0
1.348926833E0,-8.075776696E-2,-1.459621787E-1,-9.949655533E0,9.951053813E0
1.351352718E0,-8.315058798E-2,-1.100698411E-1,-9.932906151E0,9.933864001E0
1.353778603E0,-5.682953820E-2,-1.196411327E-1,-9.915857315E0,9.916741899E0
1.356204437E0,-4.725824669E-2,-1.268195957E-1,-9.927821159E0,9.928743602E0
1.358630322E0,-6.879365444E-2,-1.244267747E-1,-9.942477226E0,9.943493751E0
1.361056208E0,-7.597211748E-2,-1.220339537E-1,-9.937691689E0,9.938731315E0
1.363482093E0,-6.161518395E-2,-1.316052526E-1,-9.925428391E0,9.926492085E0
1.365907978E0,-6.161518395E-2,-1.292124242E-1,-9.918250084E0,9.919283089E0
1.368333812E0,-8.793623000E-2,-1.363908947E-1,-9.944869995E0,9.946193969E0
1.370759697E0,-1.022931710E-1,-1.268195957E-1,-9.923035622E0,9.924373182E0
1.373185583E0,-6.879365444E-2,-1.268195957E-1,-9.935298920E0,9.936346431E0
1.375611468E0,-7.836493850E-2,-1.196411327E-1,-9.927821159E0,9.928851295E0
1.378037353E0,-9.511470050E-2,-1.507478207E-1,-9.937691689E0,9.939290106E0
1.380463187E0,-7.597211748E-2,-1.316052526E-1,-9.935298920E0,9.936460956E0
1.382889072E0,-8.793623000E-2,-1.483550072E-1,-9.947262764E0,9.948757635E0
1.385314958E0,-9.032905847E-2,-1.363908947E-1,-9.935298920E0,9.936645633E0
1.387740843E0,-7.118647546E-2,-1.148554832E-1,-9.932906151E0,9.933825240E0
1.390166728E0,-7.357929647E-2,-1.196411327E-1,-9.932906151E0,9.933899160E0
1.392592562E0,-8.075776696E-2,-1.411765367E-1,-9.923035622E0,9.924368422E0
1.395018447E0,-8.554340899E-2,-1.268195957E-1,-9.935298920E0,9.936476514E0
1.397444333E0,-7.118647546E-2,-1.244267747E-1,-9.923035622E0,9.924071014E0
1.399870218E0,-8.315058798E-2,-1.172483116E-1,-9.927821159E0,9.928861675E0
1.402296103E0,-7.597211748E-2,-1.339980662E-1,-9.923035622E0,9.924231113E0
1.404721989E0,-6.640082598E-2,-1.244267747E-1,-9.913464546E0,9.914467732E0
1.407147874E0,-9.272187948E-2,-1.172483116E-1,-9.944869995E0,9.945993351E0
1.409573708E0,-1.070788130E-1,-1.244267747E-1,-9.923035622E0,9.924393374E0
1.411999593E0,-1.046859920E-1,-1.148554832E-1,-9.915857315E0,9.917075034E0
1.414425478E0,-8.315058798E-2,-1.363908947E-1,-9.920642853E0,9.921928800E0
1.416851364E0,-7.597211748E-2,-1.363908947E-1,-9.942477226E0,9.943702914E0
1.419277197E0,-8.793623000E-2,-1.435693651E-1,-9.937691689E0,9.939117719E0
1.421703083E0,-7.836493850E-2,-1.244267747E-1,-9.915857315E0,9.916947584E0
1.424128968E0,-1.022931710E-1,-1.435693651E-1,-9.887143135E0,9.888714549E0
1.426554853E0,-6.161518395E-2,-1.148554832E-1,-9.920642853E0,9.921499021E0
1.428980739E0,-9.272187948E-2,-1.316052526E-1,-9.913464546E0,9.914771636E0
1.431406624E0,-7.118647546E-2,-1.292124242E-1,-9.935298920E0,9.936394114E0
1.433832458E0,-7.118647546E-2,-1.124626622E-1,-9.930213928E0,9.931105881E0
1.436258343E0,-9.750752151E-2,-1.459621787E-1,-9.927821159E0,9.929372873E0
1.438684228E0,-9.511470050E-2,-1.411765367E-1,-9.920642853E0,9.922103216E0
1.441110114E0,-8.554340899E-2,-1.100698411E-1,-9.923035622E0,9.924014762E0
1.443535999E0,-8.075776696E-2,-1.292124242E-1,-9.923035622E0,9.924205440E0
1.445961833E0,-9.511470050E-2,-1.411765367E-1,-9.935298920E0,9.936757129E0
1.448387718E0,-7.357929647E-2,-1.316052526E-1,-9.927821159E0,9.928966050E0
1.450813603E0,-9.511470050E-2,-1.172483116E-1,-9.913464546E0,9.914614127E0
1.453239489E0,-9.511470050E-2,-1.076770201E-1,-9.937691689E0,9.938730163E0
1.455665374E0,-9.032905847E-2,-1.268195957E-1,-9.940084457E0,9.941303816E0
1.458091260E0,-8.315058798E-2,-1.220339537E-1,-9.940084457E0,9.941181284E0
1.460517093E0,-6.879365444E-2,-1.292124242E-1,-9.930213928E0,9.931292820E0
1.462942978E0,-7.357929647E-2,-1.316052526E-1,-9.923035622E0,9.924181065E0
1.465368864E0,-6.400800496E-2,-1.339980662E-1,-9.959226608E0,9.960333686E0
1.467794749E0,-8.315058798E-2,-1.316052526E-1,-9.937691689E0,9.938910909E0
1.470220635E0,-8.793623000E-2,-1.076770201E-1,-9.932906151E0,9.933878987E0
1.472646468E0,-6.879365444E-2,-1.483550072E-1,-9.920642853E0,9.921990546E0
1.475072353E0,-7.836493850E-2,-1.555334777E-1,-9.923035622E0,9.924563853E0
1.477498239E0,-7.118647546E-2,-1.292124242E-1,-9.927821159E0,9.928917178E0
1.479924124E0,-9.511470050E-2,-1.172483116E-1,-9.932906151E0,9.934053482E0
1.482350010E0,-9.272187948E-2,-1.100698411E-1,-9.915857315E0,9.916901684E0
1.484775843E0,-6.879365444E-2,-1.124626622E-1,-9.918250084E0,9.919126229E0
1.487201728E0,-8.554340899E-2,-1.411765367E-1,-9.942477226E0,9.943847439E0
1.489627614E0,-7.836493850E-2,-1.292124242E-1,-9.927821159E0,9.928971240E0
1.492053499E0,-9.272187948E-2,-1.196411327E-1,-9.927821159E0,9.928974988E0
1.494479385E0,-1.022931710E-1,-1.316052526E-1,-9.925428391E0,9.926827921E0
1.496905270E0,-7.836493850E-2,-1.387837082E-1,-9.937691689E0,9.938969669E0
1.499331103E0,-6.640082598E-2,-1.459621787E-1,-9.942477226E0,9.943770282E0
1.501756989E0,-8.315058798E-2,-1.244267747E-1,-9.932906151E0,9.934033453E0
1.504182874E0,-6.640082598E-2,-1.579262912E-1,-9.940084457E0,9.941560682E0
1.506608760E0,-5.922235921E-2,-1.531406492E-1,-9.927821159E0,9.929178834E0
1.509034645E0,-8.315058798E-2,-1.196411327E-1,-9.906285286E0,9.907356670E0
1.511460531E0,-5.443671346E-2,-1.004985496E-1,-9.927821159E0,9.928479052E0
1.513886364E0,-9.750752151E-2,-1.268195957E-1,-9.935298920E0,9.936586715E0
1.516312249E0,-6.879365444E-2,-1.363908947E-1,-9.923035622E0,9.924211354E0
1.518738135E0,-7.357929647E-2,-1.339980662E-1,-9.937691689E0,9.938867415E0
1.521164020E0,-8.315058798E-2,-1.244267747E-1,-9.930213928E0,9.931341536E0
1.523589853E0,-8.793623000E-2,-1.339980662E-1,-9.937691689E0,9.938984071E0
1.526015739E0,-8.075776696E-2,-1.387837082E-1,-9.944869995E0,9.946166194E0
1.528441624E0,-7.836493850E-2,-1.316052526E-1,-9.940084457E0,9.941264508E0
1.530867510E0,-9.990034252E-2,-1.244267747E-1,-9.942477226E0,9.943757614E0
1.533293395E0,-9.750752151E-2,-1.411765367E-1,-9.940084457E0,9.941565146E0
1.535719228E0,-8.075776696E-2,-1.411765367E-1,-9.935298920E0,9.936630075E0
1.538145114E0,-6.161518395E-2,-1.244267747E-1,-9.918250084E0,9.919221904E0
1.540570999E0,-7.118647546E-2,-1.459621787E-1,-9.920642853E0,9.921971935E0
1.542996885E0,-6.879365444E-2,-1.387837082E-1,-9.927821159E0,9.929029482E0
1.545422770E0,-6.400800496E-2,-1.531406492E-1,-9.925428391E0,9.926816097E0
1.547848656E0,-7.597211748E-2,-1.387837082E-1,-9.920642853E0,9.921904419E0
1.550274489E0,-5.443671346E-2,-1.339980662E-1,-9.937691689E0,9.938744133E0
1.552700374E0,-7.357929647E-2,-1.220339537E-1,-9.925428391E0,9.926451276E0
1.555126260E0,-8.315058798E-2,-1.603191197E-1,-9.923035622E0,9.924678946E0
1.557552145E0,-7.597211748E-2,-1.363908947E-1,-9.937691689E0,9.938917966E0
1.559978031E0,-8.554340899E-2,-1.292124242E-1,-9.927821159E0,9.929030491E0
1.562403916E0,-7.597211748E-2,-1.244267747E-1,-9.949655533E0,9.950723542E0
1.564829749E0,-4.965107143E-2,-1.220339537E-1,-9.935298920E0,9.936172409E0
1.567255635E0,-8.075776696E-2,-1.268195957E-1,-9.923035622E0,9.924174574E0
1.569681520E0,-8.075776696E-2,-1.363908947E-1,-9.927821159E0,9.929086427E0
1.572107406E0,-8.075776696E-2,-1.579262912E-1,-9.923035622E0,9.924620823E0
1.574533291E0,-7.597211748E-2,-1.316052526E-1,-9.913464546E0,9.914629142E0
1.576959124E0,-5.204389244E-2,-1.483550072E-1,-9.935298920E0,9.936542779E0
1.579385010E0,-8.075776696E-2,-1.244267747E-1,-9.925428391E0,9.926536787E0
1.581810895E0,-8.075776696E-2,-1.244267747E-1,-9.925428391E0,9.926536787E0
1.584236781E0,-8.554340899E-2,-1.292124242E-1,-9.935298920E0,9.936507342E0
1.586662666E0,-6.400800496E-2,-1.531406492E-1,-9.942477226E0,9.943862553E0
1.589088499E0,-8.793623000E-2,-1.363908947E-1,-9.923035622E0,9.924362509E0
1.591514385E0,-9.272187948E-2,-1.411765367E-1,-9.923035622E0,9.924472989E0
1.593940270E0,-7.836493850E-2,-1.244267747E-1,-9.911071777E0,9.912162572E0
1.596366156E0,-4.725824669E-2,-1.387837082E-1,-9.930213928E0,9.931296135E0
1.598792041E0,-5.682953820E-2,-1.507478207E-1,-9.920642853E0,9.921950872E0
1.601217926E0,-7.597211748E-2,-1.363908947E-1,-9.932906151E0,9.934133019E0
1.603643760E0,-8.793623000E-2,-1.244267747E-1,-9.932906151E0,9.934074663E0
1.606069645E0,-7.357929647E-2,-1.316052526E-1,-9.937691689E0,9.938835442E0
1.608495531E0,-9.990034252E-2,-1.555334777E-1,-9.925428391E0,9.927149615E0
1.610921416E0,-1.118644550E-1,-1.387837082E-1,-9.930213928E0,9.931813693E0
1.613347301E0,-7.597211748E-2,-1.363908947E-1,-9.911071777E0,9.912301348E0
1.615773135E0,-7.836493850E-2,-1.363908947E-1,-9.901499748E0,9.902749154E0
1.618199020E0,-9.032905847E-2,-1.316052526E-1,-9.925428391E0,9.926711843E0
1.620624906E0,-8.793623000E-2,-1.076770201E-1,-9.911071777E0,9.912046756E0
1.623050791E0,-8.315058798E-2,-1.220339537E-1,-9.923035622E0,9.924134333E0
1.625476676E0,-6.161518395E-2,-1.148554832E-1,-9.925428391E0,9.926284146E0
1.627902510E0,-7.118647546E-2,-1.387837082E-1,-9.923035622E0,9.924261402E0
1.630328395E0,-9.272187948E-2,-1.507478207E-1,-9.927821159E0,9.929398533E0
1.632754281E0,-5.922235921E-2,-1.339980662E-1,-9.925428391E0,9.926509533E0
1.635180166E0,-6.879365444E-2,-1.339980662E-1,-9.927821159E0,9.928963744E0
1.637606051E0,-7.118647546E-2,-1.411765367E-1,-9.932906151E0,9.934164430E0
1.640031937E0,-7.118647546E-2,-1.292124242E-1,-9.927821159E0,9.928917178E0
1.642457770E0,-8.315058798E-2,-1.411765367E-1,-9.927821159E0,9.929173068E0
1.644883656E0,-8.315058798E-2,-1.292124242E-1,-9.930213928E0,9.931402647E0
1.647309541E0,-6.879365444E-2,-1.316052526E-1,-9.927821159E0,9.928931739E0
1.649735426E0,-7.836493850E-2,-1.339980662E-1,-9.932906151E0,9.934119042E0
1.652161312E0,-6.640082598E-2,-1.220339537E-1,-9.923035622E0,9.924008127E0
1.654587145E0,-5.922235921E-2,-1.124626622E-1,-9.923035622E0,9.923849610E0
1.657013031E0,-8.554340899E-2,-1.579262912E-1,-9.920642853E0,9.922268541E0
1.659438916E0,-7.357929647E-2,-1.172483116E-1,-9.927821159E0,9.928786132E0
1.661864801E0,-9.032905847E-2,-1.387837082E-1,-9.940084457E0,9.941463639E0
1.664290687E0,-9.032905847E-2,-1.627119333E-1,-9.918250084E0,9.919995929E0
1.666716572E0,-9.272187948E-2,-1.459621787E-1,-9.930213928E0,9.931719436E0
1.669142406E0,-9.272187948E-2,-1.244267747E-1,-9.925428391E0,9.926641330E0
1.671568291E0,-7.836493850E-2,-1.100698411E-1,-9.932906151E0,9.933825096E0
1.673994176E0,-6.161518395E-2,-1.268195957E-1,-9.932906151E0,9.933906797E0
1.676420062E0,-9.511470050E-2,-1.124626622E-1,-9.908679008E0,9.909773678E0
1.678845947E0,-8.554340899E-2,-1.196411327E-1,-9.908679008E0,9.909770500E0
1.681271781E0,-8.075776696E-2,-1.196411327E-1,-9.927821159E0,9.928870469E0
1.683697666E0,-8.315058798E-2,-1.339980662E-1,-9.903892517E0,9.905147979E0
1.686123551E0,-6.400800496E-2,-1.316052526E-1,-9.918250084E0,9.919329700E0
1.688549437E0,-9.750752151E-2,-1.339980662E-1,-9.932906151E0,9.934288490E0
1.690975322E0,-8.075776696E-2,-1.244267747E-1,-9.923035622E0,9.924144285E0
1.693401156E0,-9.272187948E-2,-1.292124242E-1,-9.925428391E0,9.926702470E0
1.695827041E0,-9.511470050E-2,-1.459621787E-1,-9.940084457E0,9.941611076E0
1.698252926E0,-6.879365444E-2,-1.244267747E-1,-9.940084457E0,9.941101227E0
1.700678812E0,-9.032905847E-2,-1.292124242E-1,-9.937691689E0,9.938942161E0
1.703104697E0,-7.836493850E-2,-1.387837082E-1,-9.935298920E0,9.936577208E0
1.705530583E0,-7.118647546E-2,-1.507478207E-1,-9.925428391E0,9.926828353E0
1.707956416E0,-7.357929647E-2,-1.363908947E-1,-9.935298920E0,9.936507486E0
1.710382301E0,-5.922235921E-2,-1.316052526E-1,-9.927821159E0,9.928870037E0
1.712808187E0,-8.075776696E-2,-1.363908947E-1,-9.925428391E0,9.926693963E0
1.715234072E0,-9.511470050E-2,-1.339980662E-1,-9.927821159E0,9.929180996E0
1.717659958E0,-8.793623000E-2,-1.100698411E-1,-9.925428391E0,9.926428204E0
1.720085791E0,-9.750752151E-2,-1.172483116E-1,-9.925428391E0,9.926599801E0
1.722511676E0,-8.793623000E-2,-1.196411327E-1,-9.952048302E0,9.953155890E0
1.724937562E0,-9.032905847E-2,-1.316052526E-1,-9.927821159E0,9.929104303E0
1.727363447E0,-7.357929647E-2,-1.316052526E-1,-9.930213928E0,9.931358543E0
1.729789333E0,-7.118647546E-2,-1.363908947E-1,-9.932906151E0,9.934097573E0
1.732215218E0,-1.022931710E-1,-1.172483116E-1,-9.927821159E0,9.929040439E0
1.734641051E0,-8.075776696E-2,-1.244267747E-1,-9.942477226E0,9.943583722E0
1.737066937E0,-5.204389244E-2,-1.220339537E-1,-9.935298920E0,9.936184654E0
1.739492822E0,-8.554340899E-2,-1.268195957E-1,-9.918250084E0,9.919429702E0
1.741918708E0,-7.357929647E-2,-1.172483116E-1,-9.927821159E0,9.928786132E0
1.744344593E0,-8.075776696E-2,-1.316052526E-1,-9.930213928E0,9.931414321E0
1.746770426E0,-7.836493850E-2,-1.411765367E-1,-9.911071777E0,9.912386981E0
1.749196312E0,-9.990034252E-2,-1.220339537E-1,-9.935298920E0,9.936550558E0
1.751622197E0,-5.682953820E-2,-1.244267747E-1,-9.927821159E0,9.928763498E0
1.754048083E0,-7.836493850E-2,-1.363908947E-1,-9.937691689E0,9.938936545E0
1.756473968E0,-6.879365444E-2,-1.268195957E-1,-9.944869995E0,9.945916499E0
1.758899853E0,-8.075776696E-2,-1.268195957E-1,-9.932906151E0,9.934043972E0
1.761325687E0,-7.118647546E-2,-1.268195957E-1,-9.923035622E0,9.924101303E0
1.763751572E0,-8.075776696E-2,-1.316052526E-1,-9.940084457E0,9.941283659E0
1.766177458E0,-5.682953820E-2,-1.028913707E-1,-9.937691689E0,9.938386807E0
1.768603343E0,-6.400800496E-2,-1.411765367E-1,-9.935298920E0,9.936508062E0
1.771029228E0,-7.357929647E-2,-1.435693651E-1,-9.911071777E0,9.912384670E0
1.773455062E0,-8.075776696E-2,-1.435693651E-1,-9.930213928E0,9.931580068E0
1.775880947E0,-7.118647546E-2,-1.052841991E-1,-9.949655533E0,9.950467200E0
1.778306833E0,-6.879365444E-2,-1.196411327E-1,-9.923035622E0,9.923995290E0
1.780732718E0,-8.315058798E-2,-1.483550072E-1,-9.925428391E0,9.926885310E0
1.783158603E0,-9.750752151E-2,-1.100698411E-1,-9.930213928E0,9.931302621E0
1.785584437E0,-7.118647546E-2,-1.172483116E-1,-9.923035622E0,9.923983607E0
1.788010322E0,-6.161518395E-2,-1.052841991E-1,-9.942477226E0,9.943225563E0
1.790436208E0,-6.640082598E-2,-1.387837082E-1,-9.949655533E0,9.950844950E0
1.792862093E0,-8.793623000E-2,-1.244267747E-1,-9.925428391E0,9.926597783E0
1.795287978E0,-7.836493850E-2,-1.220339537E-1,-9.932906151E0,9.933964866E0
1.797713864E0,-8.075776696E-2,-1.196411327E-1,-9.932906151E0,9.933954923E0
1.800139697E0,-7.836493850E-2,-1.196411327E-1,-9.932906151E0,9.933935759E0
1.802565583E0,-7.836493850E-2,-1.339980662E-1,-9.930213928E0,9.931427148E0
1.804991468E0,-8.075776696E-2,-1.268195957E-1,-9.935298920E0,9.936436466E0
1.807417353E0,-7.597211748E-2,-1.316052526E-1,-9.932906151E0,9.934068467E0
1.809843239E0,-6.400800496E-2,-1.292124242E-1,-9.925428391E0,9.926475790E0
1.812269072E0,-6.161518395E-2,-1.292124242E-1,-9.918250084E0,9.919283089E0
1.814694958E0,-7.597211748E-2,-1.435693651E-1,-9.925428391E0,9.926757409E0
1.817120843E0,-7.836493850E-2,-1.411765367E-1,-9.932906151E0,9.934218463E0
1.819546728E0,-7.118647546E-2,-1.363908947E-1,-9.930213928E0,9.931405673E0
1.821972614E0,-7.597211748E-2,-1.244267747E-1,-9.940084457E0,9.941153495E0
1.824398499E0,-7.357929647E-2,-1.531406492E-1,-9.930213928E0,9.931667263E0
1.826824333E0,-8.075776696E-2,-1.292124242E-1,-9.911071777E0,9.912243008E0
1.829250218E0,-6.400800496E-2,-1.316052526E-1,-9.927821159E0,9.928899735E0
1.831676103E0,-5.682953820E-2,-1.339980662E-1,-9.930213928E0,9.931280569E0
1.834101989E0,-7.118647546E-2,-1.579262912E-1,-9.937691689E0,9.939201393E0
1.836527874E0,-9.750752151E-2,-1.339980662E-1,-9.927821159E0,9.929204206E0
1.838953708E0,-1.070788130E-1,-1.387837082E-1,-9.927821159E0,9.929368548E0
1.841379593E0,-9.511470050E-2,-1.316052526E-1,-9.932906151E0,9.934233305E0
1.843805478E0,-7.118647546E-2,-1.387837082E-1,-9.913464546E0,9.914691510E0
1.846231364E0,-8.315058798E-2,-1.268195957E-1,-9.927821159E0,9.928979313E0
1.848657249E0,-4.965107143E-2,-1.292124242E-1,-9.937691689E0,9.938655703E0
1.851083135E0,-1.094716340E-1,-1.316052526E-1,-9.927821159E0,9.929296901E0
1.853508968E0,-9.032905847E-2,-1.268195957E-1,-9.927821159E0,9.929042024E0
1.855934853E0,-8.554340899E-2,-1.244267747E-1,-9.940084457E0,9.941231248E0
1.858360739E0,-8.315058798E-2,-1.483550072E-1,-9.915857315E0,9.917315641E0
1.860786624E0,-6.161518395E-2,-1.172483116E-1,-9.908679008E0,9.909564233E0
1.863212510E0,-6.640082598E-2,-1.172483116E-1,-9.937691689E0,9.938605150E0
1.865638395E0,-9.032905847E-2,-1.148554832E-1,-9.947262764E0,9.948335922E0
1.868064228E0,-8.075776696E-2,-1.196411327E-1,-9.937691689E0,9.938739956E0
1.870490114E0,-9.272187948E-2,-1.387837082E-1,-9.954441071E0,9.955840260E0
1.872915999E0,-7.118647546E-2,-1.411765367E-1,-9.932906151E0,9.934164430E0
1.875341885E0,-7.836493850E-2,-1.268195957E-1,-9.932906151E0,9.934024807E0
1.877767718E0,-6.640082598E-2,-1.220339537E-1,-9.925428391E0,9.926400661E0
1.880193603E0,-7.118647546E-2,-1.268195957E-1,-9.925428391E0,9.926493815E0
1.882619489E0,-7.357929647E-2,-1.339980662E-1,-9.915857315E0,9.917035630E0
1.885045374E0,-1.046859920E-1,-1.268195957E-1,-9.908679008E0,9.910043494E0
1.887471260E0,-9.272187948E-2,-1.124626622E-1,-9.932906151E0,9.933975528E0
1.889897145E0,-7.118647546E-2,-1.124626622E-1,-9.901499748E0,9.902394288E0
1.892322978E0,-7.357929647E-2,-1.363908947E-1,-9.920642853E0,9.921853204E0
1.894748864E0,-8.075776696E-2,-1.244267747E-1,-9.925428391E0,9.926536787E0
1.897174749E0,-7.118647546E-2,-1.268195957E-1,-9.937691689E0,9.938755798E0
1.899600635E0,-8.075776696E-2,-1.483550072E-1,-9.944869995E0,9.946304351E0
1.902026520E0,-8.315058798E-2,-1.292124242E-1,-9.930213928E0,9.931402647E0
1.904452406E0,-9.990034252E-2,-1.316052526E-1,-9.920642853E0,9.922018677E0
1.906878239E0,-8.075776696E-2,-1.172483116E-1,-9.925428391E0,9.926449401E0
1.909304124E0,-9.272187948E-2,-1.292124242E-1,-9.954441071E0,9.955711437E0
1.911730010E0,-7.836493850E-2,-1.244267747E-1,-9.927821159E0,9.928910114E0
1.914155895E0,-8.554340899E-2,-1.220339537E-1,-9.944869995E0,9.945986587E0
1.916581781E0,-1.022931710E-1,-1.220339537E-1,-9.944869995E0,9.946144751E0
1.919007614E0,-9.750752151E-2,-1.316052526E-1,-9.935298920E0,9.936648946E0
1.921433499E0,-7.597211748E-2,-1.244267747E-1,-9.937691689E0,9.938760983E0
1.923859385E0,-7.357929647E-2,-1.148554832E-1,-9.944869995E0,9.945805393E0
1.926285270E0,-6.640082598E-2,-1.172483116E-1,-9.923035622E0,9.923950432E0
1.928711156E0,-8.554340899E-2,-1.268195957E-1,-9.930213928E0,9.931392125E0
1.931137041E0,-8.075776696E-2,-1.363908947E-1,-9.915857315E0,9.917124109E0
1.933562874E0,-1.022931710E-1,-1.268195957E-1,-9.930213928E0,9.931550522E0
1.935988760E0,-9.032905847E-2,-1.483550072E-1,-9.927821159E0,9.929340437E0
1.938414645E0,-7.118647546E-2,-1.339980662E-1,-9.930213928E0,9.931373100E0
1.940840531E0,-8.075776696E-2,-1.124626622E-1,-9.956833839E0,9.957796432E0
1.943266416E0,-6.640082598E-2,-1.052841991E-1,-9.923035622E0,9.923816291E0
1.945692249E0,-5.682953820E-2,-1.124626622E-1,-9.913464546E0,9.914265316E0
1.948118135E0,-6.640082598E-2,-1.292124242E-1,-9.923035622E0,9.924098995E0
1.950544020E0,-8.554340899E-2,-1.292124242E-1,-9.940084457E0,9.941292298E0
1.952969906E0,-7.597211748E-2,-1.268195957E-1,-9.930213928E0,9.931314295E0
1.955395791E0,-9.990034252E-2,-1.244267747E-1,-9.949655533E0,9.950934997E0
1.957821624E0,-8.075776696E-2,-1.268195957E-1,-9.920642853E0,9.921782080E0
1.960247510E0,-9.990034252E-2,-1.316052526E-1,-9.932906151E0,9.934280277E0
1.962673395E0,-7.597211748E-2,-1.268195957E-1,-9.932906151E0,9.934006220E0
1.965099281E0,-5.682953820E-2,-1.292124242E-1,-9.927821159E0,9.928824624E0
1.967525166E0,-6.161518395E-2,-1.076770201E-1,-9.940084457E0,9.940858604E0
1.969951051E0,-8.075776696E-2,-1.196411327E-1,-9.937691689E0,9.938739956E0
1.972376885E0,-5.682953820E-2,-1.124626622E-1,-9.918250084E0,9.919050467E0
1.974802770E0,-9.511470050E-2,-1.363908947E-1,-9.930213928E0,9.931606010E0
1.977228656E0,-6.640082598E-2,-1.339980662E-1,-9.940084457E0,9.941209362E0
1.979654541E0,-7.836493850E-2,-1.124626622E-1,-9.932906151E0,9.933851897E0
1.982080426E0,-6.879365444E-2,-1.100698411E-1,-9.911071777E0,9.911921696E0
1.984506260E0,-9.032905847E-2,-1.124626622E-1,-9.944869995E0,9.945916067E0
1.986932145E0,-8.793623000E-2,-1.220339537E-1,-9.932906151E0,9.934044980E0
1.989358031E0,-9.272187948E-2,-1.316052526E-1,-9.935298920E0,9.936603138E0
1.991783916E0,-8.793623000E-2,-1.268195957E-1,-9.927821159E0,9.929020544E0
1.994209801E0,-6.879365444E-2,-1.244267747E-1,-9.927821159E0,9.928839185E0
1.996635687E0,-8.793623000E-2,-1.292124242E-1,-9.932906151E0,9.934135757E0
1.999061520E0,-8.315058798E-2,-1.220339537E-1,-9.930213928E0,9.931311845E0
2.001487406E0,-7.118647546E-2,-1.363908947E-1,-9.930213928E0,9.931405673E0
2.003913291E0,-8.554340899E-2,-1.220339537E-1,-9.935298920E0,9.936416587E0
2.006339176E0,-9.990034252E-2,-1.363908947E-1,-9.913464546E0,9.914906044E0
2.008765062E0,-9.272187948E-2,-1.483550072E-1,-9.918250084E0,9.919792905E0
2.011190895E0,-8.315058798E-2,-1.196411327E-1,-9.930213928E0,9.931282731E0
2.013616781E0,-7.597211748E-2,-1.220339537E-1,-9.913464546E0,9.914506713E0
2.016042666E0,-5.922235921E-2,-1.220339537E-1,-9.920642853E0,9.921570147E0
2.018468551E0,-6.161518395E-2,-1.316052526E-1,-9.923035622E0,9.924099572E0
2.020894437E0,-6.640082598E-2,-1.339980662E-1,-9.932906151E0,9.934031868E0
2.023320322E0,-9.272187948E-2,-1.124626622E-1,-9.927821159E0,9.928891085E0
2.025746156E0,-7.357929647E-2,-1.196411327E-1,-9.911071777E0,9.912066974E0
2.028172041E0,-8.075776696E-2,-1.124626622E-1,-9.913464546E0,9.914431349E0
2.030597926E0,-6.400800496E-2,-1.268195957E-1,-9.942477226E0,9.943492024E0
2.033023812E0,-8.554340899E-2,-1.172483116E-1,-9.920642853E0,9.921704463E0
2.035449697E0,-8.554340899E-2,-1.459621787E-1,-9.927821159E0,9.929262591E0
2.037875583E0,-3.529413417E-2,-1.316052526E-1,-9.944869995E0,9.945803378E0
2.040301416E0,-6.640082598E-2,-1.411765367E-1,-9.947262764E0,9.948486135E0
2.042727301E0,-9.511470050E-2,-1.028913707E-1,-9.913464546E0,9.914454738E0
2.045153187E0,-8.554340899E-2,-1.196411327E-1,-9.930213928E0,9.931303053E0
2.047579072E0,-9.511470050E-2,-1.363908947E-1,-9.923035622E0,9.924428711E0
2.050004958E0,-8.554340899E-2,-1.268195957E-1,-9.925428391E0,9.926607156E0
2.052430791E0,-6.879365444E-2,-1.172483116E-1,-9.935298920E0,9.936228880E0
2.054856676E0,-8.075776696E-2,-1.316052526E-1,-9.937691689E0,9.938891178E0
2.057282562E0,-7.357929647E-2,-1.363908947E-1,-9.920642853E0,9.921853204E0
2.059708447E0,-9.032905847E-2,-1.459621787E-1,-9.940084457E0,9.941566442E0
2.062134333E0,-8.793623000E-2,-1.507478207E-1,-9.923035622E0,9.924570199E0
2.064560218E0,-8.075776696E-2,-1.148554832E-1,-9.925428391E0,9.926421426E0
2.066986051E0,-1.022931710E-1,-1.148554832E-1,-9.940084457E0,9.941274299E0
2.069411937E0,-8.315058798E-2,-1.339980662E-1,-9.927821159E0,9.929073596E0
2.071837822E0,-6.161518395E-2,-1.339980662E-1,-9.918250084E0,9.919346583E0
2.074263708E0,-5.443671346E-2,-1.435693651E-1,-9.906285286E0,9.907475142E0
2.076689593E0,-5.443671346E-2,-1.363908947E-1,-9.911071777E0,9.912159684E0
2.079115426E0,-9.750752151E-2,-1.268195957E-1,-9.899106979E0,9.900399483E0
2.081541312E0,-8.075776696E-2,-1.244267747E-1,-9.923035622E0,9.924144285E0
2.083967197E0,-5.922235921E-2,-1.100698411E-1,-9.925428391E0,9.926215361E0
2.086393083E0,-7.118647546E-2,-1.196411327E-1,-9.944869995E0,9.945844395E0
2.088818968E0,-7.118647546E-2,-1.172483116E-1,-9.920642853E0,9.921591067E0
2.091244801E0,-7.597211748E-2,-1.220339537E-1,-9.918250084E0,9.919291748E0
2.093670687E0,-8.075776696E-2,-1.172483116E-1,-9.927821159E0,9.928841924E0
2.096096572E0,-4.725824669E-2,-1.220339537E-1,-9.927821159E0,9.928683629E0
2.098522458E0,-7.118647546E-2,-1.124626622E-1,-9.932906151E0,9.933797862E0
2.100948343E0,-8.554340899E-2,-1.339980662E-1,-9.940084457E0,9.941355651E0
2.103374228E0,-8.793623000E-2,-1.124626622E-1,-9.925428391E0,9.926455025E0
2.105800114E0,-7.357929647E-2,-1.196411327E-1,-9.925428391E0,9.926422147E0
2.108225947E0,-5.443671346E-2,-1.052841991E-1,-9.918250084E0,9.918958254E0
2.110651833E0,-6.161518395E-2,-1.172483116E-1,-9.918250084E0,9.919134454E0
2.113077718E0,-8.315058798E-2,-1.292124242E-1,-9.932906151E0,9.934094547E0
2.115503603E0,-7.118647546E-2,-1.292124242E-1,-9.927821159E0,9.928917178E0
2.117929437E0,-6.400800496E-2,-1.100698411E-1,-9.920642853E0,9.921459923E0
2.120355322E0,-8.075776696E-2,-1.339980662E-1,-9.925428391E0,9.926661374E0
2.122781208E0,-9.750752151E-2,-1.196411327E-1,-9.923035622E0,9.924235873E0
2.125207093E0,-6.161518395E-2,-1.052841991E-1,-9.923035622E0,9.923785424E0
2.127632978E0,-6.640082598E-2,-1.268195957E-1,-9.937691689E0,9.938722673E0
2.130058864E0,-8.315058798E-2,-1.483550072E-1,-9.925428391E0,9.926885310E0
2.132484697E0,-5.922235921E-2,-1.387837082E-1,-9.932906151E0,9.934052185E0
2.134910583E0,-8.315058798E-2,-1.196411327E-1,-9.911071777E0,9.912142644E0
2.137336468E0,-5.922235921E-2,-1.483550072E-1,-9.923035622E0,9.924321259E0
2.139762353E0,-8.554340899E-2,-1.483550072E-1,-9.923035622E0,9.924513229E0
2.142188239E0,-9.511470050E-2,-1.244267747E-1,-9.942477226E0,9.943710687E0
2.144614124E0,-8.793623000E-2,-1.363908947E-1,-9.927821159E0,9.929147407E0
2.147039958E0,-8.793623000E-2,-1.076770201E-1,-9.915857315E0,9.916831823E0
2.149465843E0,-6.400800496E-2,-1.483550072E-1,-9.935298920E0,9.936612645E0
2.151891728E0,-7.357929647E-2,-1.292124242E-1,-9.913464546E0,9.914579622E0
2.154317614E0,-6.879365444E-2,-1.220339537E-1,-9.937691689E0,9.938679034E0
2.156743499E0,-1.046859920E-1,-1.316052526E-1,-9.944869995E0,9.946291687E0
2.159169333E0,-9.511470050E-2,-1.292124242E-1,-9.925428391E0,9.926725109E0
2.161595218E0,-9.272187948E-2,-1.172483116E-1,-9.923035622E0,9.924161449E0
2.164021103E0,-8.793623000E-2,-1.148554832E-1,-9.937691689E0,9.938744421E0
2.166446989E0,-8.554340899E-2,-1.363908947E-1,-9.935298920E0,9.936603282E0
2.168872874E0,-7.836493850E-2,-1.603191197E-1,-9.937691689E0,9.939293706E0
2.171298760E0,-8.075776696E-2,-1.292124242E-1,-9.925428391E0,9.926597927E0
2.173724593E0,-8.793623000E-2,-1.555334777E-1,-9.940084457E0,9.941690121E0
2.176150478E0,-6.879365444E-2,-1.627119333E-1,-9.923035622E0,9.924607987E0
2.178576364E0,-7.597211748E-2,-1.435693651E-1,-9.915857315E0,9.917187616E0
2.181002249E0,-8.554340899E-2,-1.124626622E-1,-9.937691689E0,9.938696173E0
2.183428135E0,-7.597211748E-2,-1.531406492E-1,-9.935298920E0,9.936769518E0
2.185854020E0,-9.272187948E-2,-1.244267747E-1,-9.923035622E0,9.924248854E0
2.188279853E0,-7.836493850E-2,-1.220339537E-1,-9.932906151E0,9.933964866E0
2.190705739E0,-1.046859920E-1,-1.148554832E-1,-9.920642853E0,9.921859984E0
2.193131624E0,-8.554340899E-2,-1.316052526E-1,-9.913464546E0,9.914707102E0
2.195557510E0,-5.204389244E-2,-1.411765367E-1,-9.927821159E0,9.928961293E0
2.197983395E0,-5.922235921E-2,-1.172483116E-1,-9.940084457E0,9.940952342E0
2.200409228E0,-6.640082598E-2,-1.435693651E-1,-9.930213928E0,9.931473702E0
2.202835114E0,-5.922235921E-2,-1.196411327E-1,-9.920642853E0,9.921541004E0
2.205260999E0,-8.315058798E-2,-1.292124242E-1,-9.935298920E0,9.936487030E0
2.207686885E0,-6.400800496E-2,-1.507478207E-1,-9.927821159E0,9.929171914E0
2.210112770E0,-8.554340899E-2,-1.268195957E-1,-9.923035622E0,9.924214671E0
2.212538603E0,-6.640082598E-2,-1.292124242E-1,-9.927821159E0,9.928884020E0
2.214964489E0,-7.836493850E-2,-1.052841991E-1,-9.925428391E0,9.926296115E0
2.217390374E0,-6.879365444E-2,-1.292124242E-1,-9.923035622E0,9.924115294E0
2.219816260E0,-7.357929647E-2,-1.244267747E-1,-9.920642853E0,9.921695951E0
2.222242145E0,-8.554340899E-2,-1.363908947E-1,-9.927821159E0,9.929126504E0
2.224667978E0,-6.879365444E-2,-1.316052526E-1,-9.927821159E0,9.928931739E0
2.227093864E0,-8.315058798E-2,-1.316052526E-1,-9.940084457E0,9.941303385E0
2.229519749E0,-8.554340899E-2,-1.363908947E-1,-9.949655533E0,9.950958013E0
2.231945635E0,-8.315058798E-2,-1.483550072E-1,-9.944869995E0,9.946324067E0
2.234371520E0,-9.511470050E-2,-1.339980662E-1,-9.925428391E0,9.926788555E0
2.236797406E0,-5.204389244E-2,-1.004985496E-1,-9.937691689E0,9.938336109E0
2.239223239E0,-7.118647546E-2,-1.268195957E-1,-9.947262764E0,9.948325850E0
2.241649124E0,-7.597211748E-2,-1.268195957E-1,-9.915857315E0,9.916959275E0
2.244075010E0,-8.075776696E-2,-1.124626622E-1,-9.944869995E0,9.945833745E0
2.246500895E0,-7.836493850E-2,-1.172483116E-1,-9.925428391E0,9.926430223E0
2.248926781E0,-6.640082598E-2,-1.220339537E-1,-9.944869995E0,9.945840365E0
2.251352666E0,-4.007977992E-2,-1.268195957E-1,-9.918250084E0,9.919141814E0
2.253778499E0,-8.554340899E-2,-1.387837082E-1,-9.927821159E0,9.929159661E0
2.256204385E0,-8.793623000E-2,-1.339980662E-1,-9.927821159E0,9.929114826E0
2.258630270E0,-8.075776696E-2,-1.316052526E-1,-9.923035622E0,9.924236883E0
2.261056156E0,-6.879365444E-2,-1.483550072E-1,-9.930213928E0,9.931560322E0
2.263482041E0,-6.161518395E-2,-1.268195957E-1,-9.935298920E0,9.936299324E0
2.265907874E0,-8.315058798E-2,-1.531406492E-1,-9.908679008E0,9.910211187E0
2.268333760E0,-8.315058798E-2,-1.220339537E-1,-9.925428391E0,9.926526837E0
2.270759645E0,-5.682953820E-2,-1.172483116E-1,-9.937691689E0,9.938545812E0
2.273185531E0,-7.836493850E-2,-1.387837082E-1,-9.930213928E0,9.931492871E0
2.275611416E0,-8.554340899E-2,-1.339980662E-1,-9.927821159E0,9.929093923E0
2.278037301E0,-5.922235921E-2,-1.316052526E-1,-9.920642853E0,9.921692489E0
2.280463135E0,-6.161518395E-2,-1.292124242E-1,-9.918250084E0,9.919283089E0
2.282889020E0,-7.597211748E-2,-1.507478207E-1,-9.930213928E0,9.931648671E0
2.285314906E0,-7.357929647E-2,-1.220339537E-1,-9.920642853E0,9.921666232E0
2.287740791E0,-8.315058798E-2,-1.316052526E-1,-9.925428391E0,9.926649117E0
2.290166676E0,-4.965107143E-2,-1.244267747E-1,-9.932906151E0,9.933809534E0
2.292592510E0,-8.793623000E-2,-1.316052526E-1,-9.930213928E0,9.931475287E0
2.295018395E0,-8.075776696E-2,-1.316052526E-1,-9.927821159E0,9.929021842E0
2.297444281E0,-7.597211748E-2,-1.316052526E-1,-9.913464546E0,9.914629142E0
2.299870166E0,-8.075776696E-2,-1.435693651E-1,-9.932906151E0,9.934271920E0
2.302296051E0,-6.640082598E-2,-1.220339537E-1,-9.944869995E0,9.945840365E0
2.304721937E0,-5.922235921E-2,-1.387837082E-1,-9.913464546E0,9.914612827E0
2.307147770E0,-8.554340899E-2,-1.363908947E-1,-9.925428391E0,9.926734049E0
2.309573656E0,-8.315058798E-2,-1.244267747E-1,-9.932906151E0,9.934033453E0
2.311999541E0,-7.836493850E-2,-1.172483116E-1,-9.930213928E0,9.931215278E0
2.314425426E0,-7.836493850E-2,-1.483550072E-1,-9.932906151E0,9.934323071E0
2.316851312E0,-8.075776696E-2,-1.579262912E-1,-9.920642853E0,9.922228436E0
2.319277197E0,-8.793623000E-2,-1.339980662E-1,-9.927821159E0,9.929114826E0
2.321703031E0,-7.836493850E-2,-1.268195957E-1,-9.915857315E0,9.916977895E0
2.324128916E0,-6.400800496E-2,-1.292124242E-1,-9.911071777E0,9.912120694E0
2.326554801E0,-7.836493850E-2,-1.172483116E-1,-9.923035622E0,9.924037695E0
2.328980687E0,-7.357929647E-2,-1.268195957E-1,-9.927821159E0,9.928903771E0
2.331406572E0,-9.990034252E-2,-1.316052526E-1,-9.927821159E0,9.929195989E0
2.333832458E0,-5.682953820E-2,-1.220339537E-1,-9.932906151E0,9.933818323E0
2.336258291E0,-7.836493850E-2,-1.268195957E-1,-9.925428391E0,9.926547890E0
2.338684176E0,-6.640082598E-2,-1.244267747E-1,-9.932906151E0,9.933907373E0
2.341110062E0,-8.075776696E-2,-1.028913707E-1,-9.925428391E0,9.926290203E0
2.343535947E0,-8.315058798E-2,-1.268195957E-1,-9.927821159E0,9.928979313E0
2.345961833E0,-9.750752151E-2,-1.387837082E-1,-9.918250084E0,9.919700266E0
2.348387666E0,-6.640082598E-2,-1.555334777E-1,-9.930213928E0,9.931653860E0
2.350813551E0,-8.554340899E-2,-1.196411327E-1,-9.906285286E0,9.907377041E0
2.353239437E0,-4.725824669E-2,-1.124626622E-1,-9.937691689E0,9.938440385E0
2.355665322E0,-5.204389244E-2,-1.316052526E-1,-9.937691689E0,9.938699342E0
2.358091208E0,-7.597211748E-2,-1.316052526E-1,-9.930213928E0,9.931376559E0
2.360517041E0,-5.443671346E-2,-1.172483116E-1,-9.911071777E0,9.911914764E0
2.362942926E0,-5.922235921E-2,-1.435693651E-1,-9.923035622E0,9.924250873E0
2.365368812E0,-1.190429255E-1,-1.220339537E-1,-9.923035622E0,9.924499960E0
2.367794697E0,-9.750752151E-2,-1.100698411E-1,-9.923035622E0,9.924125102E0
2.370220583E0,-5.922235921E-2,-1.172483116E-1,-9.911071777E0,9.911942203E0
2.372646468E0,-6.879365444E-2,-1.459621787E-1,-9.923035622E0,9.924347509E0
2.375072301E0,-9.990034252E-2,-1.411765367E-1,-9.930213928E0,9.931719869E0
2.377498187E0,-1.094716340E-1,-1.483550072E-1,-9.937691689E0,9.939401860E0
2.379924072E0,-8.075776696E-2,-1.316052526E-1,-9.940084457E0,9.941283659E0
2.382349958E0,-1.166501045E-1,-1.339980662E-1,-9.935298920E0,9.936887206E0
2.384775843E0,-8.315058798E-2,-1.411765367E-1,-9.937691689E0,9.939042254E0
2.387201676E0,-8.315058798E-2,-1.316052526E-1,-9.927821159E0,9.929041592E0
2.389627562E0,-9.750752151E-2,-1.339980662E-1,-9.927821159E0,9.929204206E0
2.392053447E0,-5.443671346E-2,-1.268195957E-1,-9.913464546E0,9.914425141E0
2.394479333E0,-6.879365444E-2,-1.339980662E-1,-9.918250084E0,9.919393771E0
2.396905218E0,-7.836493850E-2,-1.172483116E-1,-9.911071777E0,9.912075061E0
2.399331103E0,-6.640082598E-2,-1.387837082E-1,-9.911071777E0,9.912265824E0
2.401756937E0,-1.046859920E-1,-1.363908947E-1,-9.940084457E0,9.941571337E0
2.404182822E0,-9.032905847E-2,-1.459621787E-1,-9.920642853E0,9.922127741E0
2.406608708E0,-6.640082598E-2,-1.172483116E-1,-9.942477226E0,9.943390248E0
2.409034593E0,-8.315058798E-2,-1.148554832E-1,-9.923035622E0,9.924048657E0
2.411460478E0,-6.879365444E-2,-1.244267747E-1,-9.930213928E0,9.931231709E0
2.413886364E0,-7.836493850E-2,-1.339980662E-1,-9.923035622E0,9.924249719E0
2.416312197E0,-7.357929647E-2,-1.220339537E-1,-9.920642853E0,9.921666232E0
2.418738083E0,-5.922235921E-2,-1.220339537E-1,-9.908679008E0,9.909607422E0
2.421163968E0,-5.443671346E-2,-1.316052526E-1,-9.927821159E0,9.928842645E0
2.423589853E0,-7.597211748E-2,-1.387837082E-1,-9.920642853E0,9.921904419E0
2.426015739E0,-5.682953820E-2,-1.028913707E-1,-9.918250084E0,9.918946565E0
2.428441572E0,-9.750752151E-2,-1.148554832E-1,-9.935298920E0,9.936441220E0
2.430867458E0,-9.272187948E-2,-1.363908947E-1,-9.923035622E0,9.924406066E0
2.433293343E0,-9.272187948E-2,-1.339980662E-1,-9.930213928E0,9.931550810E0
2.435719228E0,-1.022931710E-1,-1.339980662E-1,-9.947262764E0,9.948691164E0
2.438145114E0,-5.922235921E-2,-1.363908947E-1,-9.932906151E0,9.934019044E0
2.440570999E0,-7.118647546E-2,-1.411765367E-1,-9.913464546E0,9.914725293E0
2.442996833E0,-5.443671346E-2,-1.339980662E-1,-9.920642853E0,9.921697105E0
2.445422718E0,-6.879365444E-2,-1.339980662E-1,-9.925428391E0,9.926571250E0
2.447848603E0,-7.836493850E-2,-1.244267747E-1,-9.918250084E0,9.919340090E0
2.450274489E0,-6.161518395E-2,-1.435693651E-1,-9.918250084E0,9.919480497E0
2.452700374E0,-7.357929647E-2,-1.148554832E-1,-9.932906151E0,9.933842675E0
2.455126208E0,-1.070788130E-1,-1.124626622E-1,-9.937691689E0,9.938904860E0
2.457552093E0,-8.075776696E-2,-1.196411327E-1,-9.935298920E0,9.936347440E0
2.459977978E0,-8.793623000E-2,-1.292124242E-1,-9.932906151E0,9.934135757E0
2.462403864E0,-9.750752151E-2,-1.292124242E-1,-9.935298920E0,9.936617543E0
2.464829749E0,-8.075776696E-2,-1.196411327E-1,-9.942477226E0,9.943524989E0
2.467255635E0,-6.879365444E-2,-1.387837082E-1,-9.932906151E0,9.934113855E0
2.469681520E0,-8.793623000E-2,-1.722832322E-1,-9.925428391E0,9.927312981E0
2.472107353E0,-8.793623000E-2,-1.435693651E-1,-9.927821159E0,9.929248608E0
2.474533239E0,-9.750752151E-2,-1.339980662E-1,-9.918250084E0,9.919634465E0
2.476959124E0,-1.022931710E-1,-1.339980662E-1,-9.920642853E0,9.922075085E0
2.479385010E0,-8.315058798E-2,-1.172483116E-1,-9.932906151E0,9.933946134E0
2.481810843E0,-8.075776696E-2,-1.316052526E-1,-9.930213928E0,9.931414321E0
2.484236728E0,-8.315058798E-2,-1.339980662E-1,-9.920642853E0,9.921896196E0
2.486662614E0,-8.793623000E-2,-1.196411327E-1,-9.937691689E0,9.938800877E0
2.489088499E0,-8.075776696E-2,-1.196411327E-1,-9.940084457E0,9.941132473E0
2.491514385E0,-7.118647546E-2,-1.244267747E-1,-9.935298920E0,9.936333034E0
2.493940270E0,-8.793623000E-2,-1.316052526E-1,-9.925428391E0,9.926690358E0
2.496366103E0,-7.118647546E-2,-1.220339537E-1,-9.942477226E0,9.943480940E0
2.498791989E0,-7.118647546E-2,-1.268195957E-1,-9.925428391E0,9.926493815E0
2.501217874E0,-7.597211748E-2,-1.411765367E-1,-9.908679008E0,9.909975897E0
2.503643760E0,-6.640082598E-2,-1.316052526E-1,-9.930213928E0,9.931307954E0
2.506069645E0,-7.836493850E-2,-1.435693651E-1,-9.918250084E0,9.919598679E0
2.508495478E0,-7.597211748E-2,-1.316052526E-1,-9.918250084E0,9.919414117E0
2.510921364E0,-7.597211748E-2,-1.483550072E-1,-9.915857315E0,9.917258052E0
2.513347249E0,-7.836493850E-2,-1.483550072E-1,-9.925428391E0,9.926846378E0
2.515773135E0,-8.554340899E-2,-1.339980662E-1,-9.935298920E0,9.936570725E0
2.518199020E0,-6.640082598E-2,-1.100698411E-1,-9.947262764E0,9.948093332E0
2.520624906E0,-7.597211748E-2,-1.244267747E-1,-9.932906151E0,9.933975961E0
2.523050739E0,-9.032905847E-2,-1.316052526E-1,-9.923035622E0,9.924319384E0
2.525476624E0,-7.597211748E-2,-1.316052526E-1,-9.949655533E0,9.950815893E0
2.527902510E0,-7.597211748E-2,-1.316052526E-1,-9.923035622E0,9.924199094E0
2.530328395E0,-9.511470050E-2,-1.459621787E-1,-9.915857315E0,9.917387663E0
2.532754281E0,-9.990034252E-2,-1.483550072E-1,-9.944869995E0,9.946478196E0
2.535180166E0,-9.511470050E-2,-1.339980662E-1,-9.935298920E0,9.936657733E0
2.537606051E0,-7.118647546E-2,-1.244267747E-1,-9.913464546E0,9.914500938E0
2.540031885E0,-7.357929647E-2,-1.387837082E-1,-9.920642853E0,9.921886385E0
2.542457770E0,-5.922235921E-2,-1.363908947E-1,-9.930213928E0,9.931327123E0
2.544883656E0,-7.836493850E-2,-1.244267747E-1,-9.918250084E0,9.919340090E0
2.547309541E0,-5.922235921E-2,-1.507478207E-1,-9.923035622E0,9.924357316E0
2.549735426E0,-8.075776696E-2,-1.411765367E-1,-9.961619377E0,9.962947016E0
2.552161260E0,-6.879365444E-2,-1.196411327E-1,-9.937691689E0,9.938649942E0
2.554587145E0,-9.750752151E-2,-1.172483116E-1,-9.920642853E0,9.921814829E0
2.557013031E0,-8.554340899E-2,-1.603191197E-1,-9.918250084E0,9.919914547E0
2.559438916E0,-8.315058798E-2,-1.268195957E-1,-9.925428391E0,9.926586824E0
2.561864801E0,-5.204389244E-2,-1.148554832E-1,-9.915857315E0,9.916659046E0
2.564290635E0,-4.247260094E-2,-1.220339537E-1,-9.925428391E0,9.926269437E0
2.566716520E0,-8.793623000E-2,-1.220339537E-1,-9.903892517E0,9.905034682E0
2.569142406E0,-8.315058798E-2,-1.148554832E-1,-9.925428391E0,9.926441182E0
2.571568291E0,-8.793623000E-2,-1.244267747E-1,-9.906285286E0,9.907456938E0
2.573994176E0,-9.750752151E-2,-1.316052526E-1,-9.937691689E0,9.939041390E0
2.576420062E0,-8.793623000E-2,-1.220339537E-1,-9.937691689E0,9.938829970E0
2.578845895E0,-6.640082598E-2,-1.507478207E-1,-9.923035622E0,9.924402749E0
2.581271781E0,-6.640082598E-2,-1.339980662E-1,-9.930213928E0,9.931339950E0
2.583697666E0,-6.161518395E-2,-1.124626622E-1,-9.918250084E0,9.919079040E0
2.586123551E0,-5.682953820E-2,-1.292124242E-1,-9.937691689E0,9.938694157E0
2.588549437E0,-8.793623000E-2,-1.268195957E-1,-9.915857315E0,9.917058147E0
2.590975270E0,-6.640082598E-2,-1.316052526E-1,-9.930213928E0,9.931307954E0
2.593401156E0,-7.597211748E-2,-1.244267747E-1,-9.923035622E0,9.924106495E0
2.595827041E0,-5.443671346E-2,-1.292124242E-1,-9.940084457E0,9.941073293E0
2.598252926E0,-6.400800496E-2,-1.220339537E-1,-9.949655533E0,9.950609757E0
2.600678812E0,-9.511470050E-2,-1.172483116E-1,-9.932906151E0,9.934053482E0
2.603104697E0,-6.640082598E-2,-1.292124242E-1,-9.935298920E0,9.936360981E0
2.605530531E0,-7.357929647E-2,-1.244267747E-1,-9.944869995E0,9.945920528E0
2.607956416E0,-8.075776696E-2,-1.196411327E-1,-9.930213928E0,9.931262985E0
2.610382301E0,-8.554340899E-2,-1.363908947E-1,-9.932906151E0,9.934210827E0
2.612808187E0,-8.793623000E-2,-1.244267747E-1,-9.925428391E0,9.926597783E0
2.615234072E0,-8.554340899E-2,-1.076770201E-1,-9.932906151E0,9.933858093E0
2.617659958E0,-6.879365444E-2,-1.100698411E-1,-9.927821159E0,9.928669644E0
2.620085791E0,-8.075776696E-2,-1.292124242E-1,-9.930213928E0,9.931382901E0
2.622511676E0,-1.118644550E-1,-1.124626622E-1,-9.925428391E0,9.926695837E0
2.624937562E0,-8.075776696E-2,-1.339980662E-1,-9.935298920E0,9.936530678E0
2.627363447E0,-9.272187948E-2,-1.411765367E-1,-9.942477226E0,9.943911783E0
2.629789333E0,-9.272187948E-2,-1.579262912E-1,-9.920642853E0,9.922333026E0
2.632215166E0,-7.597211748E-2,-1.363908947E-1,-9.901499748E0,9.902730507E0
2.634641051E0,-7.597211748E-2,-1.459621787E-1,-9.932906151E0,9.934269038E0
2.637066937E0,-9.511470050E-2,-1.339980662E-1,-9.923035622E0,9.924396114E0
2.639492822E0,-8.315058798E-2,-1.196411327E-1,-9.923035622E0,9.924105197E0
2.641918708E0,-9.032905847E-2,-1.196411327E-1,-9.913464546E0,9.914597957E0
2.644344593E0,-9.511470050E-2,-1.124626622E-1,-9.932906151E0,9.933998151E0
2.646770426E0,-7.597211748E-2,-1.387837082E-1,-9.935298920E0,9.936558625E0
2.649196312E0,-6.640082598E-2,-1.459621787E-1,-9.918250084E0,9.919546298E0
2.651622197E0,-9.032905847E-2,-1.387837082E-1,-9.901499748E0,9.902884303E0
2.654048083E0,-7.597211748E-2,-1.363908947E-1,-9.911071777E0,9.912301348E0
2.656473968E0,-7.836493850E-2,-1.339980662E-1,-9.925428391E0,9.926642196E0
2.658899853E0,-9.511470050E-2,-1.387837082E-1,-9.913464546E0,9.914892185E0
2.661325687E0,-6.161518395E-2,-1.292124242E-1,-9.901499748E0,9.902534501E0
2.663751572E0,-7.118647546E-2,-1.435693651E-1,-9.915857315E0,9.917152110E0
2.666177458E0,-7.357929647E-2,-1.387837082E-1,-9.937691689E0,9.938933088E0
2.668603343E0,-6.640082598E-2,-1.363908947E-1,-9.937691689E0,9.938849412E0
2.671029228E0,-7.836493850E-2,-1.100698411E-1,-9.923035622E0,9.923955481E0
2.673455062E0,-9.272187948E-2,-1.292124242E-1,-9.927821159E0,9.929094932E0
2.675880947E0,-8.315058798E-2,-1.268195957E-1,-9.930213928E0,9.931371803E0
2.678306833E0,-7.836493850E-2,-1.292124242E-1,-9.937691689E0,9.938840627E0
2.680732718E0,-8.315058798E-2,-1.339980662E-1,-9.932906151E0,9.934157946E0
2.683158603E0,-6.879365444E-2,-1.268195957E-1,-9.930213928E0,9.931261976E0
2.685584489E0,-7.836493850E-2,-1.196411327E-1,-9.935298920E0,9.936328280E0
2.688010322E0,-6.640082598E-2,-1.292124242E-1,-9.911071777E0,9.912136434E0
2.690436208E0,-7.597211748E-2,-1.316052526E-1,-9.927821159E0,9.928984071E0
2.692862093E0,-7.597211748E-2,-1.172483116E-1,-9.920642853E0,9.921626557E0
2.695287978E0,-6.640082598E-2,-1.339980662E-1,-9.927821159E0,9.928947453E0
2.697713864E0,-1.046859920E-1,-1.268195957E-1,-9.932906151E0,9.934267309E0
2.700139749E0,-1.070788130E-1,-1.244267747E-1,-9.918250084E0,9.919608491E0
2.702565583E0,-6.400800496E-2,-1.339980662E-1,-9.908679008E0,9.909791733E0
2.704991468E0,-7.597211748E-2,-1.316052526E-1,-9.944869995E0,9.946030913E0
2.707417353E0,-9.032905847E-2,-1.148554832E-1,-9.932906151E0,9.933980860E0
2.709843239E0,-7.357929647E-2,-1.172483116E-1,-9.932906151E0,9.933870629E0
2.712269124E0,-8.075776696E-2,-1.100698411E-1,-9.920642853E0,9.921582122E0
2.714694958E0,-9.272187948E-2,-1.339980662E-1,-9.942477226E0,9.943812459E0
2.717120843E0,-8.554340899E-2,-1.387837082E-1,-9.930213928E0,9.931552107E0
2.719546728E0,-7.118647546E-2,-1.172483116E-1,-9.899106979E0,9.900057256E0
2.721972614E0,-6.161518395E-2,-1.196411327E-1,-9.913464546E0,9.914377930E0
2.724398499E0,-8.793623000E-2,-1.220339537E-1,-9.932906151E0,9.934044980E0
2.726824385E0,-7.597211748E-2,-1.028913707E-1,-9.949655533E0,9.950477557E0
2.729250218E0,-5.443671346E-2,-1.507478207E-1,-9.925428391E0,9.926722369E0
2.731676103E0,-6.879365444E-2,-1.244267747E-1,-9.915857315E0,9.916876569E0
2.734101989E0,-5.204389244E-2,-1.387837082E-1,-9.930213928E0,9.931320061E0
2.736527874E0,-9.032905847E-2,-1.196411327E-1,-9.915857315E0,9.916990452E0
2.738953760E0,-8.793623000E-2,-1.363908947E-1,-9.942477226E0,9.943801519E0
2.741379645E0,-7.357929647E-2,-1.363908947E-1,-9.935298920E0,9.936507486E0
2.743805478E0,-9.272187948E-2,-1.555334777E-1,-9.932906151E0,9.934556488E0
2.746231364E0,-7.597211748E-2,-1.316052526E-1,-9.940084457E0,9.941245934E0
2.748657249E0,-9.272187948E-2,-1.316052526E-1,-9.932906151E0,9.934210683E0
2.751083135E0,-9.032905847E-2,-1.339980662E-1,-9.927821159E0,9.929136306E0
2.753509020E0,-6.400800496E-2,-1.268195957E-1,-9.932906151E0,9.933921926E0
2.755934853E0,-7.357929647E-2,-1.339980662E-1,-9.935298920E0,9.936474929E0
2.758360739E0,-4.486542568E-2,-1.244267747E-1,-9.932906151E0,9.933786767E0
2.760786624E0,-7.118647546E-2,-1.148554832E-1,-9.915857315E0,9.916777984E0
2.763212510E0,-9.511470050E-2,-1.196411327E-1,-9.942477226E0,9.943651955E0
2.765638395E0,-8.075776696E-2,-1.316052526E-1,-9.937691689E0,9.938891178E0
2.768064281E0,-1.142572835E-1,-1.220339537E-1,-9.913464546E0,9.914873994E0
2.770490114E0,-9.750752151E-2,-1.124626622E-1,-9.940084457E0,9.941198851E0
2.772915999E0,-7.836493850E-2,-1.220339537E-1,-9.944869995E0,9.945927436E0
2.775341885E0,-9.032905847E-2,-1.196411327E-1,-9.944869995E0,9.945999827E0
2.777767770E0,-8.554340899E-2,-1.100698411E-1,-9.920642853E0,9.921622229E0
2.780193656E0,-8.554340899E-2,-1.172483116E-1,-9.908679008E0,9.909741901E0
2.782619489E0,-9.272187948E-2,-1.268195957E-1,-9.918250084E0,9.919494205E0
2.785045374E0,-9.032905847E-2,-1.028913707E-1,-9.925428391E0,9.926372686E0
2.787471260E0,-1.046859920E-1,-1.292124242E-1,-9.925428391E0,9.926821432E0
2.789897145E0,-7.118647546E-2,-1.124626622E-1,-9.944869995E0,9.945760634E0
2.792323031E0,-7.357929647E-2,-1.363908947E-1,-9.935298920E0,9.936507486E0
2.794748916E0,-7.836493850E-2,-1.292124242E-1,-9.925428391E0,9.926578748E0
2.797174749E0,-9.272187948E-2,-1.435693651E-1,-9.932906151E0,9.934376383E0
2.799600635E0,-9.511470050E-2,-1.292124242E-1,-9.940084457E0,9.941379264E0
2.802026520E0,-9.750752151E-2,-1.100698411E-1,-9.923035622E0,9.924125102E0
2.804452406E0,-8.075776696E-2,-1.268195957E-1,-9.925428391E0,9.926567068E0
2.806878291E0,-8.554340899E-2,-1.292124242E-1,-9.930213928E0,9.931422969E0
2.809304176E0,-1.070788130E-1,-1.220339537E-1,-9.930213928E0,9.931541009E0
2.811730010E0,-7.118647546E-2,-1.076770201E-1,-9.952048302E0,9.952885373E0
2.814155895E0,-9.990034252E-2,-1.268195957E-1,-9.930213928E0,9.931526164E0
2.816581781E0,-8.554340899E-2,-1.459621787E-1,-9.940084457E0,9.941524111E0
2.819007666E0,-5.204389244E-2,-1.363908947E-1,-9.915857315E0,9.916931851E0
2.821433551E0,-8.793623000E-2,-1.196411327E-1,-9.940084457E0,9.941193379E0
2.823859385E0,-6.879365444E-2,-1.196411327E-1,-9.944869995E0,9.945827557E0
2.826285270E0,-7.597211748E-2,-1.387837082E-1,-9.927821159E0,9.929081813E0
2.828711156E0,-7.836493850E-2,-1.387837082E-1,-9.940084457E0,9.941362130E0
2.831137041E0,-7.357929647E-2,-1.268195957E-1,-9.925428391E0,9.926511263E0
2.833562926E0,-9.750752151E-2,-1.316052526E-1,-9.923035622E0,9.924387316E0
2.835988812E0,-8.315058798E-2,-1.172483116E-1,-9.944869995E0,9.945908727E0
2.838414697E0,-6.879365444E-2,-1.220339537E-1,-9.935298920E0,9.936286503E0
2.840840531E0,-7.836493850E-2,-1.244267747E-1,-9.937691689E0,9.938779562E0
2.843266416E0,-5.682953820E-2,-1.339980662E-1,-9.930213928E0,9.931280569E0
2.845692301E0,-8.315058798E-2,-1.244267747E-1,-9.947262764E0,9.948388439E0
2.848118187E0,-8.075776696E-2,-1.507478207E-1,-9.925428391E0,9.926901604E0
2.850544072E0,-9.272187948E-2,-1.363908947E-1,-9.918250084E0,9.919621190E0
2.852969906E0,-9.272187948E-2,-1.172483116E-1,-9.932906151E0,9.934030859E0
2.855395791E0,-7.118647546E-2,-1.363908947E-1,-9.947262764E0,9.948452467E0
2.857821676E0,-8.554340899E-2,-1.507478207E-1,-9.942477226E0,9.943987931E0
2.860247562E0,-8.793623000E-2,-1.411765367E-1,-9.927821159E0,9.929214298E0
2.862673447E0,-9.032905847E-2,-1.387837082E-1,-9.937691689E0,9.939071202E0
2.865099281E0,-7.836493850E-2,-1.435693651E-1,-9.930213928E0,9.931560899E0
2.867525166E0,-7.597211748E-2,-1.339980662E-1,-9.935298920E0,9.936492936E0
2.869951051E0,-8.075776696E-2,-1.339980662E-1,-9.930213928E0,9.931446318E0
2.872376937E0,-8.793623000E-2,-1.292124242E-1,-9.915857315E0,9.917089035E0
2.874802822E0,-7.597211748E-2,-1.316052526E-1,-9.927821159E0,9.928984071E0
2.877228708E0,-8.075776696E-2,-1.316052526E-1,-9.913464546E0,9.914666967E0
2.879654541E0,-9.990034252E-2,-1.435693651E-1,-9.935298920E0,9.936838374E0
2.882080426E0,-8.793623000E-2,-1.244267747E-1,-9.923035622E0,9.924205296E0
2.884506312E0,-8.075776696E-2,-1.268195957E-1,-9.923035622E0,9.924174574E0
2.886932197E0,-7.118647546E-2,-1.292124242E-1,-9.927821159E0,9.928917178E0
2.889358083E0,-8.315058798E-2,-1.292124242E-1,-9.915857315E0,9.917047754E0
2.891783968E0,-7.597211748E-2,-1.483550072E-1,-9.918250084E0,9.919650483E0
2.894209801E0,-8.075776696E-2,-1.220339537E-1,-9.932906151E0,9.933984030E0
2.896635687E0,-9.990034252E-2,-1.316052526E-1,-9.927821159E0,9.929195989E0
2.899061572E0,-6.640082598E-2,-1.172483116E-1,-9.923035622E0,9.923950432E0
2.901487458E0,-7.118647546E-2,-1.244267747E-1,-9.927821159E0,9.928856052E0
2.903913343E0,-8.554340899E-2,-1.507478207E-1,-9.920642853E0,9.922156882E0
2.906339176E0,-7.357929647E-2,-1.052841991E-1,-9.942477226E0,9.943306898E0
2.908765062E0,-7.118647546E-2,-1.196411327E-1,-9.911071777E0,9.912049500E0
2.911190947E0,-8.075776696E-2,-1.196411327E-1,-9.908679008E0,9.909730345E0
2.913616833E0,-8.075776696E-2,-1.220339537E-1,-9.908679008E0,9.909759523E0
2.916042718E0,-9.272187948E-2,-1.292124242E-1,-9.937691689E0,9.938964196E0
2.918468603E0,-5.204389244E-2,-1.220339537E-1,-9.930213928E0,9.931100116E0
2.920894437E0,-7.597211748E-2,-1.387837082E-1,-9.932906151E0,9.934166159E0
2.923320322E0,-6.400800496E-2,-1.196411327E-1,-9.930213928E0,9.931140906E0
2.925746208E0,-6.400800496E-2,-1.100698411E-1,-9.927821159E0,9.928637639E0
2.928172093E0,-7.836493850E-2,-1.268195957E-1,-9.937691689E0,9.938809807E0
2.930597978E0,-8.793623000E-2,-1.292124242E-1,-9.925428391E0,9.926658923E0
2.933023864E0,-7.118647546E-2,-1.196411327E-1,-9.923035622E0,9.924012166E0
2.935449697E0,-6.161518395E-2,-1.339980662E-1,-9.906285286E0,9.907383110E0
2.937875583E0,-4.247260094E-2,-1.363908947E-1,-9.930213928E0,9.931241365E0
2.940301468E0,-6.400800496E-2,-1.387837082E-1,-9.937691689E0,9.938866839E0
2.942727353E0,-6.640082598E-2,-1.244267747E-1,-9.932906151E0,9.933907373E0
2.945153239E0,-6.161518395E-2,-1.124626622E-1,-9.930213928E0,9.931041886E0
2.947579072E0,-6.879365444E-2,-1.459621787E-1,-9.925428391E0,9.926739961E0
2.950004958E0,-7.357929647E-2,-1.172483116E-1,-9.940084457E0,9.941048239E0
2.952430843E0,-9.272187948E-2,-1.339980662E-1,-9.937691689E0,9.939027564E0
2.954856728E0,-9.511470050E-2,-1.411765367E-1,-9.920642853E0,9.922103216E0
2.957282614E0,-8.075776696E-2,-1.292124242E-1,-9.932906151E0,9.934074807E0
2.959708499E0,-9.032905847E-2,-1.435693651E-1,-9.915857315E0,9.917307991E0
2.962134333E0,-6.879365444E-2,-1.483550072E-1,-9.913464546E0,9.914813215E0
2.964560218E0,-8.315058798E-2,-1.196411327E-1,-9.935298920E0,9.936367175E0
2.966986103E0,-8.793623000E-2,-1.220339537E-1,-9.930213928E0,9.931353066E0
2.969411989E0,-8.315058798E-2,-1.244267747E-1,-9.915857315E0,9.916986555E0
2.971837874E0,-7.357929647E-2,-1.387837082E-1,-9.930213928E0,9.931456262E0
2.974263760E0,-8.793623000E-2,-1.292124242E-1,-9.940084457E0,9.941313175E0
2.976689593E0,-6.640082598E-2,-1.148554832E-1,-9.911071777E0,9.911959676E0
2.979115478E0,-6.161518395E-2,-1.196411327E-1,-9.913464546E0,9.914377930E0
2.981541364E0,-6.640082598E-2,-1.363908947E-1,-9.918250084E0,9.919410077E0
2.983967249E0,-8.315058798E-2,-1.339980662E-1,-9.925428391E0,9.926681129E0
2.986393135E0,-1.022931710E-1,-1.316052526E-1,-9.915857315E0,9.917258196E0
2.988819020E0,-7.357929647E-2,-1.316052526E-1,-9.920642853E0,9.921788572E0
2.991244853E0,-8.554340899E-2,-1.148554832E-1,-9.920642853E0,9.921676475E0
2.993670739E0,-6.161518395E-2,-1.196411327E-1,-9.927821159E0,9.928733223E0
2.996096624E0,-1.022931710E-1,-1.363908947E-1,-9.918250084E0,9.919715273E0
2.998522510E0,-9.032905847E-2,-1.411765367E-1,-9.930213928E0,9.931628206E0
3.000948395E0,-1.142572835E-1,-1.459621787E-1,-9.932906151E0,9.934635589E0
3.003374228E0,-7.836493850E-2,-1.387837082E-1,-9.918250084E0,9.919530569E0
3.005800114E0,-7.357929647E-2,-1.339980662E-1,-9.918250084E0,9.919428115E0
3.008225999E0,-6.400800496E-2,-1.244267747E-1,-9.918250084E0,9.919237056E0
3.010651885E0,-7.597211748E-2,-1.220339537E-1,-9.913464546E0,9.914506713E0
3.013077770E0,-6.879365444E-2,-1.196411327E-1,-9.923035622E0,9.923995290E0
3.015503656E0,-5.922235921E-2,-1.124626622E-1,-9.923035622E0,9.923849610E0
3.017929489E0,-7.118647546E-2,-1.459621787E-1,-9.937691689E0,9.939018491E0
3.020355374E0,-7.118647546E-2,-1.435693651E-1,-9.935298920E0,9.936591181E0
3.022781260E0,-8.315058798E-2,-1.555334777E-1,-9.915857315E0,9.917425622E0
3.025207145E0,-6.879365444E-2,-1.387837082E-1,-9.918250084E0,9.919459573E0
3.027633031E0,-5.922235921E-2,-1.531406492E-1,-9.949655533E0,9.951010229E0
3.030058916E0,-7.118647546E-2,-1.411765367E-1,-9.935298920E0,9.936556896E0
3.032484749E0,-7.836493850E-2,-1.316052526E-1,-9.927821159E0,9.929002668E0
3.034910635E0,-6.640082598E-2,-1.292124242E-1,-9.903892517E0,9.904957946E0
3.037336520E0,-4.965107143E-2,-1.459621787E-1,-9.944869995E0,9.946065021E0
3.039762406E0,-7.597211748E-2,-1.220339537E-1,-9.925428391E0,9.926469301E0
3.042188291E0,-8.554340899E-2,-1.100698411E-1,-9.927821159E0,9.928799828E0
3.044614124E0,-7.836493850E-2,-1.435693651E-1,-9.930213928E0,9.931560899E0
3.047040010E0,-1.094716340E-1,-1.363908947E-1,-9.930213928E0,9.931753882E0
3.049465895E0,-7.597211748E-2,-1.387837082E-1,-9.920642853E0,9.921904419E0
3.051891781E0,-8.315058798E-2,-1.339980662E-1,-9.927821159E0,9.929073596E0
3.054317666E0,-7.597211748E-2,-1.483550072E-1,-9.937691689E0,9.939089348E0
3.056743551E0,-9.032905847E-2,-1.579262912E-1,-9.930213928E0,9.931880422E0
3.059169437E0,-9.990034252E-2,-1.651047617E-1,-9.911071777E0,9.912950289E0
3.061595270E0,-7.597211748E-2,-1.531406492E-1,-9.918250084E0,9.919723209E0
3.064021156E0,-6.400800496E-2,-1.411765367E-1,-9.923035622E0,9.924246258E0
3.066447041E0,-8.075776696E-2,-1.339980662E-1,-9.930213928E0,9.931446318E0
3.068872926E0,-9.032905847E-2,-1.196411327E-1,-9.915857315E0,9.916990452E0
3.071298812E0,-6.640082598E-2,-1.459621787E-1,-9.942477226E0,9.943770282E0
3.073724645E0,-8.793623000E-2,-1.268195957E-1,-9.920642853E0,9.921843105E0
3.076150531E0,-7.118647546E-2,-1.268195957E-1,-9.925428391E0,9.926493815E0
3.078576416E0,-1.022931710E-1,-1.363908947E-1,-9.915857315E0,9.917322858E0
3.081002301E0,-8.315058798E-2,-1.220339537E-1,-9.932906151E0,9.934003770E0
3.083428187E0,-9.032905847E-2,-1.220339537E-1,-9.932906151E0,9.934066450E0
3.085854020E0,-1.166501045E-1,-1.220339537E-1,-9.940084457E0,9.941517920E0
3.088279906E0,-9.032905847E-2,-1.483550072E-1,-9.923035622E0,9.924555632E0
3.090705791E0,-6.879365444E-2,-1.268195957E-1,-9.940084457E0,9.941131465E0
3.093131676E0,-9.032905847E-2,-1.411765367E-1,-9.942477226E0,9.943889759E0
3.095557562E0,-9.990034252E-2,-1.124626622E-1,-9.915857315E0,9.916998247E0
3.097983447E0,-6.879365444E-2,-1.339980662E-1,-9.915857315E0,9.917001278E0
3.100409333E0,-8.315058798E-2,-1.411765367E-1,-9.923035622E0,9.924388182E0
3.102835166E0,-9.272187948E-2,-1.292124242E-1,-9.925428391E0,9.926702470E0
3.105261051E0,-7.118647546E-2,-1.220339537E-1,-9.940084457E0,9.941088412E0
3.107686937E0,-9.032905847E-2,-1.244267747E-1,-9.915857315E0,9.917049342E0
3.110112822E0,-8.554340899E-2,-1.220339537E-1,-9.932906151E0,9.934024087E0
3.112538708E0,-6.879365444E-2,-1.100698411E-1,-9.927821159E0,9.928669644E0
3.114964541E0,-9.032905847E-2,-1.363908947E-1,-9.920642853E0,9.921991556E0
3.117390426E0,-1.118644550E-1,-1.387837082E-1,-9.956833839E0,9.958429328E0
3.119816312E0,-1.022931710E-1,-1.316052526E-1,-9.940084457E0,9.941481925E0
3.122242197E0,-8.075776696E-2,-1.292124242E-1,-9.935298920E0,9.936467294E0
3.124668083E0,-9.511470050E-2,-1.339980662E-1,-9.930213928E0,9.931573438E0
3.127093968E0,-8.793623000E-2,-1.292124242E-1,-9.920642853E0,9.921873978E0
3.129519801E0,-7.597211748E-2,-1.076770201E-1,-9.930213928E0,9.931088297E0
3.131945687E0,-9.511470050E-2,-1.268195957E-1,-9.920642853E0,9.921909324E0
3.134371572E0,-8.793623000E-2,-1.220339537E-1,-9.918250084E0,9.919390596E0
3.136797458E0,-7.118647546E-2,-1.292124242E-1,-9.930213928E0,9.931309683E0
3.139223343E0,-9.032905847E-2,-1.316052526E-1,-9.920642853E0,9.921926924E0
3.141649228E0,-9.032905847E-2,-1.363908947E-1,-9.913464546E0,9.914814225E0
3.144075062E0,-4.486542568E-2,-1.292124242E-1,-9.925428391E0,9.926370812E0
3.146500947E0,-8.793623000E-2,-1.363908947E-1,-9.923035622E0,9.924362509E0
3.148926833E0,-8.315058798E-2,-1.268195957E-1,-9.952048302E0,9.953203636E0
3.151352718E0,-7.836493850E-2,-1.531406492E-1,-9.935298920E0,9.936788100E0
3.153778603E0,-7.597211748E-2,-1.459621787E-1,-9.920642853E0,9.922007425E0
3.156204489E0,-7.597211748E-2,-1.244267747E-1,-9.906285286E0,9.907357970E0
3.158630322E0,-7.118647546E-2,-1.603191197E-1,-9.932906151E0,9.934454909E0
3.161056208E0,-7.118647546E-2,-1.172483116E-1,-9.925428391E0,9.926376147E0
3.163482093E0,-7.118647546E-2,-1.268195957E-1,-9.932906151E0,9.933970773E0
3.165907978E0,-6.640082598E-2,-1.411765367E-1,-9.937691689E0,9.938916238E0
3.168333864E0,-6.879365444E-2,-1.268195957E-1,-9.927821159E0,9.928869460E0
3.170759697E0,-8.315058798E-2,-1.268195957E-1,-9.932906151E0,9.934063712E0
3.173185583E0,-7.357929647E-2,-1.387837082E-1,-9.920642853E0,9.921886385E0
3.175611468E0,-6.400800496E-2,-1.387837082E-1,-9.918250084E0,9.919427537E0
3.178037353E0,-5.204389244E-2,-1.387837082E-1,-9.925428391E0,9.926535056E0
3.180463239E0,-8.315058798E-2,-1.411765367E-1,-9.935298920E0,9.936649811E0
3.182889124E0,-7.836493850E-2,-1.292124242E-1,-9.942477226E0,9.943625612E0
3.185314958E0,-9.511470050E-2,-1.292124242E-1,-9.947262764E0,9.948556637E0
3.187740843E0,-8.554340899E-2,-1.339980662E-1,-9.940084457E0,9.941355651E0
3.190166728E0,-7.597211748E-2,-1.363908947E-1,-9.937691689E0,9.938917966E0
3.192592614E0,-9.511470050E-2,-1.339980662E-1,-9.940084457E0,9.941442617E0
3.195018499E0,-8.315058798E-2,-1.411765367E-1,-9.918250084E0,9.919603297E0
3.197444333E0,-8.315058798E-2,-1.292124242E-1,-9.930213928E0,9.931402647E0
3.199870218E0,-6.879365444E-2,-1.268195957E-1,-9.937691689E0,9.938738948E0
3.202296103E0,-7.836493850E-2,-1.292124242E-1,-9.927821159E0,9.928971240E0
3.204721989E0,-8.075776696E-2,-1.124626622E-1,-9.940084457E0,9.941048671E0
3.207147874E0,-8.315058798E-2,-1.244267747E-1,-9.935298920E0,9.936425950E0
3.209573760E0,-9.272187948E-2,-1.268195957E-1,-9.935298920E0,9.936540906E0
3.211999645E0,-7.597211748E-2,-1.339980662E-1,-9.940084457E0,9.941277899E0
3.214425478E0,-8.315058798E-2,-1.100698411E-1,-9.954441071E0,9.955396849E0
3.216851364E0,-6.161518395E-2,-1.363908947E-1,-9.944869995E0,9.945996085E0
3.219277249E0,-6.400800496E-2,-1.196411327E-1,-9.935298920E0,9.936225423E0
3.221703135E0,-7.836493850E-2,-1.363908947E-1,-9.930213928E0,9.931459722E0
3.224129020E0,-7.597211748E-2,-1.220339537E-1,-9.908679008E0,9.909721678E0
3.226554853E0,-8.075776696E-2,-1.387837082E-1,-9.923035622E0,9.924334672E0
3.228980739E0,-9.032905847E-2,-1.339980662E-1,-9.918250084E0,9.919566500E0
3.231406624E0,-6.161518395E-2,-1.268195957E-1,-9.920642853E0,9.921644735E0
3.233832510E0,-6.879365444E-2,-1.363908947E-1,-9.930213928E0,9.931388810E0
3.236258395E0,-8.554340899E-2,-1.220339537E-1,-9.920642853E0,9.921762171E0
3.238684281E0,-1.142572835E-1,-1.220339537E-1,-9.920642853E0,9.922051281E0
3.241110114E0,-9.750752151E-2,-1.244267747E-1,-9.927821159E0,9.929079651E0
3.243535999E0,-7.118647546E-2,-1.148554832E-1,-9.944869995E0,9.945787979E0
3.245961885E0,-8.075776696E-2,-1.316052526E-1,-9.930213928E0,9.931414321E0
3.248387770E0,-7.597211748E-2,-1.411765367E-1,-9.925428391E0,9.926723090E0
3.250813656E0,-7.597211748E-2,-1.100698411E-1,-9.935298920E0,9.936199060E0
3.253239541E0,-5.922235921E-2,-1.339980662E-1,-9.942477226E0,9.943556515E0
3.255665374E0,-7.118647546E-2,-1.363908947E-1,-9.918250084E0,9.919443267E0
3.258091260E0,-7.836493850E-2,-1.292124242E-1,-9.942477226E0,9.943625612E0
3.260517145E0,-7.357929647E-2,-1.531406492E-1,-9.937691689E0,9.939143930E0
3.262943031E0,-7.597211748E-2,-1.627119333E-1,-9.923035622E0,9.924660341E0
3.265368916E0,-5.443671346E-2,-1.292124242E-1,-9.925428391E0,9.926418687E0
3.267794749E0,-8.075776696E-2,-1.196411327E-1,-9.932906151E0,9.933954923E0
3.270220635E0,-7.357929647E-2,-1.363908947E-1,-9.932906151E0,9.934115008E0
3.272646520E0,-6.400800496E-2,-1.387837082E-1,-9.949655533E0,9.950829270E0
3.275072406E0,-5.922235921E-2,-1.172483116E-1,-9.925428391E0,9.926297557E0
3.277498291E0,-7.836493850E-2,-1.339980662E-1,-9.935298920E0,9.936511519E0
3.279924176E0,-9.990034252E-2,-1.196411327E-1,-9.942477226E0,9.943698883E0
3.282350010E0,-5.443671346E-2,-1.148554832E-1,-9.927821159E0,9.928634756E0
3.284775895E0,-5.443671346E-2,-1.172483116E-1,-9.935298920E0,9.936139851E0
3.287201781E0,-4.247260094E-2,-1.076770201E-1,-9.927821159E0,9.928495920E0
3.289627666E0,-8.075776696E-2,-1.363908947E-1,-9.937691689E0,9.938955699E0
3.292053551E0,-7.597211748E-2,-1.220339537E-1,-9.940084457E0,9.941123833E0
3.294479437E0,-9.032905847E-2,-1.244267747E-1,-9.925428391E0,9.926619268E0
3.296905270E0,-9.272187948E-2,-1.196411327E-1,-9.923035622E0,9.924190007E0
3.299331156E0,-1.118644550E-1,-1.196411327E-1,-9.944869995E0,9.946218723E0
3.301757041E0,-9.990034252E-2,-1.363908947E-1,-9.925428391E0,9.926868151E0
3.304182926E0,-8.554340899E-2,-1.268195957E-1,-9.940084457E0,9.941261485E0
3.306608812E0,-7.118647546E-2,-1.268195957E-1,-9.935298920E0,9.936363286E0
3.309034645E0,-7.357929647E-2,-1.339980662E-1,-9.925428391E0,9.926605569E0
3.311460531E0,-9.032905847E-2,-1.244267747E-1,-9.923035622E0,9.924226786E0
3.313886416E0,-7.357929647E-2,-1.196411327E-1,-9.913464546E0,9.914459502E0
3.316312301E0,-5.204389244E-2,-1.244267747E-1,-9.930213928E0,9.931129807E0
3.318738187E0,-6.400800496E-2,-1.411765367E-1,-9.952048302E0,9.953255409E0
3.321164072E0,-8.075776696E-2,-1.076770201E-1,-9.935298920E0,9.936210585E0
3.323589958E0,-7.118647546E-2,-1.052841991E-1,-9.923035622E0,9.923849466E0
3.326015791E0,-9.990034252E-2,-1.459621787E-1,-9.906285286E0,9.907864210E0
3.328441676E0,-8.793623000E-2,-1.459621787E-1,-9.927821159E0,9.929283494E0
3.330867562E0,-7.836493850E-2,-1.244267747E-1,-9.930213928E0,9.931302621E0
3.333293447E0,-9.750752151E-2,-1.220339537E-1,-9.954441071E0,9.955666579E0
3.335719333E0,-4.965107143E-2,-1.100698411E-1,-9.918250084E0,9.918985096E0
3.338145166E0,-6.879365444E-2,-1.411765367E-1,-9.923035622E0,9.924278278E0
3.340571051E0,-7.836493850E-2,-1.220339537E-1,-9.915857315E0,9.916917850E0
3.342996937E0,-7.118647546E-2,-1.316052526E-1,-9.906285286E0,9.907415184E0
3.345422822E0,-1.022931710E-1,-1.316052526E-1,-9.930213928E0,9.931612784E0
3.347848708E0,-6.640082598E-2,-1.244267747E-1,-9.915857315E0,9.916860258E0
3.350274593E0,-7.357929647E-2,-1.363908947E-1,-9.911071777E0,9.912283297E0
3.352700426E0,-9.750752151E-2,-1.172483116E-1,-9.923035622E0,9.924207315E0
3.355126312E0,-1.070788130E-1,-1.196411327E-1,-9.923035622E0,9.924334528E0
3.357552197E0,-9.511470050E-2,-1.268195957E-1,-9.923035622E0,9.924301787E0
3.359978083E0,-4.965107143E-2,-1.316052526E-1,-9.923035622E0,9.924032503E0
3.362403968E0,-7.836493850E-2,-1.316052526E-1,-9.930213928E0,9.931395152E0
3.364829853E0,-9.272187948E-2,-1.363908947E-1,-9.920642853E0,9.922013628E0
3.367255687E0,-8.793623000E-2,-1.339980662E-1,-9.925428391E0,9.926722369E0
3.369681572E0,-6.161518395E-2,-1.316052526E-1,-9.930213928E0,9.931277110E0
3.372107458E0,-5.682953820E-2,-1.268195957E-1,-9.942477226E0,9.943448406E0
3.374533343E0,-4.965107143E-2,-1.387837082E-1,-9.947262764E0,9.948354771E0
3.376959228E0,-5.682953820E-2,-1.268195957E-1,-9.923035622E0,9.924008704E0
3.379385114E0,-9.990034252E-2,-1.411765367E-1,-9.927821159E0,9.929327463E0
3.381810947E0,-7.597211748E-2,-1.363908947E-1,-9.920642853E0,9.921871237E0
3.384236833E0,-9.511470050E-2,-1.292124242E-1,-9.944869995E0,9.946164179E0
3.386662718E0,-9.511470050E-2,-1.268195957E-1,-9.932906151E0,9.934171058E0
3.389088603E0,-9.750752151E-2,-1.292124242E-1,-9.925428391E0,9.926748325E0
3.391514489E0,-6.161518395E-2,-1.316052526E-1,-9.935298920E0,9.936361557E0
3.393940374E0,-9.032905847E-2,-1.316052526E-1,-9.932906151E0,9.934188637E0
3.396366208E0,-7.118647546E-2,-1.411765367E-1,-9.937691689E0,9.938949362E0
3.398792093E0,-8.075776696E-2,-1.363908947E-1,-9.918250084E0,9.919516572E0
3.401217978E0,-8.793623000E-2,-1.411765367E-1,-9.915857315E0,9.917252134E0
3.403643864E0,-7.118647546E-2,-1.363908947E-1,-9.930213928E0,9.931405673E0
3.406069749E0,-8.554340899E-2,-1.339980662E-1,-9.937691689E0,9.938963188E0
3.408495583E0,-9.511470050E-2,-1.363908947E-1,-9.944869995E0,9.946260026E0
3.410921468E0,-9.032905847E-2,-1.507478207E-1,-9.930213928E0,9.931768871E0
3.413347353E0,-7.118647546E-2,-1.244267747E-1,-9.949655533E0,9.950688155E0
3.415773239E0,-6.879365444E-2,-1.268195957E-1,-9.935298920E0,9.936346431E0
3.418199124E0,-1.046859920E-1,-1.172483116E-1,-9.923035622E0,9.924280441E0
3.420625010E0,-7.597211748E-2,-1.292124242E-1,-9.920642853E0,9.921775155E0
3.423050843E0,-8.075776696E-2,-1.339980662E-1,-9.915857315E0,9.917091489E0
3.425476728E0,-8.315058798E-2,-1.531406492E-1,-9.920642853E0,9.922173184E0
3.427902614E0,-6.640082598E-2,-1.603191197E-1,-9.952048302E0,9.953561005E0
3.430328499E0,-8.315058798E-2,-1.387837082E-1,-9.944869995E0,9.946185910E0
3.432754385E0,-6.879365444E-2,-1.220339537E-1,-9.899106979E0,9.900098173E0
3.435180270E0,-6.400800496E-2,-1.100698411E-1,-9.923035622E0,9.923852495E0
3.437606103E0,-8.075776696E-2,-1.172483116E-1,-9.923035622E0,9.924056879E0
3.440031989E0,-5.443671346E-2,-1.459621787E-1,-9.937691689E0,9.938912637E0
3.442457874E0,-5.443671346E-2,-1.244267747E-1,-9.944869995E0,9.945797333E0
3.444883760E0,-6.161518395E-2,-1.244267747E-1,-9.920642853E0,9.921614438E0
3.447309645E0,-7.597211748E-2,-1.292124242E-1,-9.935298920E0,9.936429552E0
3.449735478E0,-9.272187948E-2,-1.124626622E-1,-9.920642853E0,9.921713552E0
3.452161364E0,-7.118647546E-2,-1.363908947E-1,-9.940084457E0,9.941275019E0
3.454587249E0,-6.161518395E-2,-1.220339537E-1,-9.925428391E0,9.926369802E0
3.457013135E0,-9.032905847E-2,-1.292124242E-1,-9.899106979E0,9.900362326E0
3.459439020E0,-8.315058798E-2,-1.316052526E-1,-9.915857315E0,9.917079220E0
3.461864906E0,-8.075776696E-2,-1.316052526E-1,-9.930213928E0,9.931414321E0
3.464290739E0,-6.879365444E-2,-1.387837082E-1,-9.925428391E0,9.926637005E0
3.466716624E0,-6.879365444E-2,-1.627119333E-1,-9.935298920E0,9.936869344E0
3.469142510E0,-7.357929647E-2,-1.387837082E-1,-9.930213928E0,9.931456262E0
3.471568395E0,-6.879365444E-2,-1.268195957E-1,-9.937691689E0,9.938738948E0
3.473994281E0,-1.022931710E-1,-1.172483116E-1,-9.925428391E0,9.926647964E0
3.476420166E0,-1.166501045E-1,-1.148554832E-1,-9.923035622E0,9.924385874E0
3.478845999E0,-8.793623000E-2,-1.100698411E-1,-9.925428391E0,9.926428204E0
3.481271885E0,-7.597211748E-2,-1.196411327E-1,-9.932906151E0,9.933917171E0
3.483697770E0,-7.118647546E-2,-1.100698411E-1,-9.918250084E0,9.919116272E0
3.486123656E0,-8.554340899E-2,-1.316052526E-1,-9.935298920E0,9.936538745E0
3.488549541E0,-9.272187948E-2,-1.268195957E-1,-9.925428391E0,9.926671612E0
3.490975426E0,-7.118647546E-2,-1.244267747E-1,-9.925428391E0,9.926463533E0
3.493401260E0,-8.554340899E-2,-1.124626622E-1,-9.923035622E0,9.924041590E0
3.495827145E0,-5.204389244E-2,-1.292124242E-1,-9.937691689E0,9.938667945E0
3.498253031E0,-4.007977992E-2,-1.292124242E-1,-9.940084457E0,9.941005043E0
3.500678916E0,-8.075776696E-2,-1.339980662E-1,-9.927821159E0,9.929053846E0
3.503104801E0,-8.793623000E-2,-1.411765367E-1,-9.930213928E0,9.931606731E0
3.505530635E0,-9.032905847E-2,-1.220339537E-1,-9.923035622E0,9.924197074E0
3.507956520E0,-7.357929647E-2,-1.220339537E-1,-9.927821159E0,9.928843798E0
3.510382406E0,-6.161518395E-2,-1.124626622E-1,-9.932906151E0,9.933733884E0
3.512808291E0,-8.793623000E-2,-1.124626622E-1,-9.930213928E0,9.931240068E0
3.515234176E0,-8.315058798E-2,-1.124626622E-1,-9.923035622E0,9.924021252E0
3.517660062E0,-7.357929647E-2,-1.268195957E-1,-9.930213928E0,9.931296279E0
3.520085895E0,-7.118647546E-2,-1.220339537E-1,-9.913464546E0,9.914471197E0
3.522511781E0,-8.075776696E-2,-1.363908947E-1,-9.927821159E0,9.929086427E0
3.524937666E0,-6.640082598E-2,-1.292124242E-1,-9.935298920E0,9.936360981E0
3.527363551E0,-7.597211748E-2,-1.411765367E-1,-9.947262764E0,9.948554622E0
3.529789437E0,-9.272187948E-2,-1.172483116E-1,-9.930213928E0,9.931338942E0
3.532215322E0,-9.990034252E-2,-1.076770201E-1,-9.925428391E0,9.926515157E0
3.534641156E0,-9.750752151E-2,-1.316052526E-1,-9.942477226E0,9.943826278E0
3.537067041E0,-6.640082598E-2,-1.363908947E-1,-9.932906151E0,9.934064432E0
3.539492926E0,-8.315058798E-2,-1.196411327E-1,-9.930213928E0,9.931282731E0
3.541918812E0,-8.554340899E-2,-1.076770201E-1,-9.930213928E0,9.931166129E0
3.544344697E0,-8.793623000E-2,-1.387837082E-1,-9.932906151E0,9.934264860E0
3.546770583E0,-7.357929647E-2,-1.507478207E-1,-9.930213928E0,9.931630656E0
3.549196416E0,-7.118647546E-2,-1.316052526E-1,-9.927821159E0,9.928948606E0
3.551622301E0,-6.161518395E-2,-1.292124242E-1,-9.901499748E0,9.902534501E0
3.554048187E0,-7.118647546E-2,-1.339980662E-1,-9.920642853E0,9.921803143E0
3.556474072E0,-7.357929647E-2,-1.339980662E-1,-9.932906151E0,9.934082444E0
3.558899958E0,-9.032905847E-2,-1.220339537E-1,-9.937691689E0,9.938851429E0
3.561325843E0,-6.640082598E-2,-1.268195957E-1,-9.927821159E0,9.928853169E0
3.563751676E0,-7.357929647E-2,-1.148554832E-1,-9.942477226E0,9.943412849E0
3.566177562E0,-8.315058798E-2,-1.435693651E-1,-9.920642853E0,9.922030074E0
3.568603447E0,-7.836493850E-2,-1.387837082E-1,-9.944869995E0,9.946147053E0
3.571029333E0,-5.922235921E-2,-1.579262912E-1,-9.944869995E0,9.946300178E0
3.573455218E0,-8.554340899E-2,-1.363908947E-1,-9.927821159E0,9.929126504E0
3.575881103E0,-1.166501045E-1,-1.244267747E-1,-9.923035622E0,9.924501258E0
3.578306937E0,-9.272187948E-2,-1.148554832E-1,-9.932906151E0,9.934002906E0
3.580732822E0,-8.075776696E-2,-1.124626622E-1,-9.927821159E0,9.928786564E0
3.583158708E0,-8.793623000E-2,-1.244267747E-1,-9.923035622E0,9.924205296E0
3.585584593E0,-8.315058798E-2,-1.339980662E-1,-9.949655533E0,9.950905221E0
3.588010478E0,-7.597211748E-2,-1.268195957E-1,-9.920642853E0,9.921744281E0
3.590436364E0,-6.400800496E-2,-1.507478207E-1,-9.927821159E0,9.929171914E0
3.592862197E0,-6.879365444E-2,-1.507478207E-1,-9.925428391E0,9.926811482E0
3.595288083E0,-7.597211748E-2,-1.316052526E-1,-9.935298920E0,9.936460956E0
3.597713968E0,-8.075776696E-2,-1.292124242E-1,-9.937691689E0,9.938859782E0
3.600139853E0,-7.118647546E-2,-1.316052526E-1,-9.944869995E0,9.945995510E0
3.602565739E0,-9.032905847E-2,-1.363908947E-1,-9.930213928E0,9.931561331E0
3.604991624E0,-6.879365444E-2,-1.411765367E-1,-9.911071777E0,9.912315933E0
3.607417458E0,-6.400800496E-2,-1.459621787E-1,-9.932906151E0,9.934184747E0
3.609843343E0,-6.640082598E-2,-1.363908947E-1,-9.908679008E0,9.909840122E0
3.612269228E0,-7.118647546E-2,-1.220339537E-1,-9.930213928E0,9.931218881E0
3.614695114E0,-6.879365444E-2,-1.172483116E-1,-9.937691689E0,9.938621425E0
3.617120999E0,-5.443671346E-2,-1.244267747E-1,-9.935298920E0,9.936227151E0
3.619546833E0,-9.511470050E-2,-1.435693651E-1,-9.906285286E0,9.907782150E0
3.621972718E0,-7.836493850E-2,-1.148554832E-1,-9.923035622E0,9.924009714E0
3.624398603E0,-7.836493850E-2,-1.363908947E-1,-9.925428391E0,9.926674784E0
3.626824489E0,-7.118647546E-2,-1.603191197E-1,-9.923035622E0,9.924585920E0
3.629250374E0,-8.315058798E-2,-1.363908947E-1,-9.930213928E0,9.931498636E0
3.631676260E0,-8.793623000E-2,-1.244267747E-1,-9.930213928E0,9.931382757E0
3.634102093E0,-8.554340899E-2,-1.268195957E-1,-9.913464546E0,9.914644734E0
3.636527978E0,-1.118644550E-1,-1.292124242E-1,-9.932906151E0,9.934376382E0
3.638953864E0,-8.793623000E-2,-1.172483116E-1,-9.911071777E0,9.912155352E0
3.641379749E0,-7.836493850E-2,-1.268195957E-1,-9.925428391E0,9.926547890E0
3.643805635E0,-7.597211748E-2,-1.268195957E-1,-9.937691689E0,9.938791228E0
3.646231520E0,-7.118647546E-2,-1.100698411E-1,-9.932906151E0,9.933771061E0
3.648657353E0,-5.922235921E-2,-1.196411327E-1,-9.923035622E0,9.923933557E0
3.651083239E0,-8.793623000E-2,-1.220339537E-1,-9.915857315E0,9.916998102E0
3.653509124E0,-8.793623000E-2,-1.268195957E-1,-9.915857315E0,9.917058147E0
3.655935010E0,-7.118647546E-2,-1.244267747E-1,-9.966405869E0,9.967436755E0
3.658360895E0,-7.836493850E-2,-1.028913707E-1,-9.923035622E0,9.923878458E0
3.660786781E0,-8.793623000E-2,-1.244267747E-1,-9.923035622E0,9.924205296E0
3.663212614E0,-9.032905847E-2,-1.148554832E-1,-9.920642853E0,9.921718890E0
3.665638499E0,-8.315058798E-2,-1.316052526E-1,-9.925428391E0,9.926649117E0
3.668064385E0,-6.400800496E-2,-1.244267747E-1,-9.942477226E0,9.943461794E0
3.670490270E0,-7.357929647E-2,-1.316052526E-1,-9.944869995E0,9.946012924E0
3.672916156E0,-5.443671346E-2,-1.363908947E-1,-9.918250084E0,9.919337204E0
3.675342041E0,-7.836493850E-2,-1.244267747E-1,-9.942477226E0,9.943564576E0
3.677767874E0,-8.793623000E-2,-1.339980662E-1,-9.935298920E0,9.936591613E0
3.680193760E0,-8.554340899E-2,-1.387837082E-1,-9.923035622E0,9.924374768E0
3.682619645E0,-6.879365444E-2,-1.411765367E-1,-9.920642853E0,9.921885808E0
3.685045531E0,-7.836493850E-2,-1.316052526E-1,-9.927821159E0,9.929002668E0
3.687471416E0,-7.836493850E-2,-1.483550072E-1,-9.947262764E0,9.948677639E0
3.689897249E0,-9.272187948E-2,-1.411765367E-1,-9.944869995E0,9.946304207E0
3.692323135E0,-7.836493850E-2,-1.028913707E-1,-9.932906151E0,9.933748150E0
3.694749020E0,-9.511470050E-2,-1.100698411E-1,-9.927821159E0,9.928886904E0
3.697174906E0,-9.032905847E-2,-1.339980662E-1,-9.930213928E0,9.931528758E0
3.699600791E0,-7.597211748E-2,-1.292124242E-1,-9.927821159E0,9.928952643E0
3.702026676E0,-4.725824669E-2,-1.316052526E-1,-9.918250084E0,9.919235757E0
3.704452510E0,-6.879365444E-2,-1.387837082E-1,-9.937691689E0,9.938898811E0
3.706878395E0,-6.161518395E-2,-1.172483116E-1,-9.930213928E0,9.931097233E0
3.709304281E0,-7.836493850E-2,-1.387837082E-1,-9.911071777E0,9.912353190E0
3.711730166E0,-7.118647546E-2,-1.292124242E-1,-9.908679008E0,9.909777145E0
3.714156051E0,-9.990034252E-2,-1.220339537E-1,-9.949655533E0,9.950905365E0
3.716581937E0,-9.750752151E-2,-1.387837082E-1,-9.908679008E0,9.910130591E0
3.719007770E0,-6.879365444E-2,-1.387837082E-1,-9.932906151E0,9.934113855E0
3.721433656E0,-6.879365444E-2,-1.603191197E-1,-9.937691689E0,9.939222851E0
3.723859541E0,-7.357929647E-2,-1.316052526E-1,-9.923035622E0,9.924181065E0
3.726285426E0,-7.357929647E-2,-1.339980662E-1,-9.947262764E0,9.948437359E0
3.728711312E0,-7.597211748E-2,-1.387837082E-1,-9.927821159E0,9.929081813E0
3.731137197E0,-9.990034252E-2,-1.339980662E-1,-9.918250084E0,9.919658275E0
3.733563031E0,-8.315058798E-2,-1.435693651E-1,-9.940084457E0,9.941468966E0
3.735988916E0,-8.075776696E-2,-1.316052526E-1,-9.942477226E0,9.943676139E0
3.738414801E0,-7.118647546E-2,-1.363908947E-1,-9.935298920E0,9.936490055E0
3.740840687E0,-7.597211748E-2,-1.339980662E-1,-9.920642853E0,9.921838633E0
3.743266572E0,-5.443671346E-2,-1.339980662E-1,-9.940084457E0,9.941136648E0
3.745692406E0,-7.118647546E-2,-1.387837082E-1,-9.947262764E0,9.948485559E0
3.748118291E0,-4.725824669E-2,-1.316052526E-1,-9.925428391E0,9.926413351E0
3.750544176E0,-6.879365444E-2,-1.339980662E-1,-9.918250084E0,9.919393771E0
3.752970062E0,-4.007977992E-2,-1.148554832E-1,-9.918250084E0,9.918996063E0
3.755395947E0,-8.554340899E-2,-1.244267747E-1,-9.920642853E0,9.921791890E0
3.757821833E0,-9.750752151E-2,-1.387837082E-1,-9.915857315E0,9.917307847E0
3.760247666E0,-4.965107143E-2,-1.483550072E-1,-9.915857315E0,9.917091344E0
3.762673551E0,-7.357929647E-2,-1.316052526E-1,-9.899106979E0,9.900255191E0
3.765099437E0,-5.204389244E-2,-1.435693651E-1,-9.918250084E0,9.919425662E0
3.767525322E0,-8.554340899E-2,-1.196411327E-1,-9.937691689E0,9.938779994E0
3.769951208E0,-9.032905847E-2,-1.316052526E-1,-9.930213928E0,9.931496762E0
3.772377093E0,-8.793623000E-2,-1.459621787E-1,-9.918250084E0,9.919713830E0
3.774802926E0,-7.118647546E-2,-1.387837082E-1,-9.918250084E0,9.919476456E0
3.777228812E0,-6.879365444E-2,-1.387837082E-1,-9.918250084E0,9.919459573E0
3.779654697E0,-8.793623000E-2,-1.124626622E-1,-9.920642853E0,9.921669983E0
3.782080583E0,-7.836493850E-2,-9.810572863E-2,-9.930213928E0,9.931007726E0
3.784506468E0,-8.075776696E-2,-1.316052526E-1,-9.944869995E0,9.946068619E0
3.786932353E0,-6.640082598E-2,-1.579262912E-1,-9.935298920E0,9.936775856E0
3.789358187E0,-8.075776696E-2,-1.220339537E-1,-9.923035622E0,9.924114573E0
3.791784072E0,-9.272187948E-2,-1.316052526E-1,-9.925428391E0,9.926733905E0
3.794209958E0,-7.836493850E-2,-1.459621787E-1,-9.913464546E0,9.914848730E0
3.796635843E0,-5.922235921E-2,-1.411765367E-1,-9.944869995E0,9.946048327E0
3.799061728E0,-9.990034252E-2,-1.411765367E-1,-9.920642853E0,9.922150246E0
3.801487614E0,-7.597211748E-2,-9.810572863E-2,-9.932906151E0,9.933681145E0
3.803913447E0,-9.511470050E-2,-1.172483116E-1,-9.937691689E0,9.938838467E0
3.806339333E0,-8.793623000E-2,-1.268195957E-1,-9.925428391E0,9.926628064E0
3.808765218E0,-7.118647546E-2,-1.268195957E-1,-9.937691689E0,9.938755798E0
3.811191103E0,-7.118647546E-2,-1.268195957E-1,-9.913464546E0,9.914531256E0
3.813616989E0,-5.204389244E-2,-1.220339537E-1,-9.937691689E0,9.938577209E0
3.816042874E0,-6.879365444E-2,-1.339980662E-1,-9.940084457E0,9.941225632E0
3.818468708E0,-6.640082598E-2,-1.363908947E-1,-9.940084457E0,9.941241903E0
3.820894593E0,-6.879365444E-2,-1.148554832E-1,-9.935298920E0,9.936200933E0
3.823320478E0,-9.032905847E-2,-1.363908947E-1,-9.940084457E0,9.941430523E0
3.825746364E0,-7.836493850E-2,-1.387837082E-1,-9.925428391E0,9.926707950E0
3.828172249E0,-8.793623000E-2,-1.244267747E-1,-9.920642853E0,9.921812809E0
3.830598135E0,-7.597211748E-2,-1.244267747E-1,-9.915857315E0,9.916928964E0
3.833023968E0,-8.554340899E-2,-1.052841991E-1,-9.925428391E0,9.926355382E0
3.835449853E0,-7.836493850E-2,-1.172483116E-1,-9.927821159E0,9.928822750E0
3.837875739E0,-7.357929647E-2,-1.172483116E-1,-9.925428391E0,9.926393596E0
3.840301624E0,-5.204389244E-2,-1.220339537E-1,-9.932906151E0,9.933792098E0
3.842727510E0,-5.443671346E-2,-1.196411327E-1,-9.937691689E0,9.938560935E0
3.845153395E0,-7.357929647E-2,-1.363908947E-1,-9.925428391E0,9.926638158E0
3.847579228E0,-8.554340899E-2,-1.507478207E-1,-9.915857315E0,9.917372075E0
3.850005114E0,-8.315058798E-2,-1.387837082E-1,-9.915857315E0,9.917177080E0
3.852430999E0,-8.075776696E-2,-1.339980662E-1,-9.935298920E0,9.936530678E0
3.854856885E0,-9.990034252E-2,-1.531406492E-1,-9.932906151E0,9.934588906E0
3.857282770E0,-7.597211748E-2,-1.124626622E-1,-9.932906151E0,9.933833309E0
3.859708656E0,-9.032905847E-2,-1.244267747E-1,-9.947262764E0,9.948451028E0
3.862134489E0,-1.022931710E-1,-1.316052526E-1,-9.932906151E0,9.934304628E0
3.864560374E0,-8.075776696E-2,-1.244267747E-1,-9.935298920E0,9.936406215E0
3.866986260E0,-8.554340899E-2,-1.483550072E-1,-9.940084457E0,9.941559531E0
3.869412145E0,-8.315058798E-2,-1.459621787E-1,-9.930213928E0,9.931634691E0
3.871838031E0,-7.836493850E-2,-1.100698411E-1,-9.925428391E0,9.926348028E0
3.874263916E0,-4.725824669E-2,-1.076770201E-1,-9.923035622E0,9.923732344E0
3.876689749E0,-7.118647546E-2,-1.292124242E-1,-9.930213928E0,9.931309683E0
3.879115635E0,-9.511470050E-2,-1.363908947E-1,-9.925428391E0,9.926821144E0
3.881541520E0,-8.075776696E-2,-1.363908947E-1,-9.940084457E0,9.941348164E0
3.883967406E0,-9.750752151E-2,-1.148554832E-1,-9.920642853E0,9.921786841E0
3.886393291E0,-7.357929647E-2,-1.124626622E-1,-9.908679008E0,9.909590378E0
3.888819124E0,-9.032905847E-2,-1.268195957E-1,-9.925428391E0,9.926649550E0
