"Time (s)","Acceleration x (m/s^2)","Acceleration y (m/s^2)","Acceleration z (m/s^2)"
2.875923600E-2,-1.519741535E0,5.817549825E-1,9.739685059E0
3.118366300E-2,-1.548455358E0,6.320042610E-1,9.559925079E0
3.360892300E-2,-1.538884044E0,6.918248534E-1,9.380462646E0
3.603366300E-2,-1.558026671E0,7.229315639E-1,9.251250267E0
3.845814200E-2,-1.596311808E0,7.588238716E-1,9.148359299E0
4.088324600E-2,-1.632204175E0,7.372884750E-1,9.059525490E0
4.330850600E-2,-1.675274968E0,7.181459069E-1,8.923134804E0
4.573376700E-2,-1.759023786E0,6.990033388E-1,8.793922424E0
4.815902700E-2,-1.782951951E0,6.607181430E-1,8.707780838E0
5.058428800E-2,-1.861915112E0,6.128616929E-1,8.614460945E0
5.300965200E-2,-1.861915112E0,6.128616929E-1,8.614460945E0
5.543491300E-2,-1.895414591E0,5.434698462E-1,8.477770805E0
5.790887100E-2,-1.948056698E0,4.788636267E-1,8.432307243E0
6.038277700E-2,-1.931306958E0,4.501497746E-1,8.396414757E0
6.281303800E-2,-1.952842355E0,4.094717801E-1,8.360522270E0
6.523840200E-2,-1.979163408E0,3.903291821E-1,8.355736732E0
6.766397500E-2,-2.027318954E0,3.759722710E-1,8.319844246E0
7.008944400E-2,-2.017747641E0,3.640081584E-1,8.350951195E0
7.251501700E-2,-2.022533417E0,3.568296731E-1,8.372486115E0
7.494059000E-2,-2.044068813E0,3.472583890E-1,8.391629219E0
7.736626700E-2,-2.084746838E0,3.664009571E-1,8.405985832E0
7.979204800E-2,-2.084746838E0,3.472583890E-1,8.482556343E0
8.221788100E-2,-2.103889227E0,3.182454109E-1,8.513663292E0
8.464621500E-2,-2.089532375E0,3.086741269E-1,8.573483467E0
8.706975600E-2,-2.111067772E0,3.233301640E-1,8.580661774E0
8.949569400E-2,-2.079961061E0,3.472583890E-1,8.683852196E0
9.192163100E-2,-2.070389748E0,4.118646085E-1,8.777172089E0
9.434756900E-2,-2.024926186E0,4.549354017E-1,8.880064011E0
9.677350600E-2,-2.012962103E0,4.788636267E-1,8.997312546E0
9.919944400E-2,-1.964806437E0,5.027918816E-1,9.112167358E0
1.016253810E-1,-1.955235243E0,5.769693851E-1,9.198608398E0
1.040512670E-1,-1.912164450E0,5.913262963E-1,9.284749985E0
1.064772040E-1,-1.888236165E0,6.272186637E-1,9.387641907E0
1.089031420E-1,-1.852343798E0,6.631109715E-1,9.471389771E0
1.113290790E-1,-1.830808401E0,6.678966284E-1,9.538389206E0
1.137550170E-1,-1.840379715E0,7.205387354E-1,9.605388641E0
1.161809540E-1,-1.811665893E0,7.133602500E-1,9.667601585E0
1.186068920E-1,-1.821237087E0,7.372884750E-1,9.720542908E0
1.210328290E-1,-1.780559182E0,7.564310431E-1,9.744471550E0
1.234587670E-1,-1.778166294E0,7.492526174E-1,9.756435394E0
1.258846520E-1,-1.703988791E0,7.372884750E-1,9.837791443E0
1.283105900E-1,-1.636989832E0,7.564310431E-1,9.907182693E0
1.307365270E-1,-1.572383523E0,8.114659786E-1,9.938289642E0
1.331624650E-1,-1.421336651E0,8.353942037E-1,9.926325798E0
1.355884020E-1,-1.249053478E0,8.521439433E-1,9.900004387E0
1.380143400E-1,-1.062413216E0,8.760721684E-1,9.852148056E0
1.404402770E-1,-9.834501147E-1,8.712865710E-1,9.873683929E0
1.428662150E-1,-9.906286001E-1,8.979067206E-1,9.947860718E0
1.452921520E-1,-9.116654396E-1,8.712865710E-1,1.000528908E1
1.477180900E-1,-8.371888399E-1,8.186444640E-1,1.000768185E1
1.501440270E-1,-8.587242365E-1,7.660023570E-1,1.001964569E1
1.525699130E-1,-8.826524615E-1,6.702894568E-1,1.001964569E1
1.549958500E-1,-9.140582681E-1,6.343970895E-1,9.959825516E0
1.574217880E-1,-9.236295223E-1,5.458626747E-1,9.749257088E0
1.598477250E-1,-8.587242365E-1,3.927220106E-1,9.370891571E0
1.622736630E-1,-8.180462122E-1,2.703889608E-1,8.997312546E0
1.646996000E-1,-7.941179872E-1,1.531406492E-1,8.573483467E0
1.671255380E-1,-6.314060688E-1,4.546362907E-2,8.092526436E0
1.695514750E-1,-5.620142221E-1,-1.674975827E-2,7.687839985E0
1.719774130E-1,-5.333003402E-1,-2.632104978E-2,7.541877747E0
1.744032980E-1,-5.237290859E-1,5.024927482E-2,7.649554729E0
1.768292360E-1,-4.998008311E-1,7.178468257E-2,7.678268909E0
1.792551730E-1,-4.974080026E-1,2.273181528E-1,8.140382767E0
1.816811110E-1,-6.122635007E-1,3.735794425E-1,8.808279037E0
1.841070480E-1,-6.002993584E-1,4.166502357E-1,9.078668594E0
1.865329860E-1,-4.758726060E-1,5.195416212E-1,9.279964447E0
1.889589230E-1,-3.418745399E-1,6.655037999E-1,9.681958199E0
1.913848610E-1,-3.200400174E-1,7.947162390E-1,1.017996502E1
1.938107980E-1,-4.016951025E-1,9.122636318E-1,1.070668507E1
1.962367360E-1,-5.404788256E-1,9.960124493E-1,1.129083252E1
1.986626210E-1,-6.553342938E-1,9.553344250E-1,1.174337578E1
2.010885590E-1,-6.266204119E-1,9.218349457E-1,1.213609695E1
2.035144960E-1,2.213360928E-2,7.396813035E-1,1.232034492E1
2.059404340E-1,5.321039557E-1,5.195416212E-1,1.259821129E1
2.083663710E-1,4.244269133E-1,4.621138871E-1,1.331396389E1
2.107923090E-1,1.441675574E-1,4.884349108E-1,1.425254917E1
2.132182460E-1,-2.243271172E-1,5.315057039E-1,1.510469341E1
2.156441840E-1,-5.021936297E-1,5.937191248E-1,1.582523155E1
2.180701210E-1,-6.074778438E-1,6.367899179E-1,1.638305855E1
2.204960590E-1,-5.691927075E-1,6.631109715E-1,1.686910057E1
2.229219960E-1,-4.136592150E-1,7.325028181E-1,1.719003868E1
2.253478810E-1,-1.860419661E-1,7.660023570E-1,1.740060616E1
2.277738190E-1,1.513460279E-1,8.042874932E-1,1.741735649E1
2.301997560E-1,5.632106066E-1,8.210372925E-1,1.729053688E1
2.326256940E-1,1.243071318E0,7.372884750E-1,1.708475304E1
2.350516310E-1,1.930409670E0,6.774678826E-1,1.664896011E1
2.374775690E-1,2.279761791E0,5.673980713E-1,1.589731503E1
2.399035060E-1,2.641377211E0,4.908277392E-1,1.496830177E1
2.423294440E-1,3.000300407E0,3.687937856E-1,1.388375473E1
2.447553810E-1,3.263810158E0,2.153540403E-1,1.281835079E1
2.471813190E-1,3.373879910E0,3.589234129E-2,1.179601765E1
2.496072040E-1,3.407379389E0,-2.129612118E-1,1.080000496E1
2.520331420E-1,3.304488182E0,-4.860421121E-1,9.840184212E0
2.544590790E-1,3.189632654E0,-8.380861282E-1,8.956634521E0
2.568850170E-1,2.930908680E0,-1.275972724E0,8.152346611E0
2.593109540E-1,2.588735104E0,-1.695015788E0,7.381259441E0
2.617368920E-1,2.138585329E0,-2.152343988E0,6.773183823E0
2.641628290E-1,1.592722535E0,-2.635993242E0,6.296712875E0
2.665887670E-1,1.202393413E0,-3.023630619E0,5.940182209E0
2.690147040E-1,9.918249846E-1,-3.330210924E0,5.705386639E0
2.714406420E-1,1.173679471E0,-3.270390272E0,5.604887962E0
2.738665270E-1,1.085145116E0,-3.253640652E0,5.494818211E0
2.762924650E-1,9.607182741E-1,-3.334996462E0,5.305785179E0
2.787184020E-1,9.080761671E-1,-3.437887907E0,5.027918816E0
2.811443400E-1,8.913264275E-1,-3.579064369E0,4.795814991E0
2.835702770E-1,8.602197170E-1,-3.833002806E0,4.616054058E0
2.859962150E-1,8.817551732E-1,-4.170690060E0,4.400700092E0
2.884221520E-1,8.195417523E-1,-4.551148891E0,4.067798615E0
2.908480900E-1,6.469594240E-1,-4.819443703E0,3.598805189E0
2.932740270E-1,5.584250093E-1,-5.128118038E0,3.165405273E0
2.956999650E-1,4.052843451E-1,-5.427519798E0,2.861217737E0
2.981258500E-1,1.944168359E-1,-5.664409637E0,2.755933523E0
3.005517880E-1,-1.740778536E-1,-5.860919952E0,2.906681299E0
3.029777250E-1,-6.529414654E-1,-6.104988098E0,3.287439108E0
3.054036630E-1,-1.342373490E0,-6.351448536E0,3.854837179E0
3.078296000E-1,-2.158924341E0,-6.658029079E0,4.491627216E0
3.102555380E-1,-3.034996510E0,-7.026822567E0,5.265107155E0
3.126814750E-1,-3.952045679E0,-7.347461224E0,6.040680885E0
3.151074130E-1,-4.840381145E0,-7.613363266E0,6.883253574E0
3.175333500E-1,-5.582455158E0,-7.826324463E0,7.783553123E0
3.199592880E-1,-6.319743633E0,-7.938787460E0,8.458627701E0
3.223852250E-1,-6.901498795E0,-8.029714584E0,8.980562210E0
3.248111110E-1,-7.492825031E0,-8.142476082E0,9.363713264E0
3.272370480E-1,-8.055437088E0,-8.202297211E0,9.691530228E0
3.296629860E-1,-8.484051704E0,-8.187939644E0,1.006750202E1
3.320889230E-1,-8.893523216E0,-8.072785378E0,1.055115128E1
3.345148610E-1,-9.264410973E0,-7.809575081E0,1.118554878E1
3.369407980E-1,-9.422636032E0,-7.373782158E0,1.190130138E1
3.393667360E-1,-9.465706825E0,-6.717849731E0,1.256949711E1
3.417926730E-1,-9.326923370E0,-5.970989704E0,1.300977707E1
3.442186110E-1,-9.051449776E0,-5.327021599E0,1.311296749E1
3.466445480E-1,-8.694620132E0,-4.790730000E0,1.291884899E1
3.490704860E-1,-8.146365166E0,-4.278367043E0,1.264846039E1
3.514963710E-1,-7.514360428E0,-3.919144392E0,1.230838013E1
3.539223090E-1,-6.827321053E0,-3.665505171E0,1.199013519E1
3.563482460E-1,-6.070889950E0,-3.497708559E0,1.164287663E1
3.587741840E-1,-5.280660629E0,-3.375674486E0,1.137458134E1
3.612001210E-1,-4.579264164E0,-3.378067255E0,1.109940720E1
3.636260590E-1,-3.913760424E0,-3.366103172E0,1.091755199E1
3.660519960E-1,-3.360719442E0,-3.406781197E0,1.088166046E1
3.684779340E-1,-2.929712296E0,-3.490530014E0,1.097498035E1
3.709038710E-1,-2.505883455E0,-3.605684519E0,1.117837048E1
3.733298090E-1,-2.178066730E0,-3.699004650E0,1.149691486E1
3.757557460E-1,-1.964806437E0,-3.813860178E0,1.198774242E1
3.781816840E-1,-1.766202211E0,-3.871287823E0,1.262213898E1
3.806075690E-1,-1.644168258E0,-3.892823458E0,1.334267807E1
3.830335060E-1,-1.526919961E0,-3.811467409E0,1.401057434E1
3.854594440E-1,-1.459920883E0,-3.706183195E0,1.462822247E1
3.878853810E-1,-1.210768223E0,-3.787539244E0,1.778614998E1
3.903113190E-1,2.617149651E-1,-3.452244759E0,2.935694313E1
3.927372560E-1,6.613163352E-1,-2.767598391E0,2.877488899E1
3.951631940E-1,2.688934505E-1,-2.501995087E0,2.133410835E1
3.975891310E-1,6.397809386E-1,-2.736491680E0,1.838226128E1
4.000150690E-1,9.774680734E-1,-2.942274570E0,1.793929100E1
4.024410060E-1,6.756733060E-1,-2.906382322E0,1.707518196E1
4.048669440E-1,8.434699476E-2,-2.571387053E0,1.616770363E1
4.072928290E-1,-1.668993831E-1,-2.037488461E0,1.622034645E1
4.097187670E-1,-7.597211748E-2,-1.331007600E0,1.641655731E1
4.121447040E-1,1.680957973E-1,-6.798607111E-1,1.608874130E1
4.145706420E-1,5.057829022E-1,-1.244267747E-1,1.537059498E1
4.169965790E-1,7.642077208E-1,2.775674164E-1,1.443918896E1
4.194225170E-1,8.673982024E-1,5.626124144E-1,1.332592869E1
4.218484540E-1,7.857431173E-1,9.122636318E-1,1.224855995E1
4.242743920E-1,7.498508096E-1,1.295115232E0,1.157827091E1
4.267003290E-1,9.176474810E-1,1.709372640E0,1.122622681E1
4.291262670E-1,1.252642632E0,2.039881229E0,1.104197884E1
4.315522040E-1,1.690828323E0,2.193022013E0,1.097019482E1
4.339781420E-1,1.990230203E0,2.274377823E0,1.103958607E1
4.364040790E-1,2.207977057E0,2.212164640E0,1.090798092E1
4.388299650E-1,2.428116798E0,2.111665964E0,1.076411247E1
4.412559020E-1,2.734697104E0,2.054238319E0,1.073300552E1
4.436818400E-1,3.146561861E0,2.111665964E0,1.085055351E1
4.461077770E-1,3.642175198E0,2.245664120E0,1.113529968E1
4.485337150E-1,4.132703781E0,2.372483730E0,1.135783195E1
4.509596520E-1,4.412963390E0,2.504088879E0,1.179841042E1
4.533855900E-1,4.645066738E0,2.595315218E0,1.210977650E1
4.558115270E-1,4.808077812E0,2.671885490E0,1.225334549E1
4.582374650E-1,4.942076206E0,2.724527597E0,1.233230877E1
4.606634020E-1,5.023432255E0,2.738884687E0,1.259821129E1
4.630893400E-1,5.090431213E0,2.746062994E0,1.305763340E1
4.655152770E-1,5.128716469E0,2.793919563E0,1.360588837E1
4.679411630E-1,5.159822941E0,2.750848770E0,1.390050507E1
4.703671000E-1,5.116752148E0,2.633600473E0,1.395793247E1
4.727930380E-1,5.047360420E0,2.499303341E0,1.392443275E1
4.752189750E-1,4.944468975E0,2.322234392E0,1.396989727E1
4.776449130E-1,4.879862785E0,2.188236237E0,1.360349560E1
4.800708500E-1,4.757828712E0,1.984547257E0,1.340010548E1
4.824967880E-1,4.511068821E0,1.735693693E0,1.334507084E1
4.849227250E-1,4.197608948E0,1.426720500E0,1.320150185E1
4.873486630E-1,3.826422453E0,1.125224829E0,1.287338543E1
4.897746000E-1,3.354737282E0,7.660023570E-1,1.241845036E1
4.922005380E-1,2.883052111E0,4.022932947E-1,1.202124214E1
4.946264750E-1,2.361117840E0,-1.435693540E-2,1.165723324E1
4.970524130E-1,1.839183331E0,-3.568296731E-1,1.126690483E1
4.994782980E-1,1.271785259E0,-7.492526174E-1,1.095344448E1
5.019042360E-1,7.211369276E-1,-1.120439172E0,1.073300552E1
5.043301730E-1,2.183450609E-1,-1.479661703E0,1.051765156E1
5.067561110E-1,-2.410768867E-1,-1.819442511E0,1.029272652E1
5.091820480E-1,-6.625127792E-1,-2.221735716E0,9.986145973E0
5.116079860E-1,-1.052842021E0,-2.671885490E0,9.605388641E0
5.140339230E-1,-1.421336651E0,-3.155534744E0,9.081061363E0
5.164598610E-1,-1.866700768E0,-3.653541088E0,8.236095428E0
5.188857980E-1,-2.268994093E0,-4.182653904E0,7.185048103E0
5.213117360E-1,-2.721536636E0,-4.701896667E0,6.110072613E0
5.237376730E-1,-3.051746130E0,-5.152046204E0,4.769493580E0
5.261635590E-1,-3.418147087E0,-5.587839127E0,3.387937784E0
5.285895480E-1,-3.906582117E0,-5.973382473E0,2.102393866E0
5.310154340E-1,-4.251148701E0,-6.317949295E0,8.264211416E-1
5.334413710E-1,-4.545764923E0,-6.634100914E0,-5.670989752E-1
5.358673090E-1,-5.072484970E0,-6.981359005E0,-1.807179332E0
5.382932460E-1,-5.864808083E0,-7.371389389E0,-2.870190859E0
5.407191840E-1,-6.949355125E0,-7.711469173E0,-3.863810301E0
5.431451210E-1,-8.237590790E0,-7.955537319E0,-4.596313000E0
5.455710590E-1,-1.019820976E1,-8.506185532E0,-4.962714195E0
5.479969960E-1,-1.327717495E1,-9.696016312E0,-3.832703590E0
5.504229340E-1,-1.660738564E1,-1.113260746E1,-1.924427629E0
5.528488710E-1,-1.871396637E1,-1.214297676E1,-4.618147612E-1
5.552748090E-1,-2.031805611E1,-1.317966747E1,1.379462242E0
5.577006940E-1,-2.158924294E1,-1.423759365E1,3.529114246E0
5.601266310E-1,-2.222872353E1,-1.495125294E1,4.927420139E0
5.625525690E-1,-2.247518539E1,-1.551386547E1,5.918646812E0
5.649785060E-1,-2.293490601E1,-1.607887077E1,6.914659023E0
5.674044440E-1,-2.320051003E1,-1.655534172E1,7.872087479E0
5.698303810E-1,-2.294926262E1,-1.688315773E1,8.978169441E0
5.722563190E-1,-2.197478676E1,-1.680658722E1,1.014646530E1
5.746822560E-1,-2.038026810E1,-1.635883141E1,1.119272709E1
5.771081940E-1,-1.832872200E1,-1.551386547E1,1.206909847E1
5.795341310E-1,-1.592004681E1,-1.437906933E1,1.285663605E1
5.819600690E-1,-1.342552948E1,-1.301187038E1,1.356042480E1
5.843860060E-1,-1.078714371E1,-1.150857925E1,1.417089367E1
5.868119440E-1,-8.208877563E0,-9.909276962E0,1.456361580E1
5.892378810E-1,-5.637490273E0,-8.376973152E0,1.485105419E1
5.916638190E-1,-3.171686411E0,-6.935596466E0,1.500419426E1
5.940897560E-1,-8.778668046E-1,-5.650052547E0,1.509751415E1
5.965156420E-1,1.223928809E0,-4.510470867E0,1.514058495E1
5.989415790E-1,3.086741209E0,-3.425923824E0,1.512144279E1
6.013675170E-1,4.798506737E0,-2.365305185E0,1.510469341E1
6.037934540E-1,6.364010811E0,-1.271187067E0,1.510947895E1
6.062193920E-1,7.767102242E0,-9.810572863E-2,1.521476269E1
6.086453290E-1,9.193822861E0,1.232901812E0,1.538255978E1
6.110712670E-1,1.054427242E1,2.700599432E0,1.555484295E1
6.134972040E-1,1.184177971E1,4.239782810E0,1.569123363E1
6.159231420E-1,1.294786263E1,5.824728489E0,1.584916019E1
6.183490790E-1,1.385773277E1,7.479066372E0,1.597867107E1
6.207750170E-1,1.456870079E1,9.109476089E0,1.599063587E1
6.232009540E-1,1.515524101E1,1.064895821E1,1.581805325E1
6.256268920E-1,1.580878067E1,1.217886925E1,1.551895046E1
6.280527770E-1,1.643839264E1,1.368455315E1,1.498983765E1
6.304787150E-1,1.707548141E1,1.505893040E1,1.439611816E1
6.329046520E-1,1.771945000E1,1.648325729E1,1.365882969E1
6.353305900E-1,1.834666824E1,1.771855164E1,1.283270741E1
6.377565270E-1,1.890449524E1,1.884138489E1,1.194197941E1
6.401824650E-1,1.941446495E1,1.984218216E1,1.092473125E1
6.426084020E-1,1.989093590E1,2.062044907E1,9.943075180E0
6.450343400E-1,2.030489540E1,2.121177483E1,9.030811310E0
6.474602770E-1,2.055165482E1,2.162573242E1,8.135597229E0
6.498862150E-1,2.061626053E1,2.190359879E1,7.244868755E0
6.523121520E-1,2.053490448E1,2.204477501E1,6.409474373E0
6.547380900E-1,2.033121490E1,2.210938263E1,5.662315845E0
6.571640270E-1,2.001057816E1,2.207827568E1,5.073382378E0
6.595899650E-1,1.971835327E1,2.198016930E1,4.582554340E0
6.620159020E-1,1.933071709E1,2.181267166E1,4.192524433E0
6.644417880E-1,1.889731598E1,2.157069778E1,3.902693748E0
6.668677250E-1,1.847348785E1,2.119741821E1,3.694518089E0
6.692936630E-1,1.807837296E1,2.077119637E1,3.567698479E0
6.717196000E-1,1.770987892E1,2.020379829E1,3.570091486E0
6.741455380E-1,1.735783386E1,1.951675797E1,3.622733593E0
6.765714750E-1,1.709462357E1,1.861406708E1,3.591626883E0
6.789974130E-1,1.682872200E1,1.756541252E1,3.730410576E0
6.814233500E-1,1.654158211E1,1.631815338E1,3.672982693E0
6.838492880E-1,1.603400612E1,1.479302788E1,3.342474222E0
6.862752250E-1,1.539003658E1,1.307408428E1,2.959323406E0
6.887011630E-1,1.435573959E1,1.121874905E1,2.437688112E0
6.911271000E-1,1.287129211E1,9.245866776E0,1.903789520E0
6.935530380E-1,1.111167049E1,7.246962547E0,1.515853167E0
6.959789230E-1,9.134002686E0,5.144867897E0,1.257129192E0
6.984048610E-1,6.974779129E0,3.107379198E0,1.092024446E0
7.008307980E-1,4.700101852E0,1.007976532E0,1.072881818E0
7.032567360E-1,2.444866419E0,-1.053440213E0,1.283450246E0
7.056826730E-1,2.497508675E-1,-3.129213810E0,1.719243050E0
7.081086110E-1,-1.916949987E0,-5.178367138E0,2.260320187E0
7.105345480E-1,-3.990330935E0,-7.184749126E0,2.968894720E0
7.129604860E-1,-6.044569016E0,-9.123832703E0,3.699303865E0
7.153864230E-1,-8.103293419E0,-1.104407310E1,4.455734730E0
7.178123610E-1,-1.017188931E1,-1.297597790E1,5.197809219E0
7.202382980E-1,-1.220698452E1,-1.482652760E1,5.944967747E0
7.226642360E-1,-1.422742462E1,-1.657448387E1,6.655935287E0
7.250901730E-1,-1.620030594E1,-1.824078560E1,7.357331276E0
7.275160590E-1,-1.812742615E1,-1.982782555E1,8.025527000E0
7.299420480E-1,-1.990379715E1,-2.122134590E1,8.702995300E0
7.323679340E-1,-2.153899384E1,-2.243031883E1,9.399605751E0
7.347938710E-1,-2.306411743E1,-2.338086891E1,9.998110771E0
7.372198090E-1,-2.441426849E1,-2.411815643E1,1.057747269E1
7.396457460E-1,-2.558286285E1,-2.463530540E1,1.104676437E1
7.420716840E-1,-2.662164688E1,-2.490330124E1,1.136979580E1
7.444976210E-1,-2.742144775E1,-2.501366997E1,1.153759289E1
7.469235590E-1,-2.793141937E1,-2.492483711E1,1.165244770E1
7.493494960E-1,-2.820420074E1,-2.465684128E1,1.148255730E1
7.517754340E-1,-2.818027306E1,-2.416601372E1,1.105394363E1
7.542013710E-1,-2.783091927E1,-2.346940231E1,1.057029438E1
7.566273090E-1,-2.686840820E1,-2.261696053E1,1.008664513E1
7.590532460E-1,-2.535285378E1,-2.166192436E1,9.742077827E0
7.614791840E-1,-2.347837639E1,-2.065873337E1,9.538389206E0
7.639051210E-1,-2.124706841E1,-1.963161469E1,9.363713264E0
7.663310060E-1,-1.871636009E1,-1.856620979E1,9.189037323E0
7.687569440E-1,-1.599422455E1,-1.749601936E1,8.968598366E0
7.711828810E-1,-1.306869984E1,-1.626790428E1,8.750851631E0
7.736088190E-1,-9.946963310E0,-1.495603848E1,8.549555779E0
7.760347560E-1,-6.741179466E0,-1.348116302E1,8.324629784E0
7.784606940E-1,-3.504288673E0,-1.185314560E1,8.111668587E0
7.808866310E-1,-3.801597059E-1,-1.008156013E1,7.884051323E0
7.833125690E-1,2.456830740E0,-8.221439362E0,7.639983654E0
7.857385060E-1,4.946861744E0,-6.195915222E0,7.381259441E0
7.881644440E-1,7.089634418E0,-4.177868366E0,7.134799004E0
7.905903810E-1,9.045467377E0,-2.123630047E0,6.972086906E0
7.930163190E-1,1.091067314E1,-2.153540403E-2,6.955337048E0
7.954422560E-1,1.275882912E1,2.188236237E0,7.094120979E0
7.978681940E-1,1.453520107E1,4.476971149E0,7.433901787E0
8.002941310E-1,1.606032562E1,6.758527756E0,7.888837337E0
8.027200170E-1,1.742961884E1,9.011369705E0,8.394021988E0
8.051459540E-1,1.861944962E1,1.114457130E1,8.903991699E0
8.075718920E-1,1.964896202E1,1.312911892E1,9.313464165E0
8.099978290E-1,2.055165482E1,1.499671650E1,9.614959717E0
8.124237670E-1,2.135354996E1,1.673719597E1,9.830613136E0
8.148497040E-1,2.204776764E1,1.831257057E1,1.004357433E1
8.172756420E-1,2.258166504E1,1.973450470E1,1.012014389E1
8.197015790E-1,2.297677994E1,2.101047897E1,1.022782135E1
8.221275170E-1,2.326182556E1,2.213331032E1,1.031665516E1
8.245534540E-1,2.341496658E1,2.311017990E1,1.037886810E1
8.269793920E-1,2.348196411E1,2.404637146E1,1.037408257E1
8.294053290E-1,2.352025032E1,2.479323196E1,1.045783138E1
8.318312670E-1,2.351307106E1,2.541327286E1,1.060857964E1
8.342572040E-1,2.358724976E1,2.588974190E1,1.082393360E1
8.366831420E-1,2.372364044E1,2.630160713E1,1.105155087E1
8.391090790E-1,2.390818596E1,2.660310364E1,1.118076324E1
8.415350170E-1,2.411396980E1,2.674697113E1,1.137458134E1
8.439609020E-1,2.429103851E1,2.679482841E1,1.162134171E1
8.463868400E-1,2.444687080E1,2.673740005E1,1.188694477E1
8.488127770E-1,2.460958290E1,2.647149849E1,1.214566898E1
8.512387150E-1,2.479622269E1,2.615564537E1,1.229163074E1
8.536646520E-1,2.501426888E1,2.564328194E1,1.236820126E1
8.560905900E-1,2.526790810E1,2.493440819E1,1.237777233E1
8.585165270E-1,2.539472771E1,2.407987213E1,1.236102295E1
8.609424650E-1,2.552184677E1,2.290439796E1,1.226291656E1
8.633684020E-1,2.549313164E1,2.146302032E1,1.203320599E1
8.657943400E-1,2.513869476E1,1.981825447E1,1.172183990E1
8.682202770E-1,2.449711990E1,1.790309906E1,1.138175964E1
8.706462150E-1,2.357289314E1,1.582493210E1,1.088405323E1
8.730721520E-1,2.242852402E1,1.350269794E1,1.016800117E1
8.754980380E-1,2.097518349E1,1.104885864E1,9.454640388E0
8.779239750E-1,1.920359802E1,8.530113220E0,8.710173607E0
8.803499130E-1,1.728844261E1,5.963811398E0,8.001299858E0
8.827758500E-1,1.529641819E1,3.404388428E0,7.299903870E0
8.852017880E-1,1.334776306E1,8.760721684E-1,6.627221584E0
8.876277250E-1,1.143948650E1,-1.632802367E0,6.004788399E0
8.900536630E-1,9.545866966E0,-4.103391647E0,5.511568069E0
8.924796000E-1,7.633104324E0,-6.579065800E0,5.181059361E0
8.949055380E-1,5.617151260E0,-9.040083885E0,4.992026329E0
8.973314750E-1,3.471985579E0,-1.144367409E1,4.922634602E0
8.997574130E-1,1.147358418E0,-1.379013634E1,4.975276470E0
9.021833500E-1,-1.261017561E0,-1.605254936E1,5.126024246E0
9.046092880E-1,-3.657429457E0,-1.823839378E1,5.324927807E0
9.070352250E-1,-5.989534378E0,-2.033540344E1,5.609673500E0
9.094611630E-1,-8.199305534E0,-2.237289238E1,5.837290764E0
9.118871000E-1,-1.047846985E1,-2.428804779E1,6.064609051E0
9.143130380E-1,-1.283181095E1,-2.605036163E1,6.215356827E0
9.167389750E-1,-1.519950867E1,-2.758715057E1,6.287141323E0
9.191648610E-1,-1.747388649E1,-2.901656342E1,6.442974091E0
9.215907980E-1,-1.970280075E1,-3.016332436E1,6.653542519E0
9.240167360E-1,-2.191257286E1,-3.101546860E1,6.849753857E0
9.264426730E-1,-2.396681023E1,-3.161397362E1,7.165905476E0
9.288686110E-1,-2.592503738E1,-3.195883751E1,7.412366390E0
9.312945480E-1,-2.783331299E1,-3.192533875E1,7.460222721E0
9.337204860E-1,-2.951157951E1,-3.161157990E1,7.364510059E0
9.361464230E-1,-3.084498024E1,-3.109443092E1,7.206583500E0
9.385723610E-1,-3.172583771E1,-3.043132019E1,7.074978352E0
9.409982980E-1,-3.209941483E1,-2.967728233E1,7.060621262E0
9.434242360E-1,-3.164448166E1,-2.883680344E1,6.960123062E0
9.458501730E-1,-3.078037262E1,-2.798944473E1,7.098906517E0
9.482761110E-1,-2.988485909E1,-2.707239532E1,7.704589844E0
9.507020480E-1,-2.852513695E1,-2.598306274E1,8.183453560E0
9.531279860E-1,-2.657139778E1,-2.478126717E1,8.590532303E0
9.555539230E-1,-2.427787781E1,-2.347418785E1,8.944669724E0
9.579798610E-1,-2.176661110E1,-2.213121605E1,9.210572243E0
9.604057460E-1,-1.906601143E1,-2.068266106E1,9.428318977E0
9.628316840E-1,-1.624098396E1,-1.916710663E1,9.543174744E0
9.652576210E-1,-1.336810207E1,-1.758934021E1,9.602995872E0
9.676835590E-1,-1.055743217E1,-1.591825294E1,9.607781410E0
9.701094960E-1,-7.907082558E0,-1.426152229E1,9.495318413E0
9.725354340E-1,-5.438885689E0,-1.260030460E1,9.339784622E0
9.749613710E-1,-3.157329559E0,-1.096989536E1,9.128917694E0
9.773873090E-1,-9.643075466E-1,-9.365806580E0,8.815457344E0
9.798132460E-1,1.077966571E0,-7.800003529E0,8.532805443E0
9.822391840E-1,2.995514870E0,-6.176772594E0,8.252845764E0
9.846651210E-1,4.827220440E0,-4.555934429E0,8.042277336E0
9.870910590E-1,6.412166595E0,-2.870489836E0,7.898408413E0
9.895169960E-1,7.896314621E0,-1.146760225E0,7.915158272E0
9.919429340E-1,9.270691872E0,6.200401783E-1,8.030312538E0
9.943688190E-1,1.047248745E1,2.377269268E0,8.202595711E0
9.967947560E-1,1.160010529E1,4.160819530E0,8.504091263E0
9.992206940E-1,1.263440228E1,5.865406513E0,8.817850113E0
1.001646631E0,1.357508087E1,7.553243637E0,9.133703232E0
1.004072569E0,1.444905949E1,9.157332420E0,9.471389771E0
1.006498506E0,1.520070457E1,1.061306572E1,9.856933594E0
1.008924444E0,1.581356621E1,1.206850052E1,1.038843918E1
1.011350381E0,1.638335800E1,1.340459251E1,1.088166046E1
1.013776319E0,1.686700630E1,1.458245945E1,1.144666576E1
1.016202256E0,1.722383690E1,1.564547062E1,1.200209904E1
1.018628194E0,1.745594025E1,1.653590012E1,1.240409374E1
1.021054131E0,1.755883217E1,1.733809471E1,1.296191978E1
1.023480069E0,1.749422455E1,1.818066597E1,1.363729477E1
1.025906006E0,1.742961884E1,1.886321831E1,1.414457321E1
1.028331944E0,1.741526222E1,1.937528229E1,1.461386490E1
1.030757881E0,1.748465347E1,1.977279091E1,1.494676685E1
1.033183767E0,1.750618935E1,2.006740761E1,1.523629856E1
1.035609756E0,1.759711647E1,2.035215378E1,1.561466312E1
1.038035642E0,1.772184181E1,2.056541252E1,1.598585033E1
1.040461579E0,1.786780548E1,2.063480568E1,1.635673714E1
1.042887517E0,1.801376724E1,2.059891319E1,1.662742615E1
1.045313454E0,1.810469437E1,2.052952003E1,1.692892075E1
1.047739392E0,1.816212273E1,2.039522362E1,1.723310852E1
1.050165329E0,1.816930008E1,2.016312027E1,1.743410492E1
1.052591267E0,1.812144470E1,1.987089729E1,1.756840324E1
1.055017204E0,1.806162262E1,1.944258118E1,1.759233093E1
1.057443142E0,1.797548103E1,1.898764610E1,1.765693665E1
1.059869079E0,1.784148407E1,1.838435555E1,1.765215111E1
1.062295017E0,1.775534248E1,1.767308807E1,1.753699684E1
1.064720954E0,1.769073677E1,1.676351738E1,1.730010796E1
1.067146892E0,1.761147308E1,1.565982819E1,1.701536179E1
1.069572829E0,1.751815414E1,1.433091354E1,1.662742615E1
1.071998767E0,1.722144318E1,1.280130196E1,1.619641876E1
1.074424704E0,1.667318726E1,1.103210926E1,1.561705589E1
1.076850590E0,1.579681683E1,9.123832703E0,1.490848160E1
1.079276527E0,1.461894989E1,7.110571384E0,1.412543011E1
1.081702465E0,1.315633678E1,5.032404900E0,1.327807236E1
1.084128402E0,1.151874924E1,2.959024191E0,1.243519974E1
1.086554340E0,9.749257088E0,9.026923180E-1,1.164287663E1
1.088980277E0,7.881958008E0,-1.144367456E0,1.098933697E1
1.091406215E0,5.995516300E0,-3.248854876E0,1.051525879E1
1.093832152E0,4.036991119E0,-5.307878971E0,1.021825027E1
1.096258090E0,2.062014818E0,-7.345067978E0,9.993324280E0
1.098684027E0,7.238288224E-2,-9.353842735E0,9.708579063E0
1.101109965E0,-1.919342875E0,-1.131446171E1,9.406784058E0
1.103535902E0,-3.880260944E0,-1.324188042E1,9.045168877E0
1.105961840E0,-5.845665932E0,-1.512114334E1,8.681459427E0
1.108387777E0,-7.816154957E0,-1.695972824E1,8.319844246E0
1.110813715E0,-9.803094864E0,-1.876750565E1,7.963014603E0
1.113239652E0,-1.172572803E1,-2.053191376E1,7.537092209E0
1.115665590E0,-1.363131237E1,-2.220778656E1,7.082156658E0
1.118091475E0,-1.554198170E1,-2.374457741E1,6.574579239E0
1.120517413E0,-1.757917023E1,-2.518116760E1,6.007181168E0
1.122943350E0,-1.970519447E1,-2.643560600E1,5.382355213E0
1.125369288E0,-2.189821625E1,-2.744597435E1,4.826921463E0
1.127795225E0,-2.410080910E1,-2.824547577E1,4.276273251E0
1.130221163E0,-2.617419052E1,-2.880808830E1,3.818944931E0
1.132647100E0,-2.808695221E1,-2.920081139E1,3.512364626E0
1.135073038E0,-2.973650360E1,-2.936352348E1,3.423830032E0
1.137498975E0,-3.095744133E1,-2.933959579E1,3.548556089E0
1.139924913E0,-3.177877808E1,-2.908834839E1,3.888336897E0
1.142350850E0,-3.219034576E1,-2.876262474E1,4.376771927E0
1.144776788E0,-3.222863007E1,-2.834866714E1,4.956133842E0
1.147202725E0,-3.183142090E1,-2.786501884E1,5.516353607E0
1.149628663E0,-3.110101128E1,-2.734069061E1,6.062216282E0
1.152054600E0,-3.011487007E1,-2.680918503E1,6.622435570E0
1.154480538E0,-2.887927628E1,-2.623939323E1,7.127620220E0
1.156906475E0,-2.736162758E1,-2.562174606E1,7.639983654E0
1.159332413E0,-2.543899536E1,-2.493949318E1,8.032705307E0
1.161758298E0,-2.308565331E1,-2.420908356E1,8.382058144E0
1.164184236E0,-2.034198380E1,-2.337608337E1,8.647959709E0
1.166610173E0,-1.725853157E1,-2.242553329E1,8.880064011E0
1.169036111E0,-1.396182060E1,-2.134098625E1,9.042776108E0
1.171462048E0,-1.062921715E1,-2.009133530E1,9.222537041E0
1.173887986E0,-7.322934628E0,-1.874567223E1,9.358927727E0
1.176313923E0,-4.157828331E0,-1.729741669E1,9.332606316E0
1.178739861E0,-1.124626637E0,-1.573161221E1,9.260822296E0
1.181165798E0,1.750648856E0,-1.410838127E1,9.100203514E0
1.183591736E0,4.448855400E0,-1.236550903E1,8.932705879E0
1.186017673E0,7.058527470E0,-1.052931690E1,8.798707962E0
1.188443611E0,9.555438042E0,-8.611469269E0,8.743673325E0
1.190869548E0,1.208136177E1,-6.545566559E0,8.808279037E0
1.193295486E0,1.459262848E1,-4.409972191E0,8.939884186E0
1.195721423E0,1.706321907E1,-2.104487419E0,9.189037323E0
1.198147361E0,1.943839455E1,3.664009571E-1,9.497711182E0
1.200573298E0,2.166012955E1,3.047558784E0,9.818648338E0
1.202999236E0,2.362553406E1,5.810371399E0,1.019432163E1
1.205425121E0,2.527987289E1,8.594719887E0,1.069711399E1
1.207851059E0,2.651038170E1,1.134078312E1,1.124776173E1
1.210276996E0,2.737239647E1,1.389302731E1,1.166201973E1
1.212702934E0,2.783929443E1,1.617219162E1,1.188455200E1
1.215128871E0,2.803311348E1,1.818545151E1,1.182473087E1
1.217554809E0,2.810729027E1,1.983261108E1,1.146820068E1
1.219980746E0,2.799243546E1,2.127398872E1,1.114487076E1
1.222406684E0,2.776272392E1,2.252363968E1,1.078325558E1
1.224832621E0,2.741786003E1,2.353400803E1,1.048893833E1
1.227258559E0,2.686242485E1,2.435025978E1,1.019192886E1
1.229684496E0,2.629263496E1,2.498705101E1,9.969396591E0
1.232110434E0,2.567020226E1,2.554009247E1,9.722935677E0
1.234536371E0,2.515544510E1,2.597109795E1,9.519247055E0
1.236962309E0,2.473400879E1,2.631835747E1,9.299106598E0
1.239388246E0,2.444447708E1,2.662942505E1,9.061918259E0
1.241814184E0,2.425753784E1,2.690729141E1,8.810671806E0
1.244240069E0,2.409004021E1,2.704846764E1,8.580661774E0
1.246666006E0,2.393211555E1,2.708675194E1,8.398807526E0
1.249091944E0,2.382204437E1,2.703171730E1,8.250452042E0
1.251517881E0,2.376431847E1,2.690968323E1,7.982157230E0
1.253943819E0,2.374517632E1,2.655046082E1,7.649554729E0
1.256369756E0,2.371406937E1,2.600938416E1,7.192226887E0
1.258795694E0,2.364467621E1,2.528645325E1,6.694220543E0
1.261221631E0,2.352503586E1,2.437658119E1,6.134000778E0
1.263647569E0,2.322324181E1,2.322024918E1,5.504389286E0
1.266073506E0,2.279731941E1,2.192992020E1,4.865206718E0
1.268499444E0,2.221556282E1,2.047657967E1,4.173381805E0
1.270925381E0,2.143490601E1,1.894218254E1,3.459722519E0
1.273351319E0,2.047508430E1,1.724477386E1,2.679363251E0
1.275777256E0,1.931636047E1,1.550429440E1,1.867897153E0
1.278203194E0,1.804248047E1,1.371326637E1,1.022632599E0
1.280629131E0,1.660858154E1,1.189143085E1,1.151545867E-1
1.283055069E0,1.515284824E1,1.004566765E1,-7.489534616E-1
1.285481006E0,1.369711494E1,8.228617668E0,-1.596610904E0
1.287906944E0,1.222732353E1,6.392126560E0,-2.379363060E0
1.290332829E0,1.082901764E1,4.572684288E0,-3.099901676E0
1.292758767E0,9.476474762E0,2.755634308E0,-3.775275946E0
1.295184704E0,8.176573753E0,9.290133715E-1,-4.395316124E0
1.297610642E0,6.912266254E0,-8.811569214E-1,-4.957928658E0
1.300036579E0,5.619544029E0,-2.688635349E0,-5.460720539E0
1.302462517E0,4.374678135E0,-4.476971149E0,-5.824429512E0
1.304888454E0,3.069991350E0,-6.255735874E0,-6.068796635E0
1.307314392E0,1.688435435E0,-8.044071198E0,-6.123831272E0
1.309740329E0,2.665006220E-1,-9.818349838E0,-5.967998981E0
1.312166267E0,-1.220339537E0,-1.159950733E1,-5.573183060E0
1.314592204E0,-2.750250578E0,-1.332084370E1,-4.934000492E0
1.317018142E0,-4.306482315E0,-1.504218006E1,-4.093521118E0
1.319444079E0,-5.944070339E0,-1.675155258E1,-2.985046148E0
1.321870017E0,-7.689335346E0,-1.854706764E1,-1.778465390E0
1.324295954E0,-9.628418922E0,-2.032583237E1,-4.833501875E-1
1.326721892E0,-1.170180035E1,-2.208306122E1,8.599206209E-1
1.329147829E0,-1.396660709E1,-2.380439758E1,2.226820469E0
1.331573715E0,-1.631516266E1,-2.537977219E1,3.622733593E0
1.333999652E0,-1.879771614E1,-2.685464859E1,5.054239750E0
1.336425590E0,-2.129014015E1,-2.815454865E1,6.598507404E0
1.338851527E0,-2.365544510E1,-2.924866676E1,8.267202377E0
1.341277465E0,-2.609971237E1,-3.007957458E1,1.007228756E1
1.343703402E0,-2.829991341E1,-3.075465012E1,1.206431293E1
1.346129340E0,-2.972693253E1,-3.148715401E1,1.411825180E1
1.348555277E0,-3.091197777E1,-3.214308548E1,1.640937996E1
1.350981215E0,-3.185056305E1,-3.263630676E1,1.884676933E1
1.353407152E0,-3.244189072E1,-3.295963669E1,2.132692909E1
1.355833090E0,-3.262613678E1,-3.316302490E1,2.382413864E1
1.358259027E0,-3.249931717E1,-3.324677658E1,2.615594482E1
1.360684965E0,-3.202284622E1,-3.327548981E1,2.834178734E1
1.363110902E0,-3.127598572E1,-3.329941559E1,3.032394218E1
1.365536840E0,-3.018426132E1,-3.328027344E1,3.206681442E1
1.367962777E0,-2.867588615E1,-3.313670349E1,3.345315552E1
1.370388715E0,-2.667907524E1,-3.265784073E1,3.447309494E1
1.372814652E0,-2.429941368E1,-3.185594749E1,3.463341522E1
1.375240538E0,-2.129971123E1,-3.075704384E1,3.401576996E1
1.377666527E0,-1.767488289E1,-2.948585701E1,3.299582672E1
1.380092413E0,-1.382542992E1,-2.795594597E1,3.168396378E1
1.382518350E0,-9.850952148E0,-2.611257362E1,3.007030296E1
1.384944288E0,-5.915057659E0,-2.398655128E1,2.813809967E1
1.387370225E0,-1.979163408E0,-2.136730766E1,2.526282310E1
1.389796163E0,1.980658889E0,-1.868824387E1,2.174836540E1
1.392222100E0,5.641079426E0,-1.605254936E1,1.827458382E1
1.394648038E0,8.796614647E0,-1.356730461E1,1.535623837E1
1.397073975E0,1.150917816E1,-1.124267673E1,1.315125275E1
1.399499913E0,1.400369549E1,-9.085547447E0,1.157109165E1
1.401925850E0,1.626850128E1,-6.894918442E0,1.038843918E1
1.404351788E0,1.832991791E1,-4.560719967E0,9.370891571E0
1.406777725E0,2.004168510E1,-2.130808592E0,8.441878319E0
1.409203663E0,2.121237183E1,3.257229924E-1,7.510771275E0
1.411629600E0,2.178934288E1,2.702992201E0,6.581758022E0
1.414055538E0,2.181805611E1,4.888835907E0,5.794219971E0
1.416481475E0,2.142772675E1,6.937989235E0,5.241178989E0
1.418907361E0,2.079332924E1,8.779266357E0,5.039882660E0
1.421333298E0,2.004407692E1,1.051496029E1,5.023132801E0
1.423759288E0,1.937857246E1,1.213819122E1,5.197809219E0
1.426185173E0,1.881356812E1,1.369651699E1,5.451747417E0
1.428611111E0,1.858116531E1,1.511396503E1,5.832505226E0
1.431037048E0,1.853570175E1,1.653590012E1,6.339783669E0
1.433462986E0,1.874626923E1,1.794616890E1,6.880860806E0
1.435888923E0,1.937139511E1,1.921974945E1,7.479664326E0
1.438314861E0,2.019960976E1,2.044308090E1,8.039883614E0
1.440740798E0,2.110708809E1,2.176481628E1,8.506484032E0
1.443166736E0,2.222274208E1,2.298575401E1,8.863314629E0
1.445592673E0,2.352264214E1,2.400569344E1,8.992527008E0
1.448018611E0,2.480579376E1,2.486262321E1,8.822636604E0
1.450444548E0,2.581137848E1,2.603331184E1,8.894420624E0
1.452870486E0,2.680739021E1,2.703171730E1,8.738887787E0
1.455296423E0,2.779622459E1,2.778096962E1,8.422736168E0
1.457722361E0,2.863879776E1,2.823111916E1,7.855337620E0
1.460148298E0,2.917987442E1,2.841327286E1,7.175477028E0
1.462574236E0,2.957738113E1,2.835793877E1,6.332605362E0
1.465000173E0,2.979512787E1,2.809712219E1,5.375176907E0
1.467426111E0,2.984059143E1,2.765654373E1,4.407878399E0
1.469851996E0,2.965155983E1,2.706760979E1,3.483650684E0
1.472277934E0,2.932583618E1,2.629442978E1,2.653042078E0
1.474703871E0,2.884936523E1,2.536302185E1,1.930110574E0
1.477129809E0,2.825564575E1,2.429522514E1,1.242772222E0
1.479555746E0,2.752075005E1,2.300968170E1,5.581258535E-1
1.481981684E0,2.668535614E1,2.159462547E1,-6.909275055E-2
1.484407621E0,2.557927322E1,1.994746780E1,-7.034898400E-1
1.486833559E0,2.422643280E1,1.816630936E1,-1.328315616E0
1.489259496E0,2.276142693E1,1.623440361E1,-1.965105653E0
1.491685434E0,2.118605232E1,1.426630783E1,-2.683550596E0
1.494111371E0,1.952932167E1,1.223868942E1,-3.432803154E0
1.496537309E0,1.784387589E1,1.017248726E1,-4.232305050E0
1.498963246E0,1.615364647E1,8.144570351E0,-5.020142078E0
1.501389184E0,1.445863056E1,6.140880108E0,-5.874678612E0
1.503815121E0,1.281147194E1,4.225425720E0,-6.755835533E0
1.506241059E0,1.110449123E1,2.346162558E0,-7.646264553E0
1.508666944E0,9.316155434E0,5.195416212E-1,-8.529814720E0
1.511092881E0,7.369594574E0,-1.283151150E0,-9.343673706E0
1.513518819E0,5.337191105E0,-3.126821041E0,-1.011715317E1
1.515944756E0,3.218346357E0,-4.951049328E0,-1.078983593E1
1.518370694E0,1.097109199E0,-6.753741741E0,-1.131655598E1
1.520796631E0,-9.786644578E-1,-8.575576782E0,-1.157019520E1
1.523222569E0,-3.018246651E0,-1.037378311E1,-1.159651566E1
1.525648506E0,-4.988736153E0,-1.214058399E1,-1.141226864E1
1.528074444E0,-6.891927242E0,-1.388824177E1,-1.101476097E1
1.530500381E0,-8.725727081E0,-1.568854141E1,-1.042343426E1
1.532926319E0,-1.047368336E1,-1.743619919E1,-9.671789169E0
1.535352256E0,-1.213280678E1,-1.917428589E1,-8.702097893E0
1.537778194E0,-1.373420334E1,-2.087648010E1,-7.548159122E0
1.540204131E0,-1.539332676E1,-2.259303093E1,-6.162116528E0
1.542630069E0,-1.714816284E1,-2.434547424E1,-4.546063900E0
1.545056006E0,-1.914018822E1,-2.596392059E1,-2.525325298E0
1.547481944E0,-2.136431694E1,-2.722344208E1,-4.486542661E-3
1.549907881E0,-2.367937279E1,-2.819283485E1,2.842075109E0
1.552333819E0,-2.588196564E1,-2.915534782E1,5.423033237E0
1.554759756E0,-2.782134819E1,-3.010111046E1,8.056633949E0
1.557185642E0,-2.925764084E1,-3.104418182E1,1.063729286E1
1.559611579E0,-3.038286591E1,-3.198994446E1,1.325414371E1
1.562037517E0,-3.123291588E1,-3.292374420E1,1.614377594E1
1.564463454E0,-3.173540878E1,-3.377349472E1,1.935434532E1
1.566889392E0,-3.198456192E1,-3.436003494E1,2.296690941E1
1.569315329E0,-3.178117180E1,-3.457808304E1,2.686691093E1
1.571741267E0,-3.103640556E1,-3.446532059E1,3.079562759E1
1.574167204E0,-2.967189789E1,-3.389313507E1,3.450659561E1
1.576593142E0,-2.766073036E1,-3.302663422E1,3.783201981E1
1.579019079E0,-2.504178619E1,-3.198276711E1,4.031218338E1
1.581445017E0,-2.213031960E1,-3.080968475E1,4.197369766E1
1.583870954E0,-1.883121490E1,-2.966531754E1,4.276123428E1
1.586296892E0,-1.520668697E1,-2.871237564E1,4.253631210E1
1.588722829E0,-1.148375416E1,-2.779084015E1,4.130580139E1
1.591148767E0,-8.060222626E0,-2.672064972E1,3.946243286E1
1.593574704E0,-5.194519043E0,-2.541087914E1,3.745844269E1
1.596000642E0,-2.393420935E0,-2.378286171E1,3.545923996E1
1.598426579E0,6.302096844E-1,-2.197059822E1,3.296472168E1
1.600852465E0,3.709174156E0,-1.984936142E1,2.972065163E1
1.603278402E0,7.058527470E0,-1.715145302E1,2.529871559E1
1.605704340E0,1.058973598E1,-1.390499115E1,1.906212234E1
1.608130277E0,1.337169075E1,-1.061545849E1,1.376172161E1
1.610556215E0,1.522224045E1,-7.610970497E0,1.026849937E1
1.612982152E0,1.617518234E1,-5.111368179E0,9.081061363E0
1.615408090E0,1.680479431E1,-3.143570662E0,9.674779892E0
1.617834027E0,1.752054596E1,-1.407876968E0,1.083619690E1
1.620259965E0,1.848545265E1,3.305086195E-1,1.183669567E1
1.622685902E0,1.958435631E1,2.233700037E0,1.226052380E1
1.625111840E0,2.061626053E1,4.302295208E0,1.220548916E1
1.627537777E0,2.135115623E1,6.468697071E0,1.186540890E1
1.629963715E0,2.154258156E1,8.491828918E0,1.152323532E1
1.632389652E0,2.131047821E1,1.031844902E1,1.137458134E1
1.634815590E0,2.078615189E1,1.196321583E1,1.138893890E1
1.637241527E0,2.023071671E1,1.338066387E1,1.163809109E1
1.639667465E0,1.983799553E1,1.464706516E1,1.200449181E1
1.642093402E0,1.968724823E1,1.579143333E1,1.237777233E1
1.644519340E0,1.971356773E1,1.678744507E1,1.269870949E1
1.646945277E0,1.988375854E1,1.760848236E1,1.291406345E1
1.649371163E0,2.020678902E1,1.828385735E1,1.312732410E1
1.651797100E0,2.059711838E1,1.883420563E1,1.332353592E1
1.654223038E0,2.108794594E1,1.931546211E1,1.349821186E1
1.656648975E0,2.163859367E1,1.969382858E1,1.362263870E1
1.659074913E0,2.210040855E1,2.005544281E1,1.369472218E1
1.661500850E0,2.244048882E1,2.032104683E1,1.363968754E1
1.663926788E0,2.264387894E1,2.048854446E1,1.336660671E1
1.666352725E0,2.269203377E1,2.057019806E1,1.283270741E1
1.668778663E0,2.258884430E1,2.047418785E1,1.197338581E1
1.671204600E0,2.238066864E1,2.020858383E1,1.076411247E1
1.673630538E0,2.202862358E1,1.979671860E1,9.260822296E0
1.676056475E0,2.154976082E1,1.920060730E1,7.541877747E0
1.678482413E0,2.093689919E1,1.847289085E1,5.755635738E0
1.680908350E0,2.018286133E1,1.759651947E1,4.039084435E0
1.683334288E0,1.925384712E1,1.667019653E1,2.356033087E0
1.685760225E0,1.827966881E1,1.569332695E1,6.753742099E-1
1.688186163E0,1.726690674E1,1.472602844E1,-9.427721500E-1
1.690612100E0,1.621825218E1,1.375394440E1,-2.499004126E0
1.693037986E0,1.519352627E1,1.272473145E1,-3.935595036E0
1.695463923E0,1.411855125E1,1.170000553E1,-5.302495003E0
1.697889861E0,1.298854065E1,1.063938713E1,-6.614659309E0
1.700315798E0,1.182024479E1,9.564411163E0,-7.883453369E0
1.702741736E0,1.057537842E1,8.453543663E0,-9.125926018E0
1.705167673E0,9.328120232E0,7.313961506E0,-1.033729267E1
1.707593611E0,8.078168869E0,6.167201042E0,-1.151994514E1
1.710019548E0,6.890730858E0,5.018048286E0,-1.260688496E1
1.712445486E0,5.775077343E0,3.919144392E0,-1.360050488E1
1.714871423E0,4.772185802E0,2.853740215E0,-1.447926903E1
1.717297361E0,3.694817305E0,1.814656854E0,-1.519262886E1
1.719723298E0,2.471187592E0,8.066803217E-1,-1.580549049E1
1.722149236E0,1.061216831E0,-2.177468538E-1,-1.634178162E1
1.724575173E0,-4.854438901E-1,-1.254437327E0,-1.672493362E1
1.727001111E0,-2.142174482E0,-2.288734913E0,-1.703839302E1
1.729427048E0,-3.904189348E0,-3.373281717E0,-1.715085602E1
1.731852986E0,-5.685346603E0,-4.474578381E0,-1.723729706E1
1.734278923E0,-7.418647289E0,-5.568696499E0,-1.733300972E1
1.736704861E0,-9.106484413E0,-6.631708145E0,-1.737847328E1
1.739130746E0,-1.068903828E1,-7.658827305E0,-1.736890221E1
1.741556684E0,-1.217109203E1,-8.582756042E0,-1.730190277E1
1.743982621E0,-1.352363491E1,-9.420842171E0,-1.710778427E1
1.746408559E0,-1.474217987E1,-1.017727280E1,-1.676800346E1
1.748834496E0,-1.576451397E1,-1.090768242E1,-1.633460426E1
1.751260434E0,-1.662413597E1,-1.161625671E1,-1.565713596E1
1.753686371E0,-1.727289009E1,-1.239900875E1,-1.471376514E1
1.756112309E0,-1.769641876E1,-1.317727470E1,-1.344497108E1
1.758538246E0,-1.797907066E1,-1.405095387E1,-1.183609676E1
1.760964184E0,-1.805803490E1,-1.493211079E1,-1.001665497E1
1.763390121E0,-1.805324936E1,-1.585603905E1,-8.077271461E0
1.765816059E0,-1.788814354E1,-1.682333755E1,-5.929713726E0
1.768241996E0,-1.754567146E1,-1.775952911E1,-3.566801310E0
1.770667934E0,-1.705484390E1,-1.863081551E1,-8.470591903E-1
1.773093871E0,-1.647548103E1,-1.939951134E1,2.224427700E0
1.775519809E0,-1.568555069E1,-2.011765671E1,5.667101383E0
1.777945746E0,-1.462493229E1,-2.064916229E1,9.457033157E0
1.780371684E0,-1.317637730E1,-2.103709793E1,1.354128265E1
1.782797569E0,-1.130907822E1,-2.113281059E1,1.787947083E1
1.785223506E0,-8.989236832E0,-2.089083672E1,2.236840439E1
1.787649444E0,-6.228816509E0,-2.036172485E1,2.709901619E1
1.790075381E0,-2.977568626E0,-1.946890259E1,3.173421288E1
1.792501319E0,3.837489188E-1,-1.852313995E1,3.606970596E1
1.794927256E0,3.500699520E0,-1.746252060E1,4.041268158E1
1.797353194E0,6.273083687E0,-1.613151360E1,4.451637268E1
1.799779131E0,8.568997383E0,-1.459442329E1,4.799732971E1
1.802205069E0,1.035523891E1,-1.300229931E1,5.076492691E1
1.804631006E0,1.178674507E1,-1.143649578E1,5.271597672E1
1.807056944E0,1.276840115E1,-9.926026344E0,5.365216827E1
1.809482881E0,1.338365555E1,-8.499007225E0,5.357320404E1
1.811908819E0,1.361815166E1,-7.191927433E0,5.256283569E1
1.814334756E0,1.344108295E1,-6.100202084E0,5.090849686E1
1.816760694E0,1.277797222E1,-5.266901970E0,4.917280579E1
1.819186631E0,1.184895897E1,-4.752444744E0,4.749693298E1
1.821612569E0,1.077159023E1,-4.469792843E0,4.601726913E1
1.824038506E0,9.742077827E0,-4.378865242E0,4.451397705E1
1.826464392E0,8.763114929E0,-4.342973232E0,4.282374954E1
1.828890381E0,7.920242786E0,-4.232903481E0,4.083411789E1
1.831316319E0,7.161418915E0,-4.005286217E0,3.853581238E1
1.833742204E0,6.392724991E0,-3.516851187E0,3.605774307E1
1.836168142E0,5.645864964E0,-2.856132984E0,3.348665619E1
1.838594079E0,5.028217793E0,-2.037488461E0,3.084348297E1
1.841020017E0,4.549354076E0,-1.144367456E0,2.828675270E1
1.843445954E0,4.305285931E0,-2.105683982E-1,2.588764954E1
1.845871892E0,4.329214573E0,7.468597889E-1,2.368266296E1
1.848297829E0,4.616353035E0,1.718943954E0,2.174836540E1
1.850723767E0,5.356333256E0,2.676671267E0,1.974437523E1
1.853149704E0,6.294619083E0,3.614956856E0,1.781964874E1
1.855575642E0,7.288238525E0,4.496113777E0,1.597388554E1
1.858001579E0,8.370392799E0,5.401198864E0,1.418525124E1
1.860427517E0,9.483653069E0,6.258128643E0,1.242084312E1
1.862853454E0,1.050359440E1,7.081857681E0,1.068754196E1
1.865279392E0,1.138684464E1,7.888537884E0,9.033205032E0
1.867705329E0,1.210289669E1,8.621041298E0,7.350152969E0
1.870131267E0,1.259372425E1,9.300901413E0,5.686244011E0
1.872557204E0,1.283300686E1,9.894919395E0,4.015156269E0
1.874983090E0,1.282343578E1,1.037348461E1,2.363211393E0
1.877409027E0,1.255514050E1,1.074467087E1,8.240283132E-1
1.879834965E0,1.204786205E1,1.098156071E1,-5.599204898E-1
1.882260902E0,1.137488079E1,1.107039356E1,-1.898106575E0
1.884686840E0,1.064237785E1,1.106560802E1,-3.183650494E0
1.887112777E0,9.840482712E0,1.099143124E1,-4.407280445E0
1.889538715E0,9.052646637E0,1.079252720E1,-5.635396481E0
1.891964652E0,8.200502396E0,1.055563831E1,-6.830013275E0
1.894390590E0,7.362416267E0,1.018205833E1,-7.964809418E0
1.896816527E0,6.565307140E0,9.863813400E0,-9.054141998E0
1.899242465E0,5.818148136E0,9.468698502E0,-1.004058266E1
1.901668402E0,5.116752148E0,9.073583603E0,-1.087597752E1
1.904094340E0,4.465605259E0,8.671290398E0,-1.160369396E1
1.906520277E0,3.864707708E0,8.259724617E0,-1.217587757E1
1.908946215E0,3.311666489E0,7.871788502E0,-1.261167049E1
1.911372152E0,2.753839731E0,7.488637447E0,-1.291825104E1
1.913798090E0,2.263011932E0,7.077072144E0,-1.309771252E1
1.916224027E0,1.757827282E0,6.662814617E0,-1.318864059E1
1.918649965E0,1.264606714E0,6.246164322E0,-1.322931862E1
1.921075902E0,8.123632669E-1,5.843871117E0,-1.323171139E1
1.923501788E0,4.890331328E-1,5.410770416E0,-1.318146133E1
1.925927725E0,2.087737769E-1,5.020441055E0,-1.311207008E1
1.928353663E0,7.716853172E-2,4.685146809E0,-1.296850014E1
1.930779600E0,4.127619043E-2,4.424329281E0,-1.278425312E1
1.933205538E0,7.238288224E-2,4.252045631E0,-1.267866993E1
1.935631475E0,1.944168359E-1,4.105784416E0,-1.263559914E1
1.938057413E0,3.741776347E-1,4.019642830E0,-1.276989651E1
1.940483350E0,5.560321808E-1,3.914358854E0,-1.301396370E1
1.942909288E0,6.708876491E-1,3.766003847E0,-1.332293701E1
1.945335225E0,6.326025128E-1,3.547957659E0,-1.361964703E1
1.947761163E0,4.603192508E-1,3.241676569E0,-1.389272785E1
1.950187100E0,9.152546525E-2,2.844168901E0,-1.408654690E1
1.952613038E0,-4.064807594E-1,2.324627161E0,-1.416311741E1
1.955038975E0,-1.050449133E0,1.695015788E0,-1.409133244E1
1.957464913E0,-1.720738530E0,9.577272534E-1,-1.380150223E1
1.959890850E0,-2.436491728E0,1.722832322E-1,-1.327717495E1
1.962316788E0,-3.070888758E0,-6.391827464E-1,-1.242503071E1
1.964742725E0,-3.662214994E0,-1.462911963E0,-1.130698395E1
1.967168611E0,-4.078865528E0,-2.295913219E0,-1.004536819E1
1.969594600E0,-4.423730850E0,-3.086143017E0,-8.627920151E0
1.972020486E0,-4.617549419E0,-3.844966888E0,-7.083652496E0
1.974446423E0,-4.737190723E0,-4.589433670E0,-5.470291615E0
1.976872361E0,-4.739583492E0,-5.288437366E0,-3.712763548E0
1.979298298E0,-4.770689964E0,-6.095416546E0,-1.809572101E0
1.981724236E0,-4.861916542E0,-6.954739094E0,2.350948304E-1
1.984150173E0,-5.031806946E0,-7.881359577E0,2.420938253E0
1.986576111E0,-5.228018284E0,-8.776873589E0,4.707280159E0
1.989002048E0,-5.438885689E0,-9.655338287E0,7.046264648E0
1.991427986E0,-5.623133183E0,-1.047428226E1,9.468997002E0
1.993853923E0,-5.733202934E0,-1.125942707E1,1.199492073E1
1.996279861E0,-5.769095421E0,-1.195843029E1,1.458036613E1
1.998705798E0,-5.726024628E0,-1.257129192E1,1.724746513E1
2.001131736E0,-5.623133183E0,-1.306451225E1,2.005813408E1
2.003557673E0,-5.419743061E0,-1.348355579E1,2.275155640E1
2.005983611E0,-5.144269466E0,-1.387149239E1,2.537528610E1
2.008409548E0,-4.746761799E0,-1.418734455E1,2.809024239E1
2.010835486E0,-4.356731892E0,-1.451306725E1,3.100380325E1
2.013261423E0,-3.944867134E0,-1.475234985E1,3.403251648E1
2.015687309E0,-3.607180119E0,-1.493450356E1,3.702982712E1
2.018113246E0,-3.310470104E0,-1.501585960E1,3.989313889E1
2.020539184E0,-3.032603502E0,-1.498235989E1,4.252674103E1
2.022965121E0,-2.752643347E0,-1.489143276E1,4.481547546E1
2.025391059E0,-2.551347256E0,-1.470688629E1,4.658466721E1
2.027816996E0,-2.355135679E0,-1.451546001E1,4.771228409E1
2.030242934E0,-2.158924341E0,-1.433839130E1,4.815764999E1
2.032668871E0,-1.785344839E0,-1.418016624E1,4.803322220E1
2.035094809E0,-1.127019525E0,-1.395763397E1,4.724299240E1
2.037520746E0,-2.003988922E-1,-1.356969738E1,4.582584381E1
2.039946684E0,8.913264275E-1,-1.298315620E1,4.395615387E1
2.042372621E0,1.992623091E0,-1.216929817E1,4.172962952E1
2.044798559E0,3.103491068E0,-1.110628605E1,3.944777679E1
2.047224496E0,4.051347733E0,-9.918848038E0,3.723112488E1
2.049650434E0,4.824827671E0,-8.616254807E0,3.516731262E1
2.052076371E0,5.440082073E0,-7.345067978E0,3.324946594E1
2.054502309E0,5.995516300E0,-6.157629967E0,3.135345459E1
2.056928246E0,6.503093719E0,-5.058726311E0,2.942872810E1
2.059354184E0,6.917052269E0,-3.971786499E0,2.747738075E1
2.061780121E0,7.343273640E0,-2.925524712E0,2.546411896E1
2.064206006E0,7.649854183E0,-1.850549221E0,2.352713013E1
2.066631944E0,8.075776100E0,-6.966105103E-1,2.172204399E1
2.069057881E0,8.703293800E0,4.405784607E-1,1.973719788E1
2.071483819E0,9.316155434E0,1.625623941E0,1.785075569E1
2.073909756E0,9.818947792E0,2.858525753E0,1.600738525E1
2.076335694E0,1.029033375E1,4.084249020E0,1.429322720E1
2.078761631E0,1.078833961E1,5.317151070E0,1.271067429E1
2.081187569E0,1.130309582E1,6.564708710E0,1.120469093E1
2.083613506E0,1.183699417E1,7.776075363E0,9.655637741E0
2.086039444E0,1.238764286E1,8.997013092E0,8.066205025E0
2.088465381E0,1.295264816E1,1.016052341E1,6.471687794E0
2.090891319E0,1.345543957E1,1.128335476E1,4.948955536E0
2.093317256E0,1.386491203E1,1.233200932E1,3.584448338E0
2.095743194E0,1.420947838E1,1.330409431E1,2.327319145E0
2.098169131E0,1.445623779E1,1.418734455E1,1.190130115E0
2.100595069E0,1.466441345E1,1.494168186E1,1.414756328E-1
2.103021006E0,1.479841137E1,1.558565044E1,-8.494520187E-1
2.105446944E0,1.492313766E1,1.606212044E1,-1.773679733E0
2.107872881E0,1.502842140E1,1.646172333E1,-2.757728100E0
2.110298767E0,1.509781361E1,1.673001862E1,-3.758227110E0
2.112724704E0,1.517199135E1,1.691905022E1,-4.706383228E0
2.115150642E0,1.520788383E1,1.702912140E1,-5.568397522E0
2.117576579E0,1.516241932E1,1.704586983E1,-6.427719593E0
2.120002517E0,1.501885033E1,1.697887039E1,-7.150950432E0
2.122428454E0,1.480798340E1,1.680180168E1,-7.692027569E0
2.124854392E0,1.445863056E1,1.650718689E1,-8.211270332E0
2.127280329E0,1.403001690E1,1.616022682E1,-8.577671051E0
2.129706267E0,1.353679562E1,1.570289898E1,-8.881858826E0
2.132132204E0,1.297896957E1,1.522642803E1,-9.123533249E0
2.134558142E0,1.231107235E1,1.468535042E1,-9.286245346E0
2.136984079E0,1.170538902E1,1.412513161E1,-9.358030319E0
2.139410017E0,1.113320541E1,1.356969738E1,-9.317352295E0
2.141835954E0,1.063998508E1,1.298794174E1,-9.233603477E0
2.144261892E0,1.018744278E1,1.242772293E1,-9.109176636E0
2.146687829E0,9.873982430E0,1.189382362E1,-9.001500130E0
2.149113767E0,9.634401321E0,1.135274696E1,-8.924929619E0
2.151539704E0,9.543474197E0,1.083799076E1,-8.841180801E0
2.153965642E0,9.617651939E0,1.033041382E1,-8.814859390E0
2.156391527E0,9.826126099E0,9.856335640E0,-8.836395264E0
2.158817465E0,1.005583763E1,9.322735786E0,-8.836395264E0
2.161243402E0,1.035045338E1,8.719146729E0,-8.819644928E0
2.163669340E0,1.051795101E1,7.991429329E0,-8.785846710E0
2.166095277E0,1.055384350E1,7.084250450E0,-8.742775917E0
2.168521215E0,1.033101177E1,6.035595894E0,-8.642276764E0
2.170947152E0,9.955338478E0,4.903192520E0,-8.517850876E0
2.173373090E0,9.500403404E0,3.699004650E0,-8.386244774E0
2.175799027E0,8.995218277E0,2.477767944E0,-8.278568268E0
2.178224965E0,8.329714775E0,1.161117196E0,-8.110771179E0
2.180650902E0,7.546962738E0,-1.339980662E-1,-7.799704552E0
2.183076840E0,6.589235306E0,-1.529910922E0,-7.249056339E0
2.185502777E0,5.418546677E0,-2.949453115E0,-6.384648800E0
2.187928715E0,4.072883129E0,-4.438685894E0,-5.187639713E0
2.190354652E0,2.600699186E0,-5.968596935E0,-3.753441334E0
2.192780590E0,1.063609719E0,-7.510172844E0,-2.118545294E0
2.195206527E0,-4.328017831E-1,-9.116654396E0,-4.043870270E-1
2.197632465E0,-1.998306036E0,-1.072552872E1,1.367498159E0
2.200058350E0,-3.631108284E0,-1.235115242E1,3.179762125E0
2.202484288E0,-5.328516960E0,-1.393609810E1,5.063810825E0
2.204910225E0,-7.145865917E0,-1.552822208E1,7.060621262E0
2.207336163E0,-9.099306107E0,-1.711795425E1,9.119346619E0
2.209762100E0,-1.112483025E1,-1.868824387E1,1.119751263E1
2.212188038E0,-1.317637730E1,-2.019901276E1,1.324696541E1
2.214613975E0,-1.525215054E1,-2.189163589E1,1.509751415E1
2.217039913E0,-1.741885185E1,-2.359143639E1,1.673270988E1
2.219465850E0,-1.955923080E1,-2.523859596E1,1.821715736E1
2.221891788E0,-2.157009888E1,-2.668715096E1,1.952184296E1
2.224317725E0,-2.343769836E1,-2.789851761E1,2.065185356E1
2.226743663E0,-2.504896545E1,-2.894956398E1,2.169811630E1
2.229169600E0,-2.641825676E1,-2.974188805E1,2.260768700E1
2.231595538E0,-2.758894539E1,-3.033082199E1,2.351516533E1
2.234021475E0,-2.845813942E1,-3.081686401E1,2.439393044E1
2.236447413E0,-2.906621552E1,-3.113540840E1,2.524846649E1
2.238873350E0,-2.941556740E1,-3.132922745E1,2.611287308E1
2.241299288E0,-2.951636505E1,-3.140579796E1,2.699612427E1
2.243725225E0,-2.940599632E1,-3.145843887E1,2.776721191E1
2.246151163E0,-2.908535767E1,-3.138904762E1,2.844467926E1
2.248577100E0,-2.866152954E1,-3.126222801E1,2.892832756E1
2.251002986E0,-2.818984413E1,-3.113062286E1,2.914368248E1
2.253428923E0,-2.761766052E1,-3.091497040E1,2.904796982E1
2.255854861E0,-2.701197624E1,-3.062065315E1,2.853321266E1
2.258280798E0,-2.624118805E1,-3.025185776E1,2.761377144E1
2.260706736E0,-2.526910400E1,-2.980410194E1,2.627319336E1
2.263132673E0,-2.418934250E1,-2.925584602E1,2.461885452E1
2.265558611E0,-2.283440781E1,-2.857598495E1,2.276591301E1
2.267984548E0,-2.108166504E1,-2.776930428E1,2.070928192E1
2.270410486E0,-1.884587097E1,-2.675175667E1,1.875823402E1
2.272836423E0,-1.592722607E1,-2.565524673E1,1.698395538E1
2.275262361E0,-1.237208939E1,-2.430240440E1,1.541127300E1
2.277688298E0,-8.512765884E0,-2.274407768E1,1.429083443E1
2.280114236E0,-4.674977303E0,-2.091476631E1,1.351974678E1
2.282540173E0,-1.028913736E0,-1.885125542E1,1.305284786E1
2.284966111E0,2.368296146E0,-1.659601974E1,1.285663605E1
2.287392048E0,5.330012321E0,-1.420888042E1,1.283270741E1
2.289817986E0,7.989634991E0,-1.176700401E1,1.292602825E1
2.292243923E0,1.031186962E1,-9.274879456E0,1.313689518E1
2.294669809E0,1.233260822E1,-6.734599113E0,1.341446304E1
2.297095746E0,1.398215961E1,-4.275974274E0,1.368036556E1
2.299521684E0,1.536102390E1,-1.836192250E0,1.400578880E1
2.301947621E0,1.648624802E1,4.716851711E-1,1.437219048E1
2.304373559E0,1.743440437E1,2.724527597E0,1.471436405E1
2.306799496E0,1.815733719E1,4.821836948E0,1.499223042E1
2.309225434E0,1.879681778E1,6.741777897E0,1.513579941E1
2.311651371E0,1.941925049E1,8.659325600E0,1.509272861E1
2.314077309E0,2.012782669E1,1.045274639E1,1.495155239E1
2.316503246E0,2.084836388E1,1.226740360E1,1.460668659E1
2.318929184E0,2.153301048E1,1.406770325E1,1.416132259E1
2.321355121E0,2.224427795E1,1.585364628E1,1.365165138E1
2.323781059E0,2.291695976E1,1.754866219E1,1.307199001E1
2.326206996E0,2.362314224E1,1.923410606E1,1.245673561E1
2.328632934E0,2.441097832E1,2.087408829E1,1.176969624E1
2.331058871E0,2.525833702E1,2.238724899E1,1.092712402E1
2.333484809E0,2.613949394E1,2.388814735E1,1.006271648E1
2.335910694E0,2.705863571E1,2.526730919E1,9.102596283E0
2.338336684E0,2.789672279E1,2.649781799E1,8.137989998E0
2.340762621E0,2.856222725E1,2.759193611E1,7.173084259E0
2.343188506E0,2.903869820E1,2.851616478E1,6.119643688E0
2.345614444E0,2.933780098E1,2.920081139E1,5.080560684E0
2.348040381E0,2.949602509E1,2.961028290E1,3.976871252E0
2.350466319E0,2.941437149E1,2.982085037E1,2.784647465E0
2.352892256E0,2.902194786E1,2.994288445E1,1.616351724E0
2.355318194E0,2.850001335E1,2.980410194E1,5.198407173E-1
2.357744131E0,2.786322403E1,2.945923615E1,-5.000999570E-1
2.360170069E0,2.711606407E1,2.891815948E1,-1.462313771E0
2.362596006E0,2.626870537E1,2.818565559E1,-2.362613201E0
2.365021944E0,2.537080002E1,2.732633400E1,-3.123830080E0
2.367447881E0,2.444447708E1,2.640689087E1,-3.741477251E0
2.369873819E0,2.352264214E1,2.540848541E1,-4.244269371E0
2.372299756E0,2.261755753E1,2.436701012E1,-4.684847832E0
2.374725694E0,2.174866486E1,2.329442787E1,-5.053641319E0
2.377151631E0,2.090818596E1,2.219073868E1,-5.414957523E0
2.379577569E0,2.019960976E1,2.108974075E1,-5.764608860E0
2.382003506E0,1.958435631E1,1.994028854E1,-6.162116528E0
2.384429392E0,1.909113503E1,1.875045776E1,-6.547360897E0
2.386855329E0,1.869841385E1,1.750559044E1,-6.928118706E0
2.389281267E0,1.837777519E1,1.616501236E1,-7.325626373E0
2.391707204E0,1.804487419E1,1.469013596E1,-7.754240990E0
2.394133142E0,1.767877197E1,1.300947762E1,-8.196912766E0
2.396559079E0,1.716640854E1,1.113978577E1,-8.714061737E0
2.398985017E0,1.647428513E1,9.135796547E0,-9.255139351E0
2.401410954E0,1.560060501E1,6.935596466E0,-9.793823242E0
2.403836892E0,1.457827187E1,4.610969067E0,-1.031815052E1
2.406262829E0,1.336929798E1,2.197807550E0,-1.074915791E1
2.408688767E0,1.205504036E1,-3.089732230E-1,-1.101476097E1
2.411114704E0,1.059452152E1,-2.925524712E0,-1.101954651E1
2.413540642E0,9.067003250E0,-5.571089268E0,-1.066062355E1
2.415966579E0,7.415058136E0,-8.319544792E0,-9.853643417E0
2.418392517E0,5.523830891E0,-1.108953667E1,-8.458029747E0
2.420818454E0,3.318845034E0,-1.388345623E1,-6.578766823E0
2.423244392E0,8.602197170E-1,-1.674437523E1,-4.433601379E0
2.425670329E0,-1.869093537E0,-1.959332848E1,-2.164009094E0
2.428096267E0,-4.837988377E0,-2.238246346E1,2.039881349E-1
2.430522152E0,-7.902296543E0,-2.526252365E1,2.464009047E0
2.432948090E0,-1.107458115E1,-2.807319260E1,4.661816597E0
2.435374027E0,-1.439043522E1,-3.092214775E1,6.785147667E0
2.437799965E0,-1.776610947E1,-3.362035370E1,8.870492935E0
2.440225902E0,-2.123749733E1,-3.606222916E1,1.092473125E1
2.442651840E0,-2.486441803E1,-3.824328613E1,1.310339546E1
2.445077777E0,-2.858017349E1,-4.008217239E1,1.537059498E1
2.447503715E0,-3.227169800E1,-4.155674744E1,1.769522285E1
2.449929652E0,-3.566891098E1,-4.241637039E1,1.995045853E1
2.452355590E0,-3.859473419E1,-4.274897385E1,2.205494499E1
2.454781527E0,-4.079972076E1,-4.269393921E1,2.393181610E1
2.457207465E0,-4.228865433E1,-4.233023071E1,2.564836693E1
2.459633402E0,-4.299034882E1,-4.183940125E1,2.704158783E1
2.462059340E0,-4.289912415E1,-4.129353714E1,2.818595505E1
2.464485277E0,-4.215465546E1,-4.067589188E1,2.896182823E1
2.466911215E0,-4.103900146E1,-4.001726532E1,2.929682350E1
2.469337152E0,-3.950430679E1,-3.931826401E1,2.909343338E1
2.471763090E0,-3.757718658E1,-3.860250854E1,2.831785965E1
2.474189027E0,-3.517359543E1,-3.785565186E1,2.709423065E1
2.476614965E0,-3.231237793E1,-3.718027496E1,2.555026054E1
2.479040850E0,-2.908774948E1,-3.635206223E1,2.392703056E1
2.481466788E0,-2.577668190E1,-3.530579758E1,2.233729935E1
2.483892725E0,-2.246561432E1,-3.394368362E1,2.096561241E1
2.486318663E0,-1.900618935E1,-3.229174042E1,1.964148521E1
2.488744600E0,-1.516361618E1,-3.043371391E1,1.814776421E1
2.491170538E0,-1.128036404E1,-2.846591568E1,1.669442368E1
2.493596475E0,-7.531110287E0,-2.641885567E1,1.527697659E1
2.496022413E0,-3.865904093E0,-2.430001068E1,1.387179089E1
2.498448350E0,-4.471587241E-1,-2.212164497E1,1.278245831E1
2.500874288E0,2.758625507E0,-1.992383766E1,1.196620655E1
2.503300225E0,5.614758492E0,-1.769013786E1,1.137936687E1
2.505726163E0,8.205287933E0,-1.545165253E1,1.110179996E1
2.508152100E0,1.044855881E1,-1.321077347E1,1.099890804E1
2.510578038E0,1.231585789E1,-1.097707367E1,1.096062279E1
2.513003975E0,1.376680565E1,-8.752944946E0,1.094626617E1
2.515429913E0,1.484417439E1,-6.538387775E0,1.104915810E1
2.517855850E0,1.552882099E1,-4.381258488E0,1.127169037E1
2.520281788E0,1.583031654E1,-2.264806747E0,1.154716396E1
2.522707725E0,1.590210152E1,-2.081755698E-1,1.196381378E1
2.525133611E0,1.580160236E1,1.745265007E0,1.242802143E1
2.527559548E0,1.560299778E1,3.614956856E0,1.287099266E1
2.529985486E0,1.553839207E1,5.405984402E0,1.336421394E1
2.532411423E0,1.566521168E1,7.163213730E0,1.388614845E1
2.534837361E0,1.604596901E1,8.817551613E0,1.436261845E1
2.537263298E0,1.669950867E1,1.047188950E1,1.479601860E1
2.539689236E0,1.760190201E1,1.217408371E1,1.516690636E1
2.542115173E0,1.877767563E1,1.388824177E1,1.547348690E1
2.544541111E0,2.026900291E1,1.567179203E1,1.576780415E1
2.546967048E0,2.197598267E1,1.762283897E1,1.602652740E1
2.549392986E0,2.386272240E1,1.968186378E1,1.641177177E1
2.551818923E0,2.586401939E1,2.176481628E1,1.693610001E1
2.554244861E0,2.788236618E1,2.390280342E1,1.748674774E1
2.556670798E0,2.988126945E1,2.595434952E1,1.810678864E1
2.559096736E0,3.180390358E1,2.781925583E1,1.867179298E1
2.561522673E0,3.351088333E1,2.938984489E1,1.916979980E1
2.563948611E0,3.488496017E1,3.064936638E1,1.944288063E1
2.566374548E0,3.594318771E1,3.164268684E1,1.953141403E1
2.568800434E0,3.660629654E1,3.231297684E1,1.933041763E1
2.571226371E0,3.689373779E1,3.266980743E1,1.881805420E1
2.573652309E0,3.674538040E1,3.270330429E1,1.810918045E1
2.576078246E0,3.627608871E1,3.245923615E1,1.710868263E1
2.578504184E0,3.552893066E1,3.189183998E1,1.583480263E1
2.580930121E0,3.463850021E1,3.094607544E1,1.430758381E1
2.583356059E0,3.358266830E1,2.977538681E1,1.268674564E1
2.585781996E0,3.244548035E1,2.844198799E1,1.110658550E1
2.588207934E0,3.121496964E1,2.698386002E1,9.720542908E0
2.590633871E0,2.999881744E1,2.547548485E1,8.470592499E0
2.593059809E0,2.866990280E1,2.393630219E1,7.388438225E0
2.595485746E0,2.739153862E1,2.234657097E1,6.402296066E0
2.597911684E0,2.617777824E1,2.071137619E1,5.363213062E0
2.600337621E0,2.502862549E1,1.902114487E1,4.230809689E0
2.602763559E0,2.396800804E1,1.734527206E1,2.973680258E0
2.605189496E0,2.298395920E1,1.565025616E1,1.649851203E0
2.607615434E0,2.213181496E1,1.396241951E1,2.614158690E-1
2.610041319E0,2.129612160E1,1.214297676E1,-1.129711390E0
2.612467256E0,2.041257095E1,1.021555805E1,-2.664407969E0
2.614893194E0,1.950300026E1,8.149355888E0,-4.268197536E0
2.617319131E0,1.843280983E1,5.985346794E0,-5.932106495E0
2.619745069E0,1.725733566E1,3.739682674E0,-7.653443336E0
2.622171006E0,1.600050545E1,1.405185103E0,-9.298210144E0
2.624596944E0,1.467877007E1,-9.505487680E-1,-1.078504944E1
2.627022881E0,1.327119255E1,-3.409173965E0,-1.198205948E1
2.629448819E0,1.165035439E1,-5.865705490E0,-1.271934795E1
2.631874756E0,9.756435394E0,-8.369794846E0,-1.293260860E1
2.634300694E0,7.566105366E0,-1.092203903E1,-1.266431332E1
2.636726631E0,5.080859661E0,-1.347637749E1,-1.197009563E1
2.639152569E0,2.310868502E0,-1.599751472E1,-1.097169018E1
2.641578506E0,-5.907281041E-1,-1.842742538E1,-9.767501831E0
2.644004444E0,-3.662214994E0,-2.075205421E1,-8.436494827E0
2.646430381E0,-6.762714863E0,-2.293550491E1,-6.913762093E0
2.648856319E0,-9.894321442E0,-2.502802849E1,-5.268995285E0
2.651282256E0,-1.299691486E1,-2.705085945E1,-3.449553013E0
2.653708142E0,-1.619552040E1,-2.903809929E1,-1.534397483E0
2.656134079E0,-1.954487419E1,-3.096282578E1,3.834498227E-1
2.658560017E0,-2.303779793E1,-3.290938568E1,2.291426897E0
2.660985954E0,-2.672962379E1,-3.486521912E1,4.123132706E0
2.663411892E0,-3.048336411E1,-3.669184113E1,5.916254044E0
2.665837829E0,-3.420390320E1,-3.825525284E1,7.912765503E0
2.668263767E0,-3.774707794E1,-3.944986725E1,1.015603638E1
2.670689704E0,-4.097200394E1,-4.031666946E1,1.260299683E1
2.673115642E0,-4.357928085E1,-4.084817505E1,1.524108410E1
2.675541579E0,-4.534368896E1,-4.095824432E1,1.808046722E1
2.677967517E0,-4.626522446E1,-4.080749512E1,2.084328079E1
2.680393454E0,-4.628915405E1,-4.040280914E1,2.339791679E1
2.682819392E0,-4.564279175E1,-3.976362610E1,2.568425941E1
2.685245329E0,-4.438357162E1,-3.910051727E1,2.757309341E1
2.687671267E0,-4.260002136E1,-3.833660889E1,2.882065201E1
2.690097204E0,-4.030649948E1,-3.753471375E1,2.932553673E1
2.692523142E0,-3.762982941E1,-3.676871109E1,2.917239571E1
2.694949079E0,-3.463969803E1,-3.596891022E1,2.840160751E1
2.697375017E0,-3.141716385E1,-3.518376541E1,2.694587517E1
2.699800954E0,-2.797688293E1,-3.436482239E1,2.497807693E1
2.702226840E0,-2.455574417E1,-3.341696548E1,2.292623138E1
2.704652777E0,-2.115614128E1,-3.229174042E1,2.087917137E1
2.707078715E0,-1.785225105E1,-3.087907791E1,1.916022873E1
2.709504652E0,-1.439282799E1,-2.920081139E1,1.743889236E1
2.711930590E0,-1.053350449E1,-2.733590508E1,1.556202126E1
2.714356527E0,-6.583253384E0,-2.531516647E1,1.379522038E1
2.716782465E0,-2.786142826E0,-2.319632149E1,1.215524006E1
2.719208402E0,8.099704385E-1,-2.092672920E1,1.068036366E1
2.721634340E0,4.080061913E0,-1.856381798E1,9.411569595E0
2.724060277E0,7.072884560E0,-1.614587021E1,8.396414757E0
2.726486215E0,9.766006470E0,-1.362951756E1,7.604091167E0
2.728912152E0,1.212203979E1,-1.105125141E1,7.012764931E0
2.731338090E0,1.410897923E1,-8.467900276E0,6.665506363E0
2.733764027E0,1.580399513E1,-5.884848118E0,6.545865536E0
2.736189965E0,1.721905136E1,-3.334996462E0,6.553043842E0
2.738615902E0,1.842802429E1,-8.620143533E-1,6.624828815E0
2.741041840E0,1.942403603E1,1.553839207E0,6.737291336E0
2.743467777E0,2.031207275E1,3.952643871E0,6.823432922E0
2.745893663E0,2.104966164E1,6.231807709E0,6.873682022E0
2.748319600E0,2.158595276E1,8.381758690E0,6.825825691E0
2.750745538E0,2.197837448E1,1.039980507E1,6.722934246E0
2.753171475E0,2.236870384E1,1.227936745E1,6.493223190E0
2.755597413E0,2.286910248E1,1.409163189E1,6.251249313E0
2.758023350E0,2.365424919E1,1.581775379E1,6.045466423E0
2.760449288E0,2.466701126E1,1.751037788E1,5.846862316E0
2.762875225E0,2.586880493E1,1.917667961E1,5.640780449E0
2.765301163E0,2.720729065E1,2.082862473E1,5.427819252E0
2.767727100E0,2.853112030E1,2.239442635E1,5.327320576E0
2.770153038E0,2.966591644E1,2.385704041E1,5.346463203E0
2.772578975E0,3.062603569E1,2.515963364E1,5.458925724E0
2.775004913E0,3.134657478E1,2.629442978E1,5.554638863E0
2.777430850E0,3.178476143E1,2.722075081E1,5.612066269E0
2.779856788E0,3.203839874E1,2.800619507E1,5.616852283E0
2.782282725E0,3.209822083E1,2.861905670E1,5.576174259E0
2.784708663E0,3.202882767E1,2.904049110E1,5.518746376E0
2.787134548E0,3.174647522E1,2.930370331E1,5.327320576E0
2.789560486E0,3.126761246E1,2.935395241E1,5.039882660E0
2.791986423E0,3.062125015E1,2.926063156E1,4.688137531E0
2.794412361E0,2.984777069E1,2.904049110E1,4.367200375E0
2.796838298E0,2.900759125E1,2.865734100E1,4.022335052E0
2.799264236E0,2.815993309E1,2.816890717E1,3.665804386E0
2.801690173E0,2.730061150E1,2.742443848E1,3.218047380E0
2.804116111E0,2.645056152E1,2.656003189E1,2.660220623E0
2.806542048E0,2.559841728E1,2.542284393E1,2.035394669E0
2.808967986E0,2.478665161E1,2.417319107E1,1.384247899E0
2.811393923E0,2.394886398E1,2.282064819E1,7.256234884E-1
2.813819861E0,2.313949203E1,2.140559387E1,1.486541033E-1
2.816245798E0,2.237348938E1,1.995225334E1,-3.514458239E-1
2.818671736E0,2.152104759E1,1.841306877E1,-8.111668825E-1
2.821097673E0,2.058515358E1,1.683290863E1,-1.285244823E0
2.823523611E0,1.960110664E1,1.519292831E1,-1.893320918E0
2.825949548E0,1.847348785E1,1.352662659E1,-2.577967405E0
2.828375486E0,1.732912064E1,1.177179050E1,-3.313162088E0
2.830801371E0,1.616800308E1,1.001695347E1,-4.148556232E0
2.833227309E0,1.498056507E1,8.240582466E0,-5.010570526E0
2.835653246E0,1.380748367E1,6.430411816E0,-5.900999546E0
2.838079184E0,1.268465233E1,4.608576298E0,-6.758228302E0
2.840505121E0,1.164317608E1,2.614457846E0,-7.536194801E0
2.842931059E0,1.058016396E1,5.554339290E-1,-8.086843491E0
2.845356996E0,9.395118713E0,-1.587338686E0,-8.381459236E0
2.847782934E0,8.082955360E0,-3.847359657E0,-8.295317650E0
2.850208871E0,6.562914371E0,-6.088238239E0,-7.818847179E0
2.852634809E0,4.920540810E0,-8.355437279E0,-7.004689217E0
2.855060746E0,3.089133978E0,-1.058195877E1,-5.941677570E0
2.857486684E0,1.156929731E0,-1.271994591E1,-4.739882469E0
2.859912621E0,-9.738788009E-1,-1.481934929E1,-3.444767237E0
2.862338559E0,-3.241078377E0,-1.678505325E1,-2.000998020E0
2.864764496E0,-5.635097504E0,-1.870977974E1,-4.666004181E-1
2.867190434E0,-8.206484795E0,-2.050080681E1,1.209272742E0
2.869616371E0,-1.085174942E1,-2.215993118E1,3.005086184E0
2.872042309E0,-1.359781265E1,-2.372782707E1,4.879563808E0
2.874468194E0,-1.637737465E1,-2.521466827E1,6.699006081E0
2.876894131E0,-1.932922173E1,-2.673979378E1,8.417949677E0
2.879320069E0,-2.247518539E1,-2.833909607E1,1.012732315E1
2.881746006E0,-2.579821777E1,-2.989742088E1,1.177687454E1
2.884171944E0,-2.914039230E1,-3.131247711E1,1.335464191E1
2.886597881E0,-3.252085114E1,-3.260759354E1,1.492523098E1
2.889023819E0,-3.580320740E1,-3.364189148E1,1.655564117E1
2.891449756E0,-3.882205200E1,-3.441028595E1,1.821237183E1
2.893875694E0,-4.138147354E1,-3.489393616E1,1.984038734E1
2.896301631E0,-4.332534409E1,-3.506890869E1,2.141307068E1
2.898727569E0,-4.445056915E1,-3.503062439E1,2.276591301E1
2.901153506E0,-4.484568405E1,-3.482215118E1,2.381456757E1
2.903579444E0,-4.462046051E1,-3.452304840E1,2.452314186E1
2.906005381E0,-4.377070999E1,-3.417818069E1,2.492304230E1
2.908431319E0,-4.233172607E1,-3.387878036E1,2.495654106E1
2.910857256E0,-4.037110519E1,-3.368735504E1,2.460928345E1
2.913283194E0,-3.795076370E1,-3.359164047E1,2.388874435E1
2.915709131E0,-3.502733612E1,-3.358206940E1,2.275394821E1
2.918135069E0,-3.160380363E1,-3.354378510E1,2.125275230E1
2.920561006E0,-2.806781006E1,-3.335235977E1,1.960798454E1
2.922986892E0,-2.449831581E1,-3.276073456E1,1.814297867E1
2.925412829E0,-2.041616058E1,-3.204019547E1,1.655085564E1
2.927838767E0,-1.583629799E1,-3.106810951E1,1.458036613E1
2.930264704E0,-1.082782173E1,-2.978735161E1,1.261256790E1
2.932690642E0,-5.692524910E0,-2.819283485E1,1.064925671E1
2.935116579E0,-5.596213937E-1,-2.623460770E1,8.722137451E0
2.937542517E0,4.441677094E0,-2.394108772E1,7.089335442E0
2.939968454E0,9.261120796E0,-2.123570251E1,5.624030590E0
2.942394392E0,1.390798283E1,-1.816391754E1,4.271487713E0
2.944820329E0,1.820788574E1,-1.479781342E1,3.285046339E0
2.947246267E0,2.203340912E1,-1.120678520E1,2.834896564E0
2.949672204E0,2.524637222E1,-7.488637447E0,2.789433002E0
2.952098142E0,2.775554657E1,-3.734897137E0,3.344866991E0
2.954524079E0,2.959652328E1,-2.392822644E-3,4.371985912E0
2.956950017E0,3.074328423E1,3.607778311E0,5.590530872E0
2.959375954E0,3.122693443E1,6.885347366E0,6.787540436E0
2.961801892E0,3.116232681E1,9.748658180E0,7.685447216E0
2.964227829E0,3.067149925E1,1.200867939E1,8.248059273E0
2.966653715E0,3.003949547E1,1.377308750E1,8.276773453E0
2.969079652E0,2.945774078E1,1.511875057E1,7.898408413E0
2.971505590E0,2.904587555E1,1.621765518E1,7.323832035E0
2.973931527E0,2.889034271E1,1.713919067E1,6.770790577E0
2.976357465E0,2.893102074E1,1.806102562E1,6.359225273E0
2.978783402E0,2.906741142E1,1.895893288E1,6.177071571E0
2.981209340E0,2.916790962E1,1.990200233E1,6.100501537E0
2.983635277E0,2.924448013E1,2.083819580E1,6.172286034E0
2.986061215E0,2.935694313E1,2.182224274E1,6.260820389E0
2.988487152E0,2.953909683E1,2.281586266E1,6.265605927E0
2.990913090E0,2.981187820E1,2.381157684E1,6.114858150E0
2.993339027E0,3.005624580E1,2.476930428E1,5.822933674E0
2.995764965E0,3.027877808E1,2.559781837E1,5.411069393E0
2.998190902E0,3.044866753E1,2.628964233E1,4.972883701E0
3.000616840E0,3.051088142E1,2.674218559E1,4.422235489E0
3.003042725E0,3.040559769E1,2.697428894E1,3.852444410E0
3.005468715E0,3.022852898E1,2.701975250E1,3.292224884E0
3.007894600E0,2.997459030E1,2.690729141E1,2.779861689E0
3.010320538E0,2.967548752E1,2.660310364E1,2.351247311E0
3.012746475E0,2.923969460E1,2.624417877E1,2.073679924E0
3.015172413E0,2.875604439E1,2.573181725E1,1.831705689E0
3.017598350E0,2.813839722E1,2.512134743E1,1.666600943E0
3.020024288E0,2.744657326E1,2.441008186E1,1.542174220E0
3.022450225E0,2.664467812E1,2.356511497E1,1.415354609E0
3.024876163E0,2.580419922E1,2.258345985E1,1.333998680E0
3.027302100E0,2.493051910E1,2.145584297E1,1.242772222E0
3.029728038E0,2.403500557E1,2.024686813E1,1.178166032E0
3.032153975E0,2.306770706E1,1.895414543E1,1.099202871E0
3.034579913E0,2.207408714E1,1.760848236E1,1.001097202E0
3.037005850E0,2.111905289E1,1.624158287E1,8.910273314E-1
3.039431788E0,2.022114563E1,1.483370590E1,8.001000881E-1
3.041857725E0,1.938814545E1,1.344766331E1,6.825526357E-1
3.044283611E0,1.860987854E1,1.206132126E1,5.461617708E-1
3.046709600E0,1.783430481E1,1.062502956E1,4.313062727E-1
3.049135486E0,1.696511269E1,9.126225471E0,2.614158690E-1
3.051561423E0,1.597657776E1,7.538887024E0,-1.884347759E-2
3.053987361E0,1.492553043E1,5.903691769E0,-4.259224236E-1
3.056413298E0,1.377398491E1,4.230211258E0,-9.598209858E-1
3.058839236E0,1.256471157E1,2.580958366E0,-1.565504193E0
3.061265173E0,1.130548859E1,9.002995491E-1,-2.271686077E0
3.063691111E0,1.004626560E1,-7.492526174E-1,-3.047259569E0
3.066117048E0,8.775078773E0,-2.441875458E0,-3.753441334E0
3.068542986E0,7.448557854E0,-4.156033993E0,-4.402494431E0
3.070968923E0,6.014658928E0,-5.896812439E0,-4.854738235E0
3.073394861E0,4.546961308E0,-7.656434059E0,-5.084748268E0
3.075820798E0,3.038585663E0,-9.423234940E0,-5.106283665E0
3.078246736E0,1.513759375E0,-1.118524933E1,-4.917250633E0
3.080672673E0,-4.187439568E-3,-1.292812157E1,-4.567599297E0
3.083098611E0,-1.572383523E0,-1.461835194E1,-3.928416491E0
3.085524548E0,-3.214757204E0,-1.633729553E1,-3.083152056E0
3.087950486E0,-5.036592484E0,-1.800120544E1,-2.065604210E0
3.090376423E0,-7.107580662E0,-1.964118576E1,-9.188438654E-1
3.092802309E0,-9.362815857E0,-2.121656036E1,2.757728100E-1
3.095228246E0,-1.178315639E1,-2.272493553E1,1.568495274E0
3.097654184E0,-1.430160141E1,-2.413490677E1,2.803789854E0
3.100080121E0,-1.691366768E1,-2.539173698E1,3.955335855E0
3.102506059E0,-1.921675873E1,-2.612693214E1,5.298606873E0
3.104931996E0,-2.142892265E1,-2.731676292E1,6.227321148E0
3.107357934E0,-2.406252289E1,-2.854487801E1,7.671090126E0
3.109783871E0,-2.689233589E1,-2.953132057E1,9.452247620E0
3.112209809E0,-2.960489845E1,-3.039064217E1,1.134108162E1
3.114635746E0,-3.192713356E1,-3.102025414E1,1.348864079E1
3.117061684E0,-3.379921722E1,-3.147040367E1,1.586112404E1
3.119487621E0,-3.525973892E1,-3.171477127E1,1.836072540E1
3.121913559E0,-3.637778473E1,-3.175066185E1,2.089113617E1
3.124339496E0,-3.704568100E1,-3.168127060E1,2.330938339E1
3.126765434E0,-3.716532135E1,-3.148954582E1,2.535375023E1
3.129191371E0,-3.683511353E1,-3.124308586E1,2.707987213E1
3.131617256E0,-3.611427307E1,-3.100589752E1,2.829632378E1
3.134043246E0,-3.510151291E1,-3.082643509E1,2.903361320E1
3.136469184E0,-3.378486252E1,-3.051028252E1,2.923700333E1
3.138895069E0,-3.202523804E1,-3.021835899E1,2.895704269E1
3.141321006E0,-2.998535728E1,-2.989263535E1,2.836810875E1
3.143746944E0,-2.753391075E1,-2.954806900E1,2.741277504E1
3.146172881E0,-2.489313126E1,-2.911227608E1,2.617508698E1
3.148598819E0,-2.219492531E1,-2.853291512E1,2.489193535E1
3.151024756E0,-1.935075760E1,-2.778605461E1,2.362762833E1
3.153450694E0,-1.636301804E1,-2.685704041E1,2.242344093E1
3.155876631E0,-1.341595840E1,-2.560978317E1,2.156411743E1
3.158302569E0,-1.017188931E1,-2.432394028E1,2.078824425E1
3.160728506E0,-6.640681267E0,-2.296182442E1,1.978266144E1
3.163154444E0,-3.037389278E0,-2.150369835E1,1.891616058E1
3.165580381E0,6.565307379E-1,-1.972493362E1,1.776222229E1
3.168006319E0,4.465605259E0,-1.755823326E1,1.579412460E1
3.170432256E0,8.162217140E0,-1.503978729E1,1.283510113E1
3.172858194E0,1.153789139E1,-1.208076286E1,9.742077827E0
3.175284131E0,1.445863056E1,-8.774480820E0,7.031907558E0
3.177710069E0,1.677847290E1,-5.408377171E0,5.813362598E0
3.180135954E0,1.860987854E1,-2.324627161E0,6.411867142E0
3.182561892E0,2.026182365E1,4.621138871E-1,7.972586155E0
3.184987829E0,2.192812538E1,2.997309446E0,9.780363083E0
3.187413767E0,2.372124672E1,5.386841774E0,1.119990540E1
3.189839704E0,2.537080002E1,7.651648521E0,1.187976646E1
3.192265642E0,2.678824806E1,9.748658180E0,1.176012516E1
3.194691579E0,2.793261528E1,1.172871971E1,1.109701443E1
3.197117517E0,2.884697342E1,1.361755371E1,1.017278671E1
3.199543454E0,2.954388237E1,1.546331692E1,9.332606316E0
3.201969392E0,3.019502831E1,1.727588081E1,8.700602531E0
3.204395329E0,3.074567795E1,1.904986000E1,8.260024071E0
3.206821267E0,3.125325394E1,2.077119637E1,8.020442009E0
3.209247204E0,3.161696434E1,2.243031883E1,7.943871975E0
3.211673142E0,3.189722252E1,2.390998077E1,7.958229065E0
3.214099079E0,3.193072319E1,2.528884506E1,8.039883614E0
3.216525017E0,3.176561737E1,2.644996262E1,8.104490280E0
3.218950902E0,3.147339439E1,2.736940384E1,8.212167740E0
3.221376840E0,3.105674362E1,2.807798004E1,8.350951195E0
3.223802777E0,3.059253693E1,2.859752083E1,8.463413239E0
3.226228715E0,3.009931564E1,2.892773056E1,8.523234367E0
3.228654652E0,2.958695221E1,2.901177788E1,8.487341881E0
3.231080590E0,2.910330391E1,2.891337395E1,8.343772888E0
3.233506527E0,2.867947578E1,2.862144852E1,8.061419487E0
3.235932465E0,2.825564575E1,2.815933418E1,7.546663284E0
3.238358402E0,2.785365105E1,2.750579453E1,6.888039112E0
3.240784340E0,2.751357269E1,2.669642258E1,6.040680885E0
3.243210277E0,2.720250511E1,2.573181725E1,5.006382942E0
3.245636215E0,2.689353180E1,2.465205574E1,3.830909014E0
3.248062152E0,2.651995277E1,2.351486588E1,2.672184706E0
3.250488090E0,2.610838699E1,2.234417725E1,1.520638824E0
3.252914027E0,2.571087837E1,2.118545341E1,5.126622319E-1
3.255339965E0,2.528465843E1,2.000758743E1,-3.849453330E-1
3.257765850E0,2.487757874E1,1.879831314E1,-1.234995604E0
3.260191840E0,2.439901352E1,1.756541252E1,-2.120938063E0
3.262617725E0,2.389622307E1,1.623679733E1,-2.956332445E0
3.265043663E0,2.330010986E1,1.478584957E1,-3.780061483E0
3.267469600E0,2.265823555E1,1.319851017E1,-4.560420990E0
3.269895538E0,2.206930161E1,1.153220844E1,-5.309673309E0
3.272321475E0,2.140619087E1,9.751050949E0,-6.071189404E0
3.274747413E0,2.069043922E1,7.840681553E0,-6.825227261E0
3.277173350E0,1.974706841E1,5.807978630E0,-7.478767395E0
3.279599288E0,1.870798492E1,3.775574923E0,-8.079665184E0
3.282025225E0,1.752533150E1,1.666301847E0,-8.594420433E0
3.284451163E0,1.629960823E1,-4.501497746E-1,-8.946464539E0
3.286877100E0,1.508584976E1,-2.554637194E0,-9.178568840E0
3.289303038E0,1.381226921E1,-4.582255363E0,-9.264710426E0
3.291728975E0,1.259133148E1,-6.614958286E0,-9.197710991E0
3.294154913E0,1.134377384E1,-8.637790680E0,-8.975178719E0
3.296580850E0,1.003430176E1,-1.063460159E1,-8.632705688E0
3.299006788E0,8.703293800E0,-1.262662601E1,-8.182556152E0
3.301432673E0,7.254739285E0,-1.460399437E1,-7.636693478E0
3.303858611E0,5.770291805E0,-1.652662849E1,-6.954440117E0
3.306284548E0,4.214358807E0,-1.838196182E1,-6.188437462E0
3.308710486E0,2.552842617E0,-2.013679886E1,-5.343173027E0
3.311136423E0,7.019943595E-1,-2.182702827E1,-4.256233215E0
3.313562361E0,-1.330409408E0,-2.338086891E1,-2.798406124E0
3.315988298E0,-3.755834341E0,-2.478605270E1,-1.012463093E0
3.318414236E0,-6.484848499E0,-2.601177597E1,1.211665511E0
3.320840173E0,-9.570991516E0,-2.712025261E1,3.823730469E0
3.323266111E0,-1.281266785E1,-2.825265503E1,6.624828815E0
3.325692048E0,-1.626491356E1,-2.928934479E1,9.713364601E0
3.328117986E0,-2.000938034E1,-3.023032379E1,1.319432354E1
3.330543923E0,-2.397638130E1,-3.103461075E1,1.707996750E1
3.332969861E0,-2.815395164E1,-3.168127060E1,2.145614243E1
3.335395798E0,-3.223820114E1,-3.210480118E1,2.621337128E1
3.337821736E0,-3.604727554E1,-3.222952652E1,3.106870842E1
3.340247673E0,-3.928895187E1,-3.222713470E1,3.586870956E1
3.342673611E0,-4.184089661E1,-3.212633514E1,4.006571960E1
3.345099496E0,-4.350959015E1,-3.198276711E1,4.339114761E1
3.347525486E0,-4.424717712E1,-3.184159088E1,4.562963104E1
3.349951371E0,-4.405306244E1,-3.172434235E1,4.675007248E1
3.352377309E0,-4.324159622E1,-3.153740311E1,4.680031967E1
3.354803246E0,-4.180739594E1,-3.133640480E1,4.597659302E1
3.357229184E0,-4.004538345E1,-3.100350380E1,4.427439880E1
3.359655121E0,-3.780689621E1,-3.060868835E1,4.183969879E1
3.362081059E0,-3.502254868E1,-3.015853882E1,3.892135239E1
3.364506996E0,-3.191277695E1,-2.965574646E1,3.574667740E1
3.366932934E0,-2.864717102E1,-2.894477844E1,3.276611710E1
3.369358871E0,-2.516621399E1,-2.827658272E1,2.983550644E1
3.371784809E0,-2.127817535E1,-2.764218712E1,2.668984222E1
3.374210746E0,-1.733749580E1,-2.701496696E1,2.353191566E1
3.376636684E0,-1.336810207E1,-2.639253426E1,2.041735649E1
3.379062621E0,-9.396315575E0,-2.562892532E1,1.736471367E1
3.381488559E0,-5.388636589E0,-2.469751930E1,1.438176155E1
3.383914496E0,-1.182054400E0,-2.334497643E1,1.071625614E1
3.386340434E0,3.021835804E0,-2.166431618E1,7.429116249E0
3.388766319E0,7.214061260E0,-1.963879204E1,4.206881523E0
3.391192256E0,1.135334492E1,-1.732852173E1,1.444068432E0
3.393618194E0,1.530598927E1,-1.490100384E1,-4.235295951E-1
3.396044131E0,1.914616966E1,-1.235354519E1,-1.321137190E0
3.398470069E0,2.284038925E1,-9.643374443E0,-1.467099428E0
3.400896006E0,2.646491814E1,-6.703492641E0,-1.112961650E0
3.403321944E0,2.994826889E1,-3.461816072E0,-5.383850932E-1
3.405747881E0,3.317798233E1,1.603191197E-1,1.031904742E-1
3.408173819E0,3.595993805E1,4.132105827E0,6.873382926E-1
3.410599756E0,3.809792328E1,8.168498039E0,1.269093275E0
3.413025694E0,3.938346863E1,1.215972614E1,2.047358990E0
3.415451631E0,3.963262177E1,1.565025616E1,2.806182861E0
3.417877569E0,3.906522369E1,1.857099533E1,3.409473181E0
3.420303506E0,3.787060547E1,2.088365936E1,3.814159393E0
3.422729444E0,3.632633972E1,2.259063911E1,4.010370731E0
3.425155381E0,3.456910706E1,2.383311081E1,4.099204063E0
3.427581319E0,3.271108246E1,2.464727020E1,4.190131664E0
3.430007204E0,3.070978546E1,2.515245438E1,4.336093903E0
3.432433142E0,2.862922478E1,2.537977219E1,4.489234447E0
3.434859079E0,2.647688103E1,2.556162643E1,4.661816597E0
3.437285017E0,2.442054939E1,2.562892532E1,4.893920422E0
3.439710954E0,2.256491661E1,2.570310211E1,5.135595798E0
3.442136892E0,2.093929100E1,2.577010155E1,5.315356255E0
3.444562829E0,1.959631920E1,2.587538528E1,5.396712303E0
3.446988767E0,1.851895142E1,2.600699043E1,5.284249783E0
3.449414704E0,1.763809395E1,2.609074020E1,5.003990173E0
3.451840642E0,1.705603981E1,2.616043091E1,4.563411713E0
3.454266579E0,1.670668793E1,2.613141823E1,3.986442566E0
3.456692517E0,1.664925957E1,2.591367149E1,3.227618694E0
3.459118454E0,1.681915092E1,2.567199516E1,2.406282187E0
3.461544392E0,1.707308960E1,2.528405952E1,1.518245935E0
3.463970329E0,1.733390617E1,2.489612389E1,6.873382926E-1
3.466396267E0,1.755643845E1,2.448694992E1,-7.866404206E-2
3.468822152E0,1.772662926E1,2.399851608E1,-8.614161611E-1
3.471248142E0,1.781516266E1,2.341676140E1,-1.709073544E0
3.473674027E0,1.769791412E1,2.276770782E1,-2.573181629E0
3.476099965E0,1.742244148E1,2.194667053E1,-3.475873947E0
3.478525902E0,1.700579071E1,2.106311989E1,-4.443172455E0
3.480951840E0,1.650539207E1,2.001237297E1,-5.391029358E0
3.483377777E0,1.585903072E1,1.882702827E1,-6.332006931E0
3.485803715E0,1.520309734E1,1.744577026E1,-7.256234646E0
3.488229652E0,1.447777367E1,1.598285866E1,-8.134699821E0
3.490655590E0,1.364447308E1,1.438146210E1,-8.956035614E0
3.493081527E0,1.278993607E1,1.272233868E1,-9.645467758E0
3.495507465E0,1.184417343E1,1.096720314E1,-1.021286583E1
3.497933402E0,1.087448120E1,9.099904060E0,-1.069412231E1
3.500359340E0,9.873982430E0,7.129714012E0,-1.105573750E1
3.502785277E0,8.832506180E0,5.080261707E0,-1.124477100E1
3.505211215E0,7.850851059E0,2.961417198E0,-1.125194931E1
3.507637152E0,6.857231617E0,7.157530785E-1,-1.106052399E1
3.510063090E0,5.906981945E0,-1.599302888E0,-1.052901745E1
3.512488975E0,4.925326347E0,-3.998107433E0,-9.607182503E0
3.514914913E0,3.886243105E0,-6.341877460E0,-8.261817932E0
3.517340850E0,2.710768938E0,-8.673981667E0,-6.537789822E0
3.519766788E0,1.391725421E0,-1.095075321E1,-4.479064941E0
3.522192725E0,-3.529413417E-2,-1.323470211E1,-2.097009897E0
3.524618663E0,-1.665703654E0,-1.548515129E1,5.916253924E-1
3.527044600E0,-3.674179077E0,-1.782652855E1,3.495614767E0
3.529470538E0,-5.948856354E0,-2.020619011E1,6.533901215E0
3.531896475E0,-8.570193291E0,-2.273690033E1,9.464211464E0
3.534322413E0,-1.139761257E1,-2.527688026E1,1.224138165E1
3.536748350E0,-1.456989670E1,-2.775494766E1,1.502573013E1
3.539174288E0,-1.791207123E1,-3.009153938E1,1.809482384E1
3.541600225E0,-2.141456604E1,-3.204258728E1,2.167897224E1
3.544026163E0,-2.480698967E1,-3.350550079E1,2.574647331E1
3.546452100E0,-2.800798988E1,-3.464508057E1,3.009183884E1
3.548878038E0,-3.075644493E1,-3.533211899E1,3.453052521E1
3.551303923E0,-3.289443207E1,-3.552593994E1,3.886123276E1
3.553729861E0,-3.441207886E1,-3.539433289E1,4.281148529E1
3.556155798E0,-3.519991684E1,-3.501118088E1,4.616562271E1
3.558581736E0,-3.531955719E1,-3.454936981E1,4.876811981E1
3.561007673E0,-3.479523087E1,-3.406332397E1,5.044159698E1
3.563433611E0,-3.373221970E1,-3.361796188E1,5.108317566E1
3.565859548E0,-3.227169800E1,-3.327070236E1,5.075535583E1
3.568285486E0,-3.048336411E1,-3.303142166E1,4.949583435E1
3.570711423E0,-2.825923538E1,-3.290221024E1,4.702046204E1
3.573137361E0,-2.580778885E1,-3.270330429E1,4.362564468E1
3.575563298E0,-2.317658043E1,-3.238745117E1,3.984049606E1
3.577989236E0,-2.035394669E1,-3.189901733E1,3.605535126E1
3.580415173E0,-1.738535118E1,-3.112344360E1,3.256003571E1
3.582841111E0,-1.440239906E1,-3.009393311E1,2.971586609E1
3.585267048E0,-1.099801064E1,-2.904288483E1,2.676880646E1
3.587692986E0,-7.421040535E0,-2.787458992E1,2.388635254E1
3.590118923E0,-3.906582117E0,-2.648585510E1,2.125514412E1
3.592544809E0,-6.050850153E-1,-2.485066032E1,1.877976990E1
3.594970746E0,2.488236427E0,-2.289004135E1,1.635673714E1
3.597396684E0,5.425725460E0,-2.062523460E1,1.400578880E1
3.599822621E0,8.255537033E0,-1.797966957E1,1.144905853E1
3.602248559E0,1.114995575E1,-1.490100384E1,8.683852196E0
3.604674496E0,1.433898926E1,-1.122592735E1,4.781457901E0
3.607100434E0,1.728844261E1,-7.234998226E0,1.613958836E0
3.609526371E0,1.967767525E1,-3.265604734E0,-7.561319470E-1
3.611952309E0,2.130090714E1,4.118646085E-1,-1.603789330E0
3.614378246E0,2.237109756E1,3.634099483E0,-9.550353289E-1
3.616804184E0,2.321366882E1,6.461518288E0,3.978067636E-1
3.619230121E0,2.394886398E1,9.001798630E0,1.896611094E0
3.621656059E0,2.457608223E1,1.148913765E1,2.966501951E0
3.624081996E0,2.505494690E1,1.391934872E1,3.507578850E0
3.626507934E0,2.533729935E1,1.621286964E1,3.426223040E0
3.628933871E0,2.546172714E1,1.826920128E1,2.827718258E0
3.631359756E0,2.545215607E1,2.013440704E1,1.858325839E0
3.633785694E0,2.540190697E1,2.174088669E1,8.312067389E-1
3.636211631E0,2.536601448E1,2.308385849E1,-6.909275055E-2
3.638637569E0,2.534687042E1,2.422822571E1,-8.446664214E-1
3.641063506E0,2.537797737E1,2.522184563E1,-1.534397483E0
3.643489444E0,2.546890450E1,2.614128876E1,-2.238186598E0
3.645915381E0,2.547369003E1,2.701257515E1,-2.927618504E0
3.648341319E0,2.539472771E1,2.774507713E1,-3.696013689E0
3.650767256E0,2.519851685E1,2.840130997E1,-4.505385876E0
3.653193194E0,2.492065048E1,2.900699234E1,-5.340780258E0
3.655619131E0,2.455215454E1,2.939463043E1,-6.260222435E0
3.658045069E0,2.412114716E1,2.970360374E1,-7.217949390E0
3.660471006E0,2.358485603E1,2.984477997E1,-8.077271461E0
3.662896944E0,2.301267242E1,2.986870766E1,-8.908179283E0
3.665322881E0,2.245245361E1,2.966771126E1,-9.556933403E0
3.667748819E0,2.196401787E1,2.931327438E1,-1.008843899E1
3.670174756E0,2.150908279E1,2.876501846E1,-1.057687473E1
3.672600642E0,2.114058876E1,2.804208755E1,-1.097169018E1
3.675026579E0,2.077897263E1,2.711546707E1,-1.121605682E1
3.677452517E0,2.039821434E1,2.609074020E1,-1.129502010E1
3.679878454E0,1.996990013E1,2.493919373E1,-1.115145111E1
3.682304392E0,1.956042862E1,2.374218369E1,-1.090947628E1
3.684730329E0,1.913899231E1,2.246860504E1,-1.064865875E1
3.687156267E0,1.873191261E1,2.113041878E1,-1.037079239E1
3.689582204E0,1.828684807E1,1.973689842E1,-1.014586735E1
3.692008142E0,1.775534248E1,1.830060577E1,-9.915857315E0
3.694434079E0,1.718794441E1,1.677548218E1,-9.674181938E0
3.696860017E0,1.665165329E1,1.521924973E1,-9.492327690E0
3.699285954E0,1.605554008E1,1.356491184E1,-9.396614075E0
3.701711892E0,1.554317760E1,1.179332542E1,-9.365208626E0
3.704137829E0,1.492074490E1,9.949954987E0,-9.369994164E0
3.706563767E0,1.425733471E1,7.945965767E0,-9.353244781E0
3.708989704E0,1.348893929E1,5.793622017E0,-9.343673706E0
3.711415590E0,1.256710434E1,3.617349625E0,-9.298210144E0
3.713841579E0,1.145892811E1,1.345364571E0,-9.197710991E0
3.716267465E0,1.022333431E1,-9.266205430E-1,-9.061320305E0
3.718693402E0,8.894720078E0,-3.186641455E0,-8.855537415E0
3.721119340E0,7.546962738E0,-5.434698582E0,-8.505886078E0
3.723545277E0,6.119943142E0,-7.596613884E0,-7.955237865E0
3.725971215E0,4.695316315E0,-9.734301567E0,-7.239484787E0
3.728397152E0,3.168097258E0,-1.171436214E1,-6.310471535E0
3.730823090E0,1.597508192E0,-1.361755371E1,-5.204389095E0
3.733249027E0,3.649054468E-2,-1.548275852E1,-3.928416491E0
3.735674965E0,-1.641775489E0,-1.732612991E1,-2.491825581E0
3.738100902E0,-3.410968781E0,-1.915753555E1,-9.427721500E-1
3.740526840E0,-5.297410011E0,-2.101077652E1,5.748756528E-1
3.742952777E0,-7.382755280E0,-2.285893440E1,2.186142683E0
3.745378715E0,-9.664311409E0,-2.477408981E1,3.778266907E0
3.747804652E0,-1.223330593E1,-2.667040062E1,5.320142269E0
3.750230538E0,-1.511575985E1,-2.848505783E1,6.864110947E0
3.752656475E0,-1.829522324E1,-3.022793007E1,8.535198212E0
3.755082413E0,-2.173789597E1,-3.177219772E1,1.048415279E1
3.757508350E0,-2.531935310E1,-3.303860092E1,1.266760349E1
3.759934288E0,-2.892952538E1,-3.405136108E1,1.497548008E1
3.762360225E0,-3.231237793E1,-3.474318695E1,1.732164383E1
3.764786163E0,-3.522145081E1,-3.508565903E1,1.968216324E1
3.767212100E0,-3.758436584E1,-3.512633896E1,2.192304039E1
3.769638038E0,-3.917648697E1,-3.492982864E1,2.400838661E1
3.772063975E0,-3.998556137E1,-3.452304840E1,2.588286400E1
3.774489913E0,-3.995206070E1,-3.402025604E1,2.756830788E1
3.776915850E0,-3.917409515E1,-3.345285797E1,2.896900558E1
3.779341788E0,-3.783082581E1,-3.288306427E1,2.999373245E1
3.781767725E0,-3.601138306E1,-3.237070465E1,3.069034386E1
3.784193663E0,-3.387578964E1,-3.194687462E1,3.109263611E1
3.786619600E0,-3.134059334E1,-3.153740311E1,3.103251648E1
3.789045538E0,-2.847488785E1,-3.116651535E1,3.045076180E1
3.791471423E0,-2.549163628E1,-3.071636581E1,2.950290489E1
3.793897361E0,-2.251107788E1,-3.013700294E1,2.819791985E1
3.796323298E0,-1.945873260E1,-2.938984489E1,2.662523651E1
3.798749236E0,-1.640848160E1,-2.841088104E1,2.500918388E1
3.801175173E0,-1.344227982E1,-2.726172829E1,2.348166656E1
3.803601111E0,-1.061725330E1,-2.592802811E1,2.218655014E1
3.806027048E0,-7.610073090E0,-2.462094879E1,2.071167374E1
3.808452986E0,-4.497908592E0,-2.323939323E1,1.911476517E1
3.810878923E0,-1.457528114E0,-2.183420753E1,1.767847252E1
3.813304861E0,1.497009635E0,-2.031147575E1,1.622991753E1
3.815730798E0,4.384249210E0,-1.869063759E1,1.481516171E1
3.818156736E0,7.139883518E0,-1.691905022E1,1.347428322E1
3.820582673E0,9.792626381E0,-1.499193096E1,1.223659611E1
3.823008611E0,1.228475189E1,-1.284915829E1,1.106590748E1
3.825434548E0,1.465484238E1,-1.048385334E1,9.722935677E0
3.827860486E0,1.692922020E1,-7.855038643E0,8.274380684E0
3.830286423E0,1.896910095E1,-5.058726311E0,7.055835724E0
3.832712361E0,2.079332924E1,-2.035095692E0,6.224927902E0
3.835138246E0,2.233999062E1,1.134796143E0,5.942574978E0
3.837564184E0,2.350110817E1,4.242175579E0,6.244070530E0
3.839990121E0,2.431257439E1,7.201498985E0,7.108478069E0
3.842416059E0,2.484647179E1,9.892526627E0,8.362915039E0
3.844841996E0,2.515783882E1,1.227936745E1,9.591031075E0
3.847267934E0,2.536362076E1,1.427587891E1,1.041954613E1
3.849693871E0,2.559602356E1,1.594696617E1,1.066600704E1
3.852119809E0,2.584727097E1,1.740748596E1,1.034776115E1
3.854545746E0,2.610838699E1,1.869302940E1,9.655637741E0
3.856971684E0,2.639791870E1,1.984696770E1,8.652746201E0
3.859397621E0,2.653670311E1,2.092672920E1,7.532306671E0
3.861823559E0,2.666382027E1,2.191077805E1,6.404688835E0
3.864249496E0,2.670449829E1,2.289482689E1,5.403890610E0
3.866675434E0,2.677867699E1,2.392433739E1,4.498805523E0
3.869101371E0,2.689113998E1,2.500379944E1,3.608376503E0
3.871527256E0,2.705145836E1,2.607159805E1,2.674577475E0
3.873953194E0,2.716631317E1,2.701736069E1,1.786242127E0
3.876379131E0,2.730300331E1,2.795355225E1,9.317052960E-1
3.878805069E0,2.741786003E1,2.868126869E1,9.122636169E-2
3.881231006E0,2.750878716E1,2.923909569E1,-7.633104324E-1
3.883656944E0,2.759253502E1,2.967967415E1,-1.627717614E0
3.886082881E0,2.764039230E1,2.989742088E1,-2.448754787E0
3.888508819E0,2.759732056E1,2.993092155E1,-3.205485106E0
3.890934756E0,2.740828705E1,2.970121002E1,-3.777668715E0
3.893360694E0,2.710888672E1,2.925823975E1,-4.205984116E0
3.895786631E0,2.665903473E1,2.855684280E1,-4.565206528E0
3.898212569E0,2.612035179E1,2.766132927E1,-4.811667442E0
3.900638506E0,2.541865540E1,2.656960297E1,-5.015356064E0
3.903064444E0,2.470051003E1,2.535584450E1,-5.106283665E0
3.905490381E0,2.393450737E1,2.405594254E1,-5.211567879E0
3.907916319E0,2.312752724E1,2.268156624E1,-5.276174068E0
3.910342204E0,2.240220451E1,2.123091698E1,-5.364708424E0
3.912768142E0,2.175105667E1,1.975604057E1,-5.499005318E0
3.915194079E0,2.108794594E1,1.821655846E1,-5.800501347E0
3.917620017E0,2.050858307E1,1.665105438E1,-6.207580090E0
3.920045954E0,1.984038734E1,1.499432373E1,-6.686443806E0
3.922471892E0,1.911027718E1,1.322722435E1,-7.179664135E0
3.924897829E0,1.823899078E1,1.135992527E1,-7.723134041E0
3.927323767E0,1.720469475E1,9.380164146E0,-8.225626945E0
3.929749704E0,1.614407539E1,7.294818878E0,-8.702097893E0
3.932175642E0,1.500210094E1,5.144867897E0,-9.133105278E0
3.934601579E0,1.382901955E1,2.937488794E0,-9.449256897E0
3.937027517E0,1.265833092E1,7.085745931E-1,-9.698110580E0
3.939453454E0,1.150917816E1,-1.568196177E0,-9.839286804E0
3.941879392E0,1.045573807E1,-3.955036640E0,-9.779465675E0
3.944305329E0,9.399904251E0,-6.303592205E0,-9.439684868E0
3.946731215E0,8.346464157E0,-8.738588333E0,-8.769096375E0
3.949157152E0,7.242774963E0,-1.118524933E1,-7.754240990E0
3.951583090E0,5.990730762E0,-1.357926846E1,-6.375077724E0
3.954009027E0,4.640281200E0,-1.596880054E1,-4.632205486E0
3.956434965E0,3.000300407E0,-1.829582024E1,-2.585145712E0
3.958860902E0,1.128215909E0,-2.056541252E1,-2.389831543E-1
3.961286840E0,-9.954141974E-1,-2.271057892E1,2.389532566E0
3.963712777E0,-3.272184849E0,-2.519313240E1,4.822135925E0
3.966138715E0,-5.891129494E0,-2.782673264E1,7.254439831E0
3.968564652E0,-9.061020851E0,-3.046721268E1,9.665208817E0
3.970990590E0,-1.276481152E1,-3.308166885E1,1.218634701E1
3.973416527E0,-1.686102486E1,-3.543740463E1,1.480080414E1
3.975842465E0,-2.112264252E1,-3.736721420E1,1.777418518E1
3.978268402E0,-2.542463875E1,-3.888486481E1,2.095125580E1
3.980694340E0,-2.961686325E1,-4.003640747E1,2.428595352E1
3.983120277E0,-3.342085266E1,-4.067828369E1,2.751327324E1
3.985546215E0,-3.672953033E1,-4.083621216E1,3.051088142E1
3.987972152E0,-3.927698898E1,-4.057270050E1,3.316571808E1
3.990398038E0,-4.105814362E1,-4.007978058E1,3.531567001E1
3.992823975E0,-4.193451691E1,-3.952913284E1,3.687429428E1
3.995249913E0,-4.197519302E1,-3.898566055E1,3.790620041E1
3.997675850E0,-4.124239349E1,-3.841347885E1,3.846641922E1
4.000101788E0,-3.993291855E1,-3.790829086E1,3.866023636E1
4.002527725E0,-3.823551178E1,-3.741028595E1,3.840659714E1
4.004953663E0,-3.632753372E1,-3.692424393E1,3.761397552E1
4.007379600E0,-3.406033325E1,-3.647170258E1,3.621357727E1
4.009805538E0,-3.158944702E1,-3.608855057E1,3.439383316E1
4.012231475E0,-2.891038322E1,-3.563630676E1,3.230160904E1
4.014657413E0,-2.601596451E1,-3.510240936E1,3.003441048E1
4.017083350E0,-2.292294121E1,-3.442703629E1,2.773131943E1
4.019509288E0,-1.980808449E1,-3.342653656E1,2.574168777E1
4.021935225E0,-1.644437408E1,-3.232763290E1,2.367548370E1
4.024361163E0,-1.279113293E1,-3.114258766E1,2.133171463E1
4.026787100E0,-9.130413055E0,-2.973470879E1,1.902622986E1
4.029212986E0,-5.570491314E0,-2.804926491E1,1.668485260E1
4.031638923E0,-2.158924341E0,-2.612214661E1,1.431715488E1
4.034064861E0,1.418046474E0,-2.377568436E1,1.138654518E1
4.036490798E0,5.095216751E0,-2.096501541E1,7.637590885E0
4.038916736E0,8.640781403E0,-1.780020714E1,3.909872293E0
4.041342673E0,1.174367428E1,-1.451785278E1,9.221340418E-1
4.043768611E0,1.426959801E1,-1.125224876E1,-9.260223508E-1
4.046194548E0,1.628764534E1,-8.209475517E0,-1.433599830E0
4.048620486E0,1.796112442E1,-5.461019516E0,-7.920243144E-1
4.051046423E0,1.944318008E1,-2.939881802E0,3.451646566E-1
4.053472361E0,2.086750793E1,-3.233301640E-1,1.513460279E0
4.055898298E0,2.217249298E1,2.353341103E0,2.413759947E0
4.058324236E0,2.318974113E1,5.089832783E0,2.944966555E0
4.060750173E0,2.388425827E1,7.857431412E0,3.084049225E0
4.063176111E0,2.422643280E1,1.048624611E1,3.007478952E0
4.065602048E0,2.426711082E1,1.290180016E1,2.822932482E0
4.068027934E0,2.421925354E1,1.507567978E1,2.609971285E0
4.070453871E0,2.428146744E1,1.706262016E1,2.413759947E0
4.072879809E0,2.447319221E1,1.888953972E1,2.212463617E0
4.075305746E0,2.478425789E1,2.053669930E1,2.013859272E0
4.077731684E0,2.512912369E1,2.204477501E1,1.747956991E0
4.080157621E0,2.554098892E1,2.343350983E1,1.479960799E0
4.082583559E0,2.602673149E1,2.467119789E1,1.161416292E0
4.085009496E0,2.657738113E1,2.581795883E1,8.886345029E-1
4.087435434E0,2.718575478E1,2.694796944E1,6.227321029E-1
4.089861371E0,2.775793839E1,2.802294350E1,3.643072546E-1
4.092287309E0,2.820779037E1,2.895913696E1,1.175474152E-1
4.094713246E0,2.847130013E1,2.979213715E1,-3.559323773E-2
4.097139184E0,2.856461906E1,3.047199821E1,-2.557329237E-1
4.099565121E0,2.849044228E1,3.097239685E1,-4.953143001E-1
4.101991059E0,2.831815910E1,3.125983429E1,-7.657032609E-1
4.104416996E0,2.807139969E1,3.131726265E1,-1.074676514E0
4.106842881E0,2.774118996E1,3.116621590E1,-1.373779297E0
4.109268819E0,2.729582596E1,3.076661491E1,-1.673181176E0
4.111694756E0,2.685763931E1,3.017528725E1,-1.893320918E0
4.114120694E0,2.637159729E1,2.934438133E1,-2.173580170E0
4.116546631E0,2.582573509E1,2.839413071E1,-2.451147795E0
4.118972569E0,2.517698097E1,2.722553635E1,-2.743371248E0
4.121398506E0,2.451147652E1,2.594717026E1,-2.965903759E0
4.123824444E0,2.381725883E1,2.462573433E1,-3.162115097E0
4.126250381E0,2.309642220E1,2.318914413E1,-3.363411427E0
4.128676319E0,2.237109756E1,2.170978165E1,-3.578765392E0
4.131102256E0,2.157398796E1,2.013919258E1,-3.863810301E0
4.133528194E0,2.078136635E1,1.849681854E1,-4.220340729E0
4.135954131E0,1.990290070E1,1.676351738E1,-4.651348114E0
4.138380069E0,1.902892113E1,1.487677670E1,-5.201996326E0
4.140806006E0,1.804965973E1,1.287069416E1,-5.836393356E0
4.143231892E0,1.701296806E1,1.076381397E1,-6.533003807E0
4.145657829E0,1.583031654E1,8.551649094E0,-7.177271366E0
4.148083767E0,1.459741497E1,6.289235115E0,-7.703991413E0
4.150509704E0,1.328554916E1,3.993321896E0,-8.122735977E0
4.152935642E0,1.197338581E1,1.620838284E0,-8.300103188E0
4.155361579E0,1.065434170E1,-7.923234105E-1,-8.273782730E0
4.157787517E0,9.349655151E0,-3.241676569E0,-7.950452328E0
4.160213454E0,8.023134232E0,-5.721837044E0,-7.280162811E0
4.162639392E0,6.553342819E0,-8.262117386E0,-6.269793510E0
4.165065329E0,4.944468975E0,-1.078534889E1,-4.890929699E0
4.167491267E0,3.199203968E0,-1.333280754E1,-3.274876833E0
4.169917204E0,1.276570916E0,-1.582493210E1,-1.469492197E0
4.172343142E0,-8.754739761E-1,-1.823121452E1,5.126622319E-1
4.174769079E0,-3.207578659E0,-2.058694839E1,2.614757061E0
4.177195017E0,-5.673382282E0,-2.296660995E1,4.644767761E0
4.179620954E0,-8.335697174E0,-2.537020111E1,6.538686752E0
4.182046892E0,-1.112483025E1,-2.773819923E1,8.441878319E0
4.184472777E0,-1.419392490E1,-3.005564690E1,1.038365364E1
4.186898715E0,-1.750259972E1,-3.227738190E1,1.231077385E1
4.189324652E0,-2.098834419E1,-3.421646500E1,1.435783291E1
4.191750590E0,-2.457010078E1,-3.595933914E1,1.658913994E1
4.194176527E0,-2.819702148E1,-3.736960983E1,1.904298019E1
4.196602465E0,-3.156551743E1,-3.837010574E1,2.159283066E1
4.199028402E0,-3.453650665E1,-3.897369766E1,2.416391945E1
4.201454340E0,-3.700739670E1,-3.924169159E1,2.657738113E1
4.203880277E0,-3.883641052E1,-3.917948151E1,2.868874741E1
4.206306215E0,-3.989224243E1,-3.894229126E1,3.045076180E1
4.208732152E0,-4.021796417E1,-3.860250854E1,3.179403305E1
4.211158090E0,-3.985634995E1,-3.813800430E1,3.268685532E1
4.213584027E0,-3.891537094E1,-3.759453201E1,3.310829163E1
4.216009965E0,-3.757718658E1,-3.703192139E1,3.305086136E1
4.218435850E0,-3.596352768E1,-3.644777298E1,3.241407394E1
4.220861788E0,-3.394039536E1,-3.585405350E1,3.123859787E1
4.223287725E0,-3.162294579E1,-3.536561966E1,2.955315399E1
4.225713663E0,-2.913321304E1,-3.483172226E1,2.753720093E1
4.228139600E0,-2.661446953E1,-3.425475311E1,2.538725090E1
4.230565538E0,-2.411516571E1,-3.347439194E1,2.317029953E1
4.232991475E0,-2.174507523E1,-3.246641541E1,2.114986038E1
4.235417413E0,-1.941087723E1,-3.137469101E1,1.926820374E1
4.237843350E0,-1.669831276E1,-3.033082199E1,1.712782478E1
4.240269288E0,-1.386371517E1,-2.929173851E1,1.505444336E1
4.242695225E0,-1.092831993E1,-2.820479965E1,1.297627735E1
4.245121163E0,-7.751548767E0,-2.688097000E1,1.061815071E1
4.247547100E0,-4.323232174E0,-2.531995201E1,8.324629784E0
4.249973038E0,-7.558328509E-1,-2.355554390E1,6.129215240E0
4.252398975E0,2.892623425E0,-2.155634117E1,4.065405846E0
4.254824913E0,6.383153439E0,-1.930828476E1,2.483151674E0
4.257250798E0,9.811769485E0,-1.686880112E1,1.355534077E0
4.259676736E0,1.304118252E1,-1.427378559E1,7.307082415E-1
4.262102673E0,1.615364647E1,-1.152054405E1,5.988038778E-1
4.264528611E0,1.898106575E1,-8.702695847E0,8.407780528E-1
4.266954548E0,2.156441689E1,-5.786443233E0,1.312463164E0
4.269380486E0,2.383879471E1,-2.815454960E0,1.973181367E0
4.271806423E0,2.579941368E1,2.823530734E-1,2.729612350E0
4.274232361E0,2.745614433E1,3.521636724E0,3.646661758E0
4.276658298E0,2.885684204E1,6.792026997E0,4.632803917E0
4.279084236E0,2.983819962E1,1.000977516E1,5.552245617E0
4.281510173E0,3.047977448E1,1.302622700E1,6.502794743E0
4.283936111E0,3.076242638E1,1.569571972E1,7.369295597E0
4.286362048E0,3.082224846E1,1.798684692E1,7.833802223E0
4.288787986E0,3.066910744E1,1.993789482E1,7.958229065E0
4.291213923E0,3.044866753E1,2.152762794E1,7.821837902E0
4.293639809E0,3.024527740E1,2.286371994E1,7.513164043E0
4.296065746E0,3.012085152E1,2.395544434E1,7.278368473E0
4.298491684E0,2.996741104E1,2.487697983E1,7.130013466E0
4.300917621E0,2.978555679E1,2.567678070E1,7.019943237E0
4.303343559E0,2.958695221E1,2.641885567E1,6.993622303E0
4.305769496E0,2.944099045E1,2.711785889E1,7.027122021E0
4.308195434E0,2.931626511E1,2.779771996E1,7.185048103E0
4.310621371E0,2.916312408E1,2.848505783E1,7.333403111E0
4.313047309E0,2.908416176E1,2.910031319E1,7.433901787E0
4.315473246E0,2.899802017E1,2.963421059E1,7.470093250E0
4.317899184E0,2.899802017E1,3.007000351E1,7.424330235E0
4.320325121E0,2.905066109E1,3.036671448E1,7.311867714E0
4.322751059E0,2.916551781E1,3.051028252E1,7.074978352E0
4.325176996E0,2.931626511E1,3.051267624E1,6.710970402E0
4.327602934E0,2.942902565E1,3.027578735E1,6.256034851E0
4.330028871E0,2.951277542E1,2.982085037E1,5.676672459E0
4.332454756E0,2.956541824E1,2.915773964E1,5.051846981E0
4.334880694E0,2.946731186E1,2.825026321E1,4.300201416E0
4.337306631E0,2.923251534E1,2.715135765E1,3.498007536E0
4.339732569E0,2.885205650E1,2.594477844E1,2.693720102E0
4.342158506E0,2.833730125E1,2.461855507E1,1.877468467E0
4.344584444E0,2.777708244E1,2.326810646E1,1.137488008E0
4.347010381E0,2.713759995E1,2.185334969E1,5.006981492E-1
4.349436319E0,2.645534706E1,2.037129593E1,-7.148557901E-2
4.351862256E0,2.571566582E1,1.878395653E1,-6.197410822E-1
4.354288194E0,2.495444870E1,1.707697678E1,-1.199103236E0
4.356714131E0,2.409961319E1,1.527189159E1,-1.721037745E0
4.359140069E0,2.313231468E1,1.342612743E1,-2.276471615E0
4.361566006E0,2.213420677E1,1.141496086E1,-2.918047190E0
4.363991944E0,2.105444717E1,9.322735786E0,-3.645764351E0
4.366417881E0,1.992682838E1,7.081857681E0,-4.431208611E0
4.368843767E0,1.872234154E1,4.783252239E0,-5.134997368E0
4.371269704E0,1.751576042E1,2.432304144E0,-5.855535984E0
4.373695642E0,1.624218178E1,3.828516230E-2,-6.475576401E0
4.376121579E0,1.499970818E1,-2.382055044E0,-7.011867523E0
4.378547517E0,1.377637768E1,-4.881657124E0,-7.373483181E0
4.380973454E0,1.258415318E1,-7.400103092E0,-7.517052174E0
4.383399392E0,1.128873920E1,-9.964311600E0,-7.416553974E0
4.385825329E0,9.952945709E0,-1.256172085E1,-6.992724895E0
4.388251267E0,8.420641899E0,-1.524317741E1,-6.186044693E0
4.390677204E0,6.644270420E0,-1.793899155E1,-5.046463013E0
4.393103142E0,4.587639332E0,-2.067069817E1,-3.600300789E0
4.395529079E0,2.337189436E0,-2.333779716E1,-1.852642894E0
4.397955017E0,-1.118644550E-1,-2.598067093E1,-1.645065658E-2
4.400380954E0,-2.810070992E0,-2.848266602E1,1.977967024E0
4.402806892E0,-5.723631859E0,-3.087907791E1,4.063013077E0
4.405232829E0,-8.826524734E0,-3.308166885E1,6.267998695E0
4.407658715E0,-1.206311607E1,-3.504019547E1,8.631210327E0
4.410084652E0,-1.549412441E1,-3.679024506E1,1.104197884E1
4.412510590E0,-1.917847443E1,-3.835814285E1,1.358196068E1
4.414936527E0,-2.287747765E1,-3.953870392E1,1.623231125E1
4.417362465E0,-2.651636314E1,-4.035017014E1,1.908365822E1
4.419788402E0,-2.988246727E1,-4.088406754E1,2.201157570E1
4.422214340E0,-3.295664597E1,-4.124089813E1,2.494936371E1
4.424640277E0,-3.569552994E1,-4.150171280E1,2.785095978E1
4.427066215E0,-3.806562042E1,-4.160221100E1,3.060659409E1
4.429492152E0,-4.000949097E1,-4.166682053E1,3.302453995E1
4.431918090E0,-4.141497421E1,-4.163092804E1,3.499502945E1
4.434344027E0,-4.215465546E1,-4.149453735E1,3.652225113E1
4.436769965E0,-4.221686935E1,-4.129593277E1,3.753261948E1
4.439195902E0,-4.161357880E1,-4.099652863E1,3.812155151E1
4.441621840E0,-4.045724869E1,-4.055355835E1,3.815983963E1
4.444047777E0,-3.888665771E1,-4.006751633E1,3.761876297E1
4.446473663E0,-3.699782562E1,-3.955545044E1,3.638346481E1
4.448899600E0,-3.460141373E1,-3.910290909E1,3.444438171E1
4.451325538E0,-3.186731339E1,-3.856661987E1,3.206202698E1
4.453751475E0,-2.902553749E1,-3.790111542E1,2.943111992E1
4.456177413E0,-2.624358177E1,-3.709413528E1,2.667309380E1
4.458603350E0,-2.355733871E1,-3.601915741E1,2.403949356E1
4.461029288E0,-2.097159576E1,-3.481975555E1,2.165743828E1
4.463455225E0,-1.800539207E1,-3.369692612E1,1.890898132E1
4.465881163E0,-1.485225010E1,-3.249273682E1,1.571276855E1
4.468307100E0,-1.164676476E1,-3.110669518E1,1.249502087E1
4.470733038E0,-8.505587578E0,-2.954806900E1,9.263215065E0
4.473158975E0,-5.438885689E0,-2.790090942E1,6.272784710E0
4.475584913E0,-2.383849621E0,-2.610539627E1,3.771088600E0
4.478010850E0,6.732804775E-1,-2.415883446E1,1.863111496E0
4.480436736E0,3.862314939E0,-2.210459709E1,5.724828243E-1
4.482862673E0,7.166204929E0,-1.984696770E1,-1.839482337E-1
4.485288611E0,1.051795101E1,-1.743619919E1,-5.623133183E-1
4.487714548E0,1.383380508E1,-1.482921886E1,-7.345965505E-1
4.490140486E0,1.709223175E1,-1.203529930E1,-8.207381964E-1
4.492566423E0,2.021396828E1,-9.001798630E0,-7.920243144E-1
4.494992361E0,2.311317062E1,-5.805585861E0,-5.886343718E-1
4.497418298E0,2.576591492E1,-2.509173632E0,-2.916252613E-1
4.499844236E0,2.821018219E1,9.505487680E-1,1.944168359E-1
4.502270173E0,3.041516876E1,4.563112736E0,9.508479238E-1
4.504696111E0,3.225883865E1,8.207082748E0,1.994716763E0
4.507122048E0,3.366641617E1,1.176221848E1,3.107977629E0
4.509547986E0,3.447100449E1,1.505653763E1,4.228416920E0
4.511973923E0,3.478446198E1,1.785763550E1,5.161916733E0
4.514399861E0,3.470789337E1,2.026361847E1,5.755635738E0
4.516825746E0,3.443959808E1,2.215006065E1,5.897111416E0
4.519251684E0,3.405674744E1,2.362972260E1,5.647958755E0
4.521677621E0,3.363291550E1,2.480758858E1,5.166702271E0
4.524103559E0,3.315644455E1,2.575095940E1,4.592125893E0
4.526529496E0,3.265126038E1,2.660549545E1,4.022335052E0
4.528955434E0,3.221786118E1,2.741965294E1,3.373580933E0
4.531381371E0,3.189961624E1,2.829333305E1,2.775076151E0
4.533807309E0,3.179193878E1,2.921995354E1,2.260320187E0
4.536233246E0,3.182304573E1,3.023271561E1,1.795813441E0
4.538659184E0,3.196422195E1,3.123830032E1,1.305284739E0
4.541085121E0,3.214607620E1,3.220769119E1,8.072785139E-1
4.543511059E0,3.237369537E1,3.300031281E1,2.925225794E-1
4.545936996E0,3.250529861E1,3.365624619E1,-3.035893738E-1
4.548362934E0,3.253401184E1,3.401546860E1,-9.116654396E-1
4.550788871E0,3.243112183E1,3.416143036E1,-1.639681697E0
4.553214756E0,3.221786118E1,3.409204102E1,-2.386541367E0
4.555640694E0,3.185654449E1,3.368735504E1,-3.164507866E0
4.558066631E0,3.141835976E1,3.298595810E1,-3.904488325E0
4.560492569E0,3.082224846E1,3.201626587E1,-4.596313000E0
4.562918506E0,3.016631508E1,3.082404137E1,-5.364708424E0
4.565344444E0,2.941197777E1,2.945445061E1,-6.119045734E0
4.567770381E0,2.859094048E1,2.795594597E1,-6.789335251E0
4.570196319E0,2.776990318E1,2.644039154E1,-7.304090977E0
4.572622256E0,2.693420982E1,2.487458801E1,-7.749455452E0
4.575048194E0,2.606292343E1,2.321546364E1,-8.163414001E0
4.577474131E0,2.501905441E1,2.142712784E1,-8.556135178E0
4.579900069E0,2.379542542E1,1.952393723E1,-8.884251595E0
4.582326006E0,2.249552345E1,1.753669739E1,-9.142676353E0
4.584751944E0,2.114298058E1,1.537238979E1,-9.358030319E0
4.587177829E0,1.972553253E1,1.311954784E1,-9.528220177E0
4.589603767E0,1.826770592E1,1.073749256E1,-9.688538551E0
4.592029704E0,1.679043579E1,8.240582466E0,-9.925428391E0
4.594455642E0,1.521506214E1,5.633302689E0,-1.015065289E1
4.596881579E0,1.352483177E1,2.892025232E0,-1.031097221E1
4.599307517E0,1.171256733E1,2.153540403E-2,-1.032532883E1
4.601733454E0,9.783055305E0,-2.827419043E0,-1.012193871E1
4.604159392E0,7.731209755E0,-5.743372440E0,-9.659825325E0
4.606585329E0,5.542973518E0,-8.669196129E0,-8.965607643E0
4.609011267E0,3.256631613E0,-1.152293682E1,-7.940881252E0
4.611437204E0,8.913264275E-1,-1.433360577E1,-6.667301178E0
4.613863142E0,-1.514955878E0,-1.713470459E1,-5.118247509E0
4.616289079E0,-4.074079514E0,-1.987837410E1,-3.291626692E0
4.618715017E0,-6.891927242E0,-2.258106804E1,-1.146461129E0
4.621140954E0,-9.877572060E0,-2.518834686E1,1.206879973E0
4.623566840E0,-1.297777271E1,-2.769243622E1,3.816552162E0
4.625992829E0,-1.617877197E1,-3.005564690E1,6.553043842E0
4.628418715E0,-1.932443619E1,-3.196123123E1,9.610174179E0
4.630844652E0,-2.212792587E1,-3.427149963E1,1.201167011E1
4.633270590E0,-2.503939438E1,-3.660330582E1,1.413978767E1
4.635696527E0,-2.821377182E1,-3.870301056E1,1.611266899E1
4.638122465E0,-3.142194939E1,-4.047459412E1,1.824108505E1
4.640548402E0,-3.445754242E1,-4.179872513E1,2.045324898E1
4.642974340E0,-3.711028671E1,-4.248815536E1,2.275155640E1
4.645400277E0,-3.913820267E1,-4.269393921E1,2.496372032E1
4.647826215E0,-4.047878265E1,-4.250251389E1,2.700569534E1
4.650252152E0,-4.101268005E1,-4.189922333E1,2.873181725E1
4.652678090E0,-4.086911011E1,-4.109702682E1,3.001048279E1
4.655104027E0,-4.003341675E1,-4.023531342E1,3.071905708E1
4.657529965E0,-3.887708664E1,-3.942354584E1,3.090569687E1
4.659955902E0,-3.751975632E1,-3.876761627E1,3.040051270E1
4.662381840E0,-3.609034729E1,-3.831985855E1,2.920589638E1
4.664807777E0,-3.440011597E1,-3.798725510E1,2.742713165E1
4.667233663E0,-3.244667435E1,-3.762803268E1,2.524607277E1
4.669659600E0,-3.036611557E1,-3.707260132E1,2.304108810E1
4.672085538E0,-2.821616554E1,-3.631856155E1,2.091745758E1
4.674511475E0,-2.606621361E1,-3.520769501E1,1.894965935E1
4.676937413E0,-2.371287155E1,-3.389313507E1,1.708475304E1
4.679363350E0,-2.091895294E1,-3.243291473E1,1.498505211E1
4.681789288E0,-1.804367828E1,-3.080489922E1,1.295474148E1
4.684215225E0,-1.516361618E1,-2.911706161E1,1.096780205E1
4.686641163E0,-1.226680565E1,-2.728087044E1,8.992527008E0
4.689067100E0,-9.360423088E0,-2.534148788E1,6.996015072E0
4.691493038E0,-6.501897335E0,-2.333301163E1,5.090131760E0
4.693918975E0,-3.760619879E0,-2.124288177E1,3.344866991E0
4.696344913E0,-1.086341500E0,-1.911207199E1,1.779063582E0
4.698770798E0,1.499402523E0,-1.696212196E1,4.145565331E-1
4.701196788E0,4.106382847E0,-1.479302788E1,-6.197410822E-1
4.703622673E0,6.562914371E0,-1.261705494E1,-1.261316657E0
4.706048611E0,8.899505615E0,-1.044796085E1,-1.546361685E0
4.708474548E0,1.109492016E1,-8.231010437E0,-1.488634825E0
4.710900486E0,1.319940758E1,-5.880062580E0,-1.129711390E0
4.713326423E0,1.512174225E1,-3.425923824E0,-6.053841114E-1
4.715752361E0,1.680000687E1,-8.069794178E-1,3.379862010E-2
4.718178298E0,1.825574112E1,1.831406593E0,6.849454641E-1
4.720604236E0,1.949821472E1,4.512863636E0,1.367498159E0
4.723030173E0,2.061626053E1,7.112964630E0,2.071287155E0
4.725456111E0,2.158595276E1,9.576375008E0,2.806182861E0
4.727882048E0,2.253620148E1,1.188425255E1,3.426223040E0
4.730307986E0,2.347239304E1,1.396481228E1,3.902693748E0
4.732733923E0,2.448276329E1,1.586561012E1,4.226023674E0
4.735159809E0,2.550749016E1,1.765633965E1,4.398307323E0
4.737585746E0,2.665424919E1,1.930349922E1,4.448556423E0
4.740011684E0,2.780579567E1,2.087648010E1,4.436592102E0
4.742437621E0,2.904826927E1,2.237767792E1,4.434199333E0
4.744863559E0,3.019024277E1,2.384746933E1,4.438984871E0
4.747289496E0,3.132025337E1,2.529363060E1,4.482056141E0
4.749715434E0,3.218436050E1,2.670150757E1,4.572983265E0
4.752141371E0,3.277329636E1,2.796790886E1,4.812564373E0
4.754567309E0,3.312533951E1,2.911945534E1,5.087738991E0
4.756993246E0,3.318276596E1,3.009393311E1,5.286642551E0
4.759419184E0,3.304159164E1,3.093171883E1,5.420640469E0
4.761845121E0,3.270629501E1,3.156611633E1,5.418247700E0
4.764271059E0,3.221068192E1,3.190380287E1,5.370391369E0
4.766696996E0,3.161457062E1,3.201865768E1,5.245964527E0
4.769122934E0,3.087488937E1,3.188226891E1,5.023132801E0
4.771548819E0,3.014477921E1,3.156372261E1,4.707280159E0
4.773974756E0,2.942184830E1,3.106093216E1,4.293023109E0
4.776400694E0,2.875365257E1,3.036192894E1,3.797409534E0
4.778826631E0,2.813361168E1,2.960310364E1,3.210868835E0
4.781252569E0,2.756621361E1,2.866212654E1,2.569293261E0
4.783678506E0,2.708974266E1,2.761347198E1,1.899003863E0
4.786104444E0,2.661357117E1,2.646192741E1,1.252343535E0
4.788530381E0,2.611795807E1,2.524338150E1,7.016952634E-1
4.790956319E0,2.555056000E1,2.394826698E1,2.159522474E-1
4.793382256E0,2.492812729E1,2.255713844E1,-2.509472668E-1
4.795808194E0,2.421925354E1,2.107508469E1,-7.322037220E-1
4.798234131E0,2.355374908E1,1.945693779E1,-1.246959686E0
4.800660069E0,2.272792625E1,1.776431465E1,-1.843071699E0
4.803085954E0,2.185634041E1,1.591586018E1,-2.463111877E0
4.805511892E0,2.088904190E1,1.399352551E1,-3.145365477E0
4.807937829E0,1.989093590E1,1.200389385E1,-3.844667673E0
4.810363767E0,1.891646004E1,9.858728409E0,-4.550849438E0
4.812789704E0,1.797548103E1,7.548458099E0,-5.170889854E0
4.815215642E0,1.704407501E1,5.070690155E0,-5.544469357E0
4.817641579E0,1.599332714E1,2.458625317E0,-5.568397522E0
4.820067517E0,1.487767410E1,-2.297109663E-1,-5.209175110E0
4.822493454E0,1.362293720E1,-2.963809967E0,-4.486243248E0
4.824919392E0,1.214836025E1,-5.702694416E0,-3.399303675E0
4.827345329E0,1.046530914E1,-8.429615021E0,-2.056032896E0
4.829771267E0,8.665008545E0,-1.116132164E1,-5.790630579E-1
4.832197204E0,6.704091072E0,-1.385952759E1,9.460622668E-1
4.834623142E0,4.489533424E0,-1.644257927E1,2.643470764E0
4.837049079E0,2.085943222E0,-1.897568130E1,4.453341961E0
4.839474965E0,-4.758726060E-1,-2.161885262E1,6.191428661E0
4.841900902E0,-3.162115097E0,-2.437209511E1,7.769196033E0
4.844326840E0,-6.011069775E0,-2.712742996E1,9.256035805E0
4.846752777E0,-9.010771751E0,-2.983999443E1,1.062772179E1
4.849178715E0,-1.235534000E1,-3.248077393E1,1.193719387E1
4.851604652E0,-1.593440437E1,-3.493461227E1,1.320868015E1
4.854030590E0,-1.959990883E1,-3.689792252E1,1.463061523E1
4.856456527E0,-2.328665161E1,-3.835814285E1,1.619881058E1
4.858882465E0,-2.680858612E1,-3.948097610E1,1.791536140E1
4.861308402E0,-3.006192780E1,-4.015395737E1,1.975873375E1
4.863734340E0,-3.283431244E1,-4.047220230E1,2.162393761E1
4.866160277E0,-3.512334442E1,-4.056552124E1,2.333331108E1
4.868586215E0,-3.686382675E1,-4.054637909E1,2.492065048E1
4.871012152E0,-3.813261795E1,-4.042434692E1,2.630190659E1
4.873438090E0,-3.890340805E1,-4.022813416E1,2.737448883E1
4.875863975E0,-3.910231018E1,-3.989762497E1,2.812613487E1
4.878289913E0,-3.886751556E1,-3.948097610E1,2.850689316E1
4.880715850E0,-3.819722748E1,-3.886572266E1,2.860499763E1
4.883141788E0,-3.700021744E1,-3.808296967E1,2.838246536E1
4.885567725E0,-3.545355606E1,-3.711806488E1,2.784617424E1
4.887993663E0,-3.350490189E1,-3.614358521E1,2.702005196E1
4.890419600E0,-3.124009514E1,-3.511198044E1,2.580629349E1
4.892845538E0,-2.881466866E1,-3.415425491E1,2.437957191E1
4.895271475E0,-2.622443962E1,-3.310081482E1,2.289033890E1
4.897697413E0,-2.360519600E1,-3.195405197E1,2.142024994E1
4.900123350E0,-2.089263153E1,-3.055843925E1,2.013709831E1
4.902549288E0,-1.779961014E1,-2.922473907E1,1.855215263E1
4.904975225E0,-1.448614788E1,-2.770439911E1,1.679970932E1
4.907401163E0,-1.108175945E1,-2.604766846E1,1.478166199E1
4.909827048E0,-7.696514130E0,-2.421147728E1,1.279442310E1
4.912252986E0,-4.373481750E0,-2.220539474E1,1.066839981E1
4.914678923E0,-1.225125194E0,-2.006262207E1,8.631210327E0
4.917104861E0,1.822433591E0,-1.781217194E1,6.660720825E0
4.919530798E0,4.781756878E0,-1.552104378E1,5.234000206E0
4.921956736E0,7.671389580E0,-1.316770267E1,4.240380764E0
4.924382673E0,1.039113140E1,-1.075184917E1,3.649054527E0
4.926808611E0,1.295504093E1,-8.252546310E0,3.474079370E0
4.929234548E0,1.531556034E1,-5.702694416E0,3.565305710E0
4.931660486E0,1.737458420E1,-3.131606579E0,3.900300980E0
4.934086423E0,1.922034836E1,-4.860421121E-1,4.345664978E0
4.936512361E0,2.088186455E1,2.252842426E0,4.987240791E0
4.938938298E0,2.227777672E1,4.998905659E0,5.688636780E0
4.941364236E0,2.341496658E1,7.735397339E0,6.419045925E0
4.943790173E0,2.418575478E1,1.040698433E1,7.110870838E0
4.946216059E0,2.464068985E1,1.290897942E1,7.747660637E0
4.948641996E0,2.482732964E1,1.512592888E1,8.269595146E0
4.951067934E0,2.492304230E1,1.714636803E1,8.542376518E0
4.953493871E0,2.501905441E1,1.894457436E1,8.659924507E0
4.955919809E0,2.523919487E1,2.047897339E1,8.626424789E0
4.958345746E0,2.558405876E1,2.183899307E1,8.537590981E0
4.960771684E0,2.607728004E1,2.307189560E1,8.427521706E0
4.963197621E0,2.670210648E1,2.417797661E1,8.322237015E0
4.965623559E0,2.731975365E1,2.522423935E1,8.233702660E0
4.968049496E0,2.792782974E1,2.626332283E1,8.159524918E0
4.970475434E0,2.856222725E1,2.729283333E1,8.137989998E0
4.972901371E0,2.915594482E1,2.828854752E1,7.986942768E0
4.975327309E0,2.969462967E1,2.922952461E1,7.766803265E0
4.977753246E0,3.014956474E1,3.010111046E1,7.496414185E0
4.980179131E0,3.047020340E1,3.088146973E1,7.189833641E0
4.982605121E0,3.064039230E1,3.146083260E1,6.813861370E0
4.985031006E0,3.064517784E1,3.187508965E1,6.344868183E0
4.987456944E0,3.056382179E1,3.209523010E1,5.822933674E0
4.989882881E0,3.036731148E1,3.208805084E1,5.164309502E0
4.992308819E0,3.001317406E1,3.183201790E1,4.422235489E0
4.994734756E0,2.952474022E1,3.137229729E1,3.601198196E0
4.997160694E0,2.892623520E1,3.067329407E1,2.605185747E0
4.999586631E0,2.825086021E1,2.975863838E1,1.518245935E0
5.002012569E0,2.747528648E1,2.860948563E1,3.882354796E-1
5.004438506E0,2.663271332E1,2.734308434E1,-7.393822074E-1
5.006864444E0,2.570370102E1,2.601177597E1,-1.771286964E0
5.009290381E0,2.468854523E1,2.460659218E1,-2.688336134E0
5.011716319E0,2.363989067E1,2.315085793E1,-3.497409344E0
5.014142256E0,2.257687950E1,2.164995956E1,-4.261018753E0
5.016568142E0,2.159791565E1,2.006262207E1,-5.012963295E0
5.018994079E0,2.065215302E1,1.838914108E1,-5.865107536E0
5.021420017E0,1.976381683E1,1.661037636E1,-6.717550278E0
5.023845954E0,1.892363739E1,1.475952816E1,-7.483552933E0
5.026271892E0,1.806880188E1,1.276780224E1,-8.242376328E0
5.028697829E0,1.727408600E1,1.072074318E1,-9.023035049E0
5.031123767E0,1.653201103E1,8.561220169E0,-9.796216011E0
5.033549704E0,1.579203129E1,6.234200478E0,-1.055294609E1
5.035975642E0,1.507388496E1,3.823431492E0,-1.118973637E1
5.038401579E0,1.432223988E1,1.275972724E0,-1.160369396E1
5.040827517E0,1.350090313E1,-1.354935765E0,-1.177866936E1
5.043253454E0,1.262483120E1,-4.060320854E0,-1.175234795E1
5.045679392E0,1.157856941E1,-6.815955162E0,-1.139312553E1
5.048105329E0,1.035045338E1,-9.593125343E0,-1.071565819E1
5.050531215E0,8.904291153E0,-1.240618706E1,-9.779465675E0
5.052957152E0,7.185347080E0,-1.523839188E1,-8.606385231E0
5.055383090E0,5.171787262E0,-1.809452438E1,-7.186842918E0
5.057809027E0,2.749054193E0,-2.095065689E1,-5.532505035E0
5.060234965E0,-9.032905847E-2,-2.375414848E1,-3.657728434E0
5.062660902E0,-3.231507063E0,-2.653849602E1,-1.764108539E0
5.065086840E0,-6.525825500E0,-2.940420151E1,-1.313061416E-1
5.067512777E0,-1.002592659E1,-3.229652405E1,1.345962763E0
5.069938715E0,-1.392592907E1,-3.515505219E1,3.014657497E0
5.072364652E0,-1.812742615E1,-3.778117371E1,4.884349346E0
5.074790590E0,-2.279133606E1,-4.027359772E1,6.878467560E0
5.077216527E0,-2.765115929E1,-4.243551254E1,8.908778191E0
5.079642413E0,-3.247778320E1,-4.409224319E1,1.115204906E1
5.082068402E0,-3.675345612E1,-4.513850403E1,1.389811230E1
