"Time (s)","Gyroscope x (rad/s)","Gyroscope y (rad/s)","Gyroscope z (rad/s)"
9.381756900E-2,-4.948626459E-1,-8.891645670E-1,-9.025268257E-2
9.624350600E-2,-5.192965269E-1,-9.044356942E-1,-7.803573459E-2
9.866944400E-2,-5.480063558E-1,-9.044356942E-1,-8.170082420E-2
1.010953810E-1,-5.730510950E-1,-9.074899554E-1,-7.559234649E-2
1.035212670E-1,-6.005392075E-1,-9.019923210E-1,-7.864658535E-2
1.059472040E-1,-6.268056631E-1,-8.971055746E-1,-8.047912270E-2
1.083731420E-1,-6.512395144E-1,-8.922187686E-1,-8.414421231E-2
1.107990790E-1,-6.781167984E-1,-8.812234998E-1,-9.208522737E-2
1.132250170E-1,-7.056049109E-1,-8.702282906E-1,-9.636115283E-2
1.156509540E-1,-7.330930829E-1,-8.567896485E-1,-1.110214889E-1
1.180768920E-1,-7.618029118E-1,-8.402967453E-1,-1.140757278E-1
1.205028290E-1,-7.886801958E-1,-8.238039017E-1,-1.311794519E-1
1.229287670E-1,-8.180008531E-1,-8.097543716E-1,-1.378987730E-1
1.253546520E-1,-8.479323387E-1,-7.932615280E-1,-1.543916464E-1
1.277805900E-1,-8.778638840E-1,-7.779903412E-1,-1.708845198E-1
1.302065270E-1,-9.077953696E-1,-7.614974380E-1,-1.885990947E-1
1.326324650E-1,-9.389485717E-1,-7.431720495E-1,-2.093679011E-1
1.350584020E-1,-9.713234901E-1,-7.254574895E-1,-2.313583940E-1
1.374843400E-1,-1.006141782E0,-7.034669518E-1,-2.643441558E-1
1.399102770E-1,-1.042792678E0,-6.833090186E-1,-2.936648130E-1
1.423362150E-1,-1.077000022E0,-6.558209062E-1,-3.352024257E-1
1.447621520E-1,-1.117316008E0,-6.265002489E-1,-3.700207174E-1
1.471880900E-1,-1.155188560E0,-6.032879949E-1,-4.133908749E-1
1.496140270E-1,-1.191228509E0,-5.843517780E-1,-4.549284875E-1
1.520399130E-1,-1.226657629E0,-5.629721284E-1,-4.976878166E-1
1.544658500E-1,-1.261475921E0,-5.391490459E-1,-5.380037427E-1
1.568917880E-1,-1.299348474E0,-5.171585679E-1,-5.789304972E-1
1.593177250E-1,-1.342718601E0,-5.049416423E-1,-6.210789680E-1
1.617436630E-1,-1.391586423E0,-5.037199259E-1,-6.565080881E-1
1.641696000E-1,-1.444730163E0,-5.128826499E-1,-6.962131858E-1
1.665955380E-1,-1.503371477E0,-5.360948443E-1,-7.249229550E-1
1.690214750E-1,-1.569953799E0,-5.678588748E-1,-7.579087615E-1
1.714474130E-1,-1.638368726E0,-6.100073457E-1,-7.811209559E-1
1.738732980E-1,-1.703729391E0,-6.582642794E-1,-8.055548072E-1
1.762992360E-1,-1.765424967E0,-7.059103847E-1,-8.214368224E-1
1.787251730E-1,-1.824066281E0,-7.517238855E-1,-8.354863524E-1
1.811511110E-1,-1.868658066E0,-7.773795128E-1,-8.458707333E-1
1.835770480E-1,-1.907752395E0,-7.773795128E-1,-8.483141065E-1
1.860029860E-1,-1.943181515E0,-7.553889751E-1,-8.452599049E-1
1.884289230E-1,-1.978610635E0,-7.144622207E-1,-8.385405540E-1
1.908548610E-1,-2.006709576E0,-6.521558166E-1,-8.299887180E-1
1.932807980E-1,-2.026256800E0,-5.684697032E-1,-8.086090684E-1
1.957067360E-1,-2.034808636E0,-4.701233208E-1,-7.805100679E-1
1.981326210E-1,-2.032976151E0,-3.607816696E-1,-7.389724851E-1
2.005585590E-1,-2.019537449E0,-2.520508468E-1,-6.870504618E-1
2.029844960E-1,-1.998157740E0,-1.543152928E-1,-6.284091473E-1
2.054104340E-1,-1.968837023E0,-8.284615725E-2,-5.661026835E-1
2.078363710E-1,-1.928521156E0,-1.870719716E-2,-5.025745630E-1
2.102623090E-1,-1.871101499E0,4.848600179E-2,-4.335488379E-1
2.126882460E-1,-1.801464915E0,1.266744435E-1,-3.596363366E-1
2.151141840E-1,-1.714724660E0,2.134147584E-1,-2.796153426E-1
2.175401210E-1,-1.616989017E0,3.093177676E-1,-1.989834905E-1
2.199660590E-1,-1.505814791E0,4.107184112E-1,-1.177408099E-1
2.223919960E-1,-1.386088729E0,5.237251520E-1,-3.710897267E-2
2.248178810E-1,-1.256589174E0,6.336776614E-1,4.107947648E-2
2.272438190E-1,-1.118537664E0,7.375217080E-1,1.149920002E-1
2.296697560E-1,-9.762102962E-1,8.254837394E-1,1.809635013E-1
2.320956940E-1,-8.326611519E-1,8.945094347E-1,2.402156889E-1
2.345216310E-1,-6.915554404E-1,9.482640028E-1,2.921377122E-1
2.369475690E-1,-5.547256470E-1,9.757521152E-1,3.342861533E-1
2.393735060E-1,-4.295019805E-1,9.818606377E-1,3.642940223E-1
2.417994440E-1,-3.158843815E-1,9.604809880E-1,3.856737018E-1
2.442253810E-1,-2.175379843E-1,9.152782559E-1,3.942255378E-1
2.466513190E-1,-1.338519007E-1,8.505284786E-1,3.960580826E-1
2.490772040E-1,-6.604786217E-2,7.802810073E-1,3.954472542E-1
2.515031420E-1,-1.229330152E-2,7.069793344E-1,3.948363960E-1
2.539290790E-1,2.374668792E-2,6.410078406E-1,3.985014856E-1
2.563550170E-1,4.459185153E-2,5.860316157E-1,4.046099484E-1
2.587809540E-1,4.642439261E-2,5.506024361E-1,4.180485904E-1
2.612068920E-1,3.290939704E-2,5.432722569E-1,4.406499267E-1
2.636328290E-1,1.756185899E-3,5.762580037E-1,4.736357033E-1
2.660587670E-1,-4.650074616E-2,6.446729302E-1,5.151733160E-1
2.684847040E-1,-1.106397063E-1,7.460735440E-1,5.615977049E-1
2.709106420E-1,-1.833305359E-1,8.798491359E-1,6.043570042E-1
2.733365270E-1,-2.633515298E-1,1.036836863E0,6.410078406E-1
2.757624650E-1,-3.543677628E-1,1.217723966E0,6.733827591E-1
2.781884020E-1,-4.557684064E-1,1.414416790E0,6.972057819E-1
2.806143400E-1,-5.657209158E-1,1.619661450E0,7.100335956E-1
2.830402770E-1,-6.836144328E-1,1.805969954E0,7.088118792E-1
2.854662150E-1,-8.021187782E-1,1.955016613E0,6.849888563E-1
2.878921520E-1,-9.261208177E-1,2.057638884E0,6.367319226E-1
2.903180900E-1,-1.055620432E0,2.095511436E0,5.628194213E-1
2.927440270E-1,-1.193060994E0,2.072910070E0,4.638621509E-1
2.951699650E-1,-1.334166765E0,1.998997688E0,3.361186981E-1
2.975958500E-1,-1.483213544E0,1.891488552E0,1.834068894E-1
3.000217880E-1,-1.631649375E0,1.766875744E0,1.664558798E-2
3.024477250E-1,-1.772755146E0,1.644095421E0,-1.513374150E-1
3.048736630E-1,-1.904698133E0,1.528645277E0,-3.071034551E-1
3.072996000E-1,-2.022591591E0,1.425412059E0,-4.396573007E-1
3.097255380E-1,-2.125213861E0,1.330119848E0,-5.386145711E-1
3.121514750E-1,-2.210732698E0,1.250098944E0,-6.015318632E-1
3.145774130E-1,-2.280980110E0,1.176110029E0,-6.210789680E-1
3.170033500E-1,-2.333512783E0,1.117468715E0,-6.051968932E-1
3.194292880E-1,-2.372606993E0,1.078985333E0,-5.569399595E-1
3.218552250E-1,-2.399484396E0,1.060659885E0,-4.818057716E-1
3.242811110E-1,-2.415977240E0,1.060659885E0,-3.828485310E-1
3.267070480E-1,-2.425750732E0,1.072265983E0,-2.667875290E-1
3.291329860E-1,-2.422696590E0,1.085704684E0,-1.403421611E-1
3.315589230E-1,-2.411701441E0,1.106473446E0,-9.009997360E-3
3.339848610E-1,-2.382991552E0,1.131518245E0,1.272089481E-1
3.364107980E-1,-2.342064857E0,1.162671447E0,2.622061968E-1
3.388367360E-1,-2.284034252E0,1.210393786E0,3.923930228E-1
3.412626730E-1,-2.210732698E0,1.270256877E0,5.096756816E-1
3.436886110E-1,-2.123381376E0,1.327676535E0,6.171848178E-1
3.461145480E-1,-2.021369934E0,1.357608080E0,7.124769688E-1
3.485404860E-1,-1.902865529E0,1.341115117E0,7.943304777E-1
3.509663710E-1,-1.767868280E0,1.275754452E0,8.627454042E-1
3.533923090E-1,-1.623708367E0,1.166947365E0,9.158890843E-1
3.558182460E-1,-1.464277267E0,1.019733191E0,9.537616372E-1
3.582441840E-1,-1.293239951E0,8.438091278E-1,9.775846601E-1
3.606701210E-1,-1.116705179E0,6.477271914E-1,9.861365557E-1
3.630960590E-1,-9.328401089E-1,4.375956953E-1,9.812497497E-1
3.655219960E-1,-7.477533817E-1,2.121930718E-1,9.678111076E-1
3.679479340E-1,-5.565581918E-1,-2.542651631E-2,9.470423460E-1
3.703738710E-1,-3.610870838E-1,-2.722088099E-1,9.213867188E-1
3.727998090E-1,-1.643942744E-1,-5.196019411E-1,8.920660615E-1
3.752257460E-1,2.924431302E-2,-7.633299828E-1,8.609128594E-1
3.776516840E-1,2.241809368E-1,-9.905651808E-1,8.291487694E-1
3.800775690E-1,4.172086716E-1,-1.193366528E0,8.004390001E-1
3.825035060E-1,6.108472347E-1,-1.365014553E0,7.753942609E-1
3.849294440E-1,8.032641411E-1,-1.506807446E0,7.576796412E-1
3.873553810E-1,9.907942414E-1,-1.597212911E0,7.442410588E-1
3.897813190E-1,1.166718245E0,-1.346689105E0,7.375217080E-1
3.922072560E-1,1.375627995E0,-5.941253304E-1,7.314132452E-1
3.946331940E-1,1.566212416E0,-6.390989572E-2,7.082010508E-1
3.970591310E-1,1.743968964E0,7.047650218E-2,6.764369607E-1
3.994850690E-1,1.908286810E0,1.095707268E-1,6.355102062E-1
4.019110060E-1,2.058555365E0,1.730988473E-1,6.019136310E-1
4.043369440E-1,2.200882673E0,2.079171389E-1,5.744255185E-1
4.067628290E-1,2.335268974E0,2.103605270E-1,5.506024361E-1
4.091887670E-1,2.465379477E0,2.195232362E-1,5.298336148E-1
4.116147040E-1,2.585716486E0,2.354052663E-1,5.017346740E-1
4.140406420E-1,2.691393137E0,2.354052663E-1,4.681380689E-1
4.164665790E-1,2.784318209E0,2.085279822E-1,4.229353666E-1
4.188925170E-1,2.863117456E0,1.486649513E-1,3.734567463E-1
4.213184540E-1,2.930310726E0,4.421006888E-2,3.214583695E-1
4.237443920E-1,2.989562750E0,-1.091125906E-1,2.713688910E-1
4.261703290E-1,3.045150042E0,-2.972535491E-1,2.225011140E-1
4.285962670E-1,3.099515438E0,-4.982222915E-1,1.736333370E-1
4.310222040E-1,3.150826454E0,-6.985802054E-1,1.217113137E-1
4.334481420E-1,3.196640015E0,-8.897753954E-1,6.734590977E-2
4.358740790E-1,3.240010262E0,-1.068142772E0,1.420219894E-2
4.382999650E-1,3.279715300E0,-1.244066834E0,-3.833066672E-2
4.407259020E-1,3.318198681E0,-1.416936517E0,-8.842013776E-2
4.431518400E-1,3.359125376E0,-1.585606813E0,-1.360662282E-1
4.455777770E-1,3.398219585E0,-1.751146436E0,-1.861557066E-1
4.480037150E-1,3.443422318E0,-1.910577536E0,-2.405211031E-1
4.504296520E-1,3.489846706E0,-2.063900232E0,-2.991624475E-1
4.528555900E-1,3.536271095E0,-2.197064877E0,-3.651339412E-1
4.552815270E-1,3.580862999E0,-2.313736677E0,-4.402681589E-1
4.577074650E-1,3.627898216E0,-2.428575993E0,-5.215108395E-1
4.601334020E-1,3.673711777E0,-2.534863472E0,-6.082511544E-1
4.625593400E-1,3.724412203E0,-2.621603727E0,-6.980457306E-1
4.649852770E-1,3.772669077E0,-2.677801609E0,-7.970029712E-1
4.674111630E-1,3.826423645E0,-2.702846527E0,-9.002361298E-1
4.698371000E-1,3.883843184E0,-2.711398363E0,-1.011410356E0
4.722630380E-1,3.940041065E0,-2.715674162E0,-1.126860499E0
4.746889750E-1,3.997460842E0,-2.711398363E0,-1.242921472E0
4.771149130E-1,4.058545589E0,-2.714452505E0,-1.360204101E0
4.795408500E-1,4.120851994E0,-2.730334520E0,-1.477486849E0
4.819667880E-1,4.186823368E0,-2.752325058E0,-1.591104388E0
4.843927250E-1,4.250962257E0,-2.770650387E0,-1.699224353E0
4.868186630E-1,4.316323280E0,-2.792640924E0,-1.802457571E0
4.892446000E-1,4.381072998E0,-2.823794127E0,-1.895306349E0
4.916705380E-1,4.445822716E0,-2.870218515E0,-1.980214119E0
4.940964750E-1,4.508739948E0,-2.922140598E0,-2.055348396E0
4.965224130E-1,4.572268009E0,-2.976505995E0,-2.119487286E0
4.989482980E-1,4.633352757E0,-3.033314705E0,-2.169576645E0
5.013742360E-1,4.693826675E0,-3.091345310E0,-2.212336063E0
5.038001730E-1,4.750635624E0,-3.142656326E0,-2.245932579E0
5.062261110E-1,4.800724983E0,-3.179918051E0,-2.274031639E0
5.086520480E-1,4.846538544E0,-3.202519417E0,-2.298465490E0
5.110779860E-1,4.879524231E0,-3.212903976E0,-2.317401886E0
5.135039230E-1,4.900292873E0,-3.207406282E0,-2.330306053E0
5.159298610E-1,4.903347492E0,-3.200686932E0,-2.342522860E0
5.183557980E-1,4.891741276E0,-3.217179775E0,-2.343133688E0
5.207817360E-1,4.868528843E0,-3.266047478E0,-2.338247061E0
5.232076730E-1,4.825159073E0,-3.344236135E0,-2.334581852E0
5.256335590E-1,4.754911423E0,-3.458464384E0,-2.335192680E0
5.280595480E-1,4.645569801E0,-3.597737551E0,-2.341301203E0
5.304854340E-1,4.486138821E0,-3.728458881E0,-2.359015703E0
5.329113710E-1,4.263790131E0,-3.842687368E0,-2.383449554E0
5.353373090E-1,3.974248648E0,-3.922708273E0,-2.414602757E0
5.377632460E-1,3.615070343E0,-3.916599989E0,-2.437814951E0
5.401891840E-1,3.184423208E0,-3.790765285E0,-2.444534302E0
5.426151210E-1,2.687117100E0,-3.558643341E0,-2.422543764E0
5.450410590E-1,2.163010120E0,-3.274599552E0,-2.363902569E0
5.474669960E-1,1.633405566E0,-2.989333868E0,-2.247765303E0
5.498929340E-1,1.143506050E0,-2.706511497E0,-2.052904844E0
5.523188710E-1,7.079719901E-1,-2.445068836E0,-1.789629698E0
5.547448090E-1,3.213056624E-1,-2.201951742E0,-1.484206080E0
5.571706940E-1,-3.184041381E-2,-1.912410021E0,-1.144575000E0
5.595966310E-1,-3.610870838E-1,-1.559340358E0,-7.744016051E-1
5.620225690E-1,-6.628456116E-1,-1.195809841E0,-3.797942698E-1
5.644485060E-1,-9.236773849E-1,-8.781692982E-1,3.619270027E-2
5.668744440E-1,-1.131365538E0,-6.277219057E-1,4.724139869E-1
5.693003810E-1,-1.288353205E0,-4.322507977E-1,9.256626368E-1
5.717263190E-1,-1.403192520E0,-2.654894888E-1,1.385630608E0
5.741522560E-1,-1.479548454E0,-1.017824262E-1,1.833992481E0
5.765781940E-1,-1.524751067E0,5.764871091E-2,2.259142160E0
5.790041310E-1,-1.530859590E0,2.011978179E-1,2.648252010E0
5.814300690E-1,-1.502760649E0,3.251998127E-1,2.992769718E0
5.838560060E-1,-1.445340991E0,4.223245382E-1,3.283609390E0
5.862819440E-1,-1.362876534E0,4.852418005E-1,3.518174887E0
5.887078810E-1,-1.262086749E0,5.163949728E-1,3.698374748E0
5.911338190E-1,-1.139306545E0,5.139515996E-1,3.825430870E0
5.935597560E-1,-1.004920125E0,4.895177186E-1,3.908506155E0
5.959856420E-1,-8.662577868E-1,4.522560537E-1,3.948211193E0
5.984115790E-1,-7.220978141E-1,4.070533514E-1,3.951876402E0
6.008375170E-1,-5.754944682E-1,3.642940223E-1,3.922555685E0
6.032634540E-1,-4.233935177E-1,3.178696334E-1,3.869411945E0
6.056893920E-1,-2.651840746E-1,2.732777894E-1,3.796721220E0
6.081153290E-1,-1.020878479E-1,2.299076319E-1,3.708759069E0
6.105412670E-1,6.780404598E-2,1.853157878E-1,3.606747627E0
6.129672040E-1,2.382304370E-1,1.419456303E-1,3.491297483E0
6.153931420E-1,4.098785222E-1,1.004080176E-1,3.359965324E0
6.178190790E-1,5.778614879E-1,6.925480813E-2,3.217027187E0
6.202450170E-1,7.354601026E-1,6.192464009E-2,3.066147804E0
6.226709540E-1,8.796200752E-1,7.658497244E-2,2.909694672E0
6.250968920E-1,1.005454540E0,1.156791970E-1,2.747820139E0
6.275227770E-1,1.106855273E0,1.737096906E-1,2.580447912E0
6.299487150E-1,1.188097954E0,2.457896620E-1,2.399026155E0
6.323746520E-1,1.240019917E0,3.349733651E-1,2.204776764E0
6.348005900E-1,1.260788798E0,4.375956953E-1,1.992812872E0
6.372265270E-1,1.257123709E0,5.518241525E-1,1.763134241E0
6.396524650E-1,1.229024649E0,6.715502143E-1,1.520627856E0
6.420784020E-1,1.179545999E0,7.924979329E-1,1.265904546E0
6.445043400E-1,1.112352848E0,9.085589647E-1,1.003240228E0
6.469302770E-1,1.034775257E0,1.020344019E0,7.338566184E-1
6.493562150E-1,9.474241138E-1,1.119912148E0,4.614187479E-1
6.517821520E-1,8.557969928E-1,1.195046306E0,1.901262105E-1
6.542080900E-1,7.605048418E-1,1.248266339E0,-7.437065244E-2
6.566340270E-1,6.688777208E-1,1.279419541E0,-3.376458287E-1
6.590599650E-1,5.796940327E-1,1.288582325E0,-5.923691392E-1
6.614859020E-1,4.960079789E-1,1.275754452E0,-8.446490765E-1
6.639117880E-1,4.165978432E-1,1.246433854E0,-1.086544514E0
6.663377250E-1,3.432961702E-1,1.205507040E0,-1.321109891E0
6.687636630E-1,2.779355049E-1,1.152897835E0,-1.550177574E0
6.711896000E-1,2.211267054E-1,1.096089005E0,-1.773747683E0
6.736155380E-1,1.685938388E-1,1.035615206E0,-1.989987612E0
6.760414750E-1,1.209477559E-1,9.757521152E-1,-2.206838369E0
6.784674130E-1,7.391251624E-2,9.201650620E-1,-2.423154831E0
6.808933500E-1,2.802261710E-2,8.792382479E-1,-2.646113873E0
6.833192880E-1,-2.145601064E-2,8.444199562E-1,-2.875792503E0
6.857452250E-1,-8.009734750E-2,8.126559258E-1,-3.104860306E0
6.881711630E-1,-1.497339308E-1,7.876111865E-1,-3.333927870E0
6.905971000E-1,-2.303657681E-1,7.662315369E-1,-3.552611351E0
6.930230380E-1,-3.195494711E-1,7.442410588E-1,-3.750525713E0
6.954489230E-1,-4.160633385E-1,7.246938944E-1,-3.919730425E0
6.978748610E-1,-5.180748105E-1,6.941515803E-1,-4.061447144E0
7.003007980E-1,-6.194754839E-1,6.507813931E-1,-4.168956280E0
7.027267360E-1,-7.202652693E-1,5.982485414E-1,-4.242258072E0
7.051526730E-1,-8.149465919E-1,5.365529656E-1,-4.283184528E0
7.075786110E-1,-8.992435336E-1,4.608078897E-1,-4.289904118E0
7.100045480E-1,-9.670475721E-1,3.771218359E-1,-4.265470028E0
7.124304860E-1,-1.018969536E0,2.830513418E-1,-4.208050251E0
7.148564230E-1,-1.052566171E0,1.779856235E-1,-4.119477749E0
7.172823610E-1,-1.070280790E0,6.314633787E-2,-4.002805710E0
7.197082980E-1,-1.070891619E0,-5.841226876E-2,-3.851926565E0
7.221342360E-1,-1.056231260E0,-1.934095174E-1,-3.670504808E0
7.245601730E-1,-1.024467230E0,-3.345152438E-1,-3.456097364E0
7.269860590E-1,-9.755994081E-1,-4.805077314E-1,-3.206260920E0
7.294120480E-1,-9.108496308E-1,-6.295544505E-1,-2.920384407E0
7.318379340E-1,-8.308286071E-1,-7.779903412E-1,-2.602133036E0
7.342638710E-1,-7.330930829E-1,-9.282587767E-1,-2.248376131E0
7.366898090E-1,-6.182537675E-1,-1.072418690E0,-1.864153147E0
7.391157460E-1,-4.936409295E-1,-1.214135289E0,-1.449387789E0
7.415416840E-1,-3.580328524E-1,-1.350354195E0,-1.010799527E0
7.439676210E-1,-2.205922157E-1,-1.477486849E0,-5.502206683E-1
7.463935590E-1,-8.498412371E-2,-1.594769478E0,-7.192726433E-2
7.488194960E-1,4.459185153E-2,-1.705332875E0,4.137726724E-1
7.512454340E-1,1.600419879E-1,-1.812231064E0,9.085589647E-1
7.536713710E-1,2.583884001E-1,-1.923405290E0,1.405177712E0
7.560973090E-1,3.365768492E-1,-2.040077209E0,1.898131490E0
7.585232460E-1,3.970507085E-1,-2.153083801E0,2.374592304E0
7.609491840E-1,4.465293586E-1,-2.253262758E0,2.825397730E0
7.633751210E-1,4.880669713E-1,-2.338781357E0,3.242071867E0
7.658010060E-1,5.277720094E-1,-2.412083149E0,3.620186329E0
7.682269440E-1,5.613686442E-1,-2.472557068E0,3.957984924E0
7.706528810E-1,5.906893015E-1,-2.525089741E0,4.254856586E0
7.730788190E-1,6.090146899E-1,-2.566016674E0,4.506525517E0
7.755047560E-1,6.157340407E-1,-2.588618040E0,4.709326744E0
7.779306940E-1,6.035171151E-1,-2.587396383E0,4.861427784E0
7.803566310E-1,5.748072863E-1,-2.554410458E0,4.957330704E0
7.827825690E-1,5.259394646E-1,-2.488439083E0,5.003755093E0
7.852085060E-1,4.550811946E-1,-2.387038469E0,5.001922607E0
7.876344440E-1,3.640649617E-1,-2.259371281E0,4.962217808E0
7.900603810E-1,2.547233105E-1,-2.109713793E0,4.890137672E0
7.924863190E-1,1.331647038E-1,-1.941119909E0,4.795456409E0
7.949122560E-1,-3.741439432E-3,-1.765195847E0,4.678173542E0
7.973381940E-1,-1.466796994E-1,-1.569724798E0,4.533402920E0
7.997641310E-1,-2.945047319E-1,-1.350965023E0,4.364198208E0
8.021900170E-1,-4.484382570E-1,-1.104793668E0,4.171170712E0
8.046159540E-1,-6.029825807E-1,-8.280798197E-1,3.955541372E0
8.070418920E-1,-7.624137402E-1,-5.244887471E-1,3.723419428E0
8.094678290E-1,-9.181798100E-1,-2.031830698E-1,3.474193811E0
8.118937670E-1,-1.073945880E0,1.205659807E-1,3.211529493E0
8.143197040E-1,-1.223603368E0,4.394282401E-1,2.934128523E0
8.167456420E-1,-1.362876534E0,7.399650812E-1,2.646419287E0
8.191715790E-1,-1.488711119E0,1.012403011E0,2.353823662E0
8.215975170E-1,-1.601717830E0,1.250098944E0,2.056951761E0
8.240234540E-1,-1.698842525E0,1.452289343E0,1.755193233E0
8.264493920E-1,-1.778863549E0,1.618439794E0,1.454656363E0
8.288753290E-1,-1.841169953E0,1.744274378E0,1.154730439E0
8.313012670E-1,-1.883929253E0,1.838955641E0,8.560260534E-1
8.337272040E-1,-1.908363223E0,1.906148911E0,5.561000705E-1
8.361531420E-1,-1.918136716E0,1.948297381E0,2.573194206E-1
8.385790790E-1,-1.908974051E0,1.965401053E0,-4.749337584E-2
8.410050170E-1,-1.880264163E0,1.954405785E0,-3.565820754E-1
8.434309020E-1,-1.836283207E0,1.915922403E0,-6.693359017E-1
8.458568400E-1,-1.772755146E0,1.857891917E0,-9.869764447E-1
8.482827770E-1,-1.695788383E0,1.784590244E0,-1.305838704E0
8.507087150E-1,-1.605993748E0,1.698460817E0,-1.624701023E0
8.531346520E-1,-1.508258224E0,1.602557778E0,-1.948450089E0
8.555605900E-1,-1.401359916E0,1.504822254E0,-2.276474953E0
8.579865270E-1,-1.293850899E0,1.407697558E0,-2.611295700E0
8.604124650E-1,-1.186952591E0,1.321568012E0,-2.949094296E0
8.628384020E-1,-1.084330201E0,1.250709772E0,-3.294222832E0
8.652643400E-1,-9.927031398E-1,1.204285383E0,-3.638129950E0
8.676902770E-1,-9.132930040E-1,1.185272694E0,-3.978982687E0
8.701162150E-1,-8.491540551E-1,1.196878791E0,-4.311283588E0
8.725421520E-1,-8.045622110E-1,1.234216928E0,-4.630146027E0
8.749680380E-1,-7.770740986E-1,1.289803982E0,-4.927628517E0
8.773939750E-1,-7.673004866E-1,1.360051394E0,-5.200753689E0
8.798199130E-1,-7.734090090E-1,1.438239813E0,-5.442038059E0
8.822458500E-1,-7.941777706E-1,1.526812673E0,-5.654613018E0
8.846717880E-1,-8.247201443E-1,1.616607308E0,-5.834813118E0
8.870977250E-1,-8.650360703E-1,1.706401825E0,-5.988135815E0
8.895236630E-1,-9.102387428E-1,1.782146931E0,-6.117024422E0
8.919496000E-1,-9.542197585E-1,1.848118424E0,-6.222701073E0
8.943755380E-1,-9.957574010E-1,1.898207903E0,-6.305776119E0
8.968014750E-1,-1.026910543E0,1.929361105E0,-6.363195896E0
8.992274130E-1,-1.048901081E0,1.942188859E0,-6.390073299E0
9.016533500E-1,-1.053787827E0,1.935469508E0,-6.379077911E0
9.040792880E-1,-1.039738417E0,1.904316306E0,-6.333264351E0
9.065052250E-1,-1.010417700E0,1.850561738E0,-6.244080544E0
9.089311630E-1,-9.652150273E-1,1.772373319E0,-6.120689392E0
9.113571000E-1,-9.010760784E-1,1.666696787E0,-5.962480068E0
9.137830380E-1,-8.241093159E-1,1.539029717E0,-5.765176296E0
9.162089750E-1,-7.343147397E-1,1.380209327E0,-5.526946068E0
9.186348610E-1,-6.310815811E-1,1.194435477E0,-5.248399734E0
9.210607980E-1,-5.205182433E-1,9.806389213E-1,-4.928850174E0
9.234867360E-1,-3.971270621E-1,7.424085140E-1,-4.569061279E0
9.259126730E-1,-2.688491642E-1,4.846309423E-1,-4.168345451E0
9.283386110E-1,-1.350736022E-1,2.164690048E-1,-3.727924347E0
9.307645480E-1,-2.519744914E-3,-6.329904497E-2,-3.252074480E0
9.331904860E-1,1.203369126E-1,-3.534514904E-1,-2.739573717E0
9.356164230E-1,2.278460264E-1,-6.491015553E-1,-2.198286533E0
9.380423610E-1,3.200839758E-1,-9.429190755E-1,-1.635696292E0
9.404682980E-1,3.921639323E-1,-1.223297954E0,-1.058445573E0
9.428942360E-1,4.459185004E-1,-1.483595252E0,-4.763081372E-1
9.453201730E-1,4.850127101E-1,-1.717549801E0,9.361234307E-2
9.477461110E-1,5.063923597E-1,-1.909355879E0,6.550573111E-1
9.501720480E-1,5.247178078E-1,-2.049850702E0,1.198711395E0
9.525979860E-1,5.332696438E-1,-2.147586346E0,1.722818375E0
9.550239230E-1,5.344913602E-1,-2.202562571E0,2.215161324E0
9.574498610E-1,5.271611810E-1,-2.218444586E0,2.670242548E0
9.598757460E-1,5.137225389E-1,-2.201951742E0,3.086916685E0
9.623016840E-1,4.905103445E-1,-2.152472973E0,3.461365938E0
9.647276210E-1,4.563029110E-1,-2.076117039E0,3.784504175E0
9.671535590E-1,4.104893506E-1,-1.969829679E0,4.059996128E0
9.695794960E-1,3.512371778E-1,-1.836665034E0,4.287842274E0
9.720054340E-1,2.742704153E-1,-1.677233815E0,4.471096516E0
9.744313710E-1,1.820324808E-1,-1.497033954E0,4.612812996E0
9.768573090E-1,7.085828483E-2,-1.295988798E0,4.716046333E0
9.792832460E-1,-5.749600008E-2,-1.079748869E0,4.786293507E0
9.817091840E-1,-2.016559541E-1,-8.525137305E-1,4.822333813E0
9.841351210E-1,-3.592545390E-1,-6.222242713E-1,4.827831268E0
9.865610590E-1,-5.235724449E-1,-3.901023269E-1,4.804619312E0
9.889869960E-1,-6.933879852E-1,-1.628671438E-1,4.751475334E0
9.914129340E-1,-8.625926971E-1,6.009209901E-2,4.673897743E0
9.938388190E-1,-1.029353976E0,2.744994760E-1,4.568221092E0
9.962647560E-1,-1.190617681E0,4.840200841E-1,4.444219112E0
9.986906940E-1,-1.345162034E0,6.904864907E-1,4.297616005E0
1.001116631E0,-1.492376208E0,8.890118003E-1,4.133908749E0
1.003542569E0,-1.631649375E0,1.080206990E0,3.951876402E0
1.005968506E0,-1.762981534E0,1.263537526E0,3.755794287E0
1.008394444E0,-1.886372685E0,1.438239813E0,3.544441223E0
1.010820381E0,-1.995714307E0,1.612331390E0,3.319038630E0
1.013246319E0,-2.092839003E0,1.777870893E0,3.083862305E0
1.015672256E0,-2.177746773E0,1.936080337E0,2.840668917E0
1.018098194E0,-2.248605013E0,2.081462145E0,2.590832233E0
1.020524131E0,-2.304192305E0,2.209129095E0,2.339163303E0
1.022950069E0,-2.345729828E0,2.328244209E0,2.088715792E0
1.025376006E0,-2.368331194E0,2.440640211E0,1.839490175E0
1.027801944E0,-2.373828888E0,2.540208340E0,1.590264440E0
1.030227881E0,-2.365277052E0,2.617175102E0,1.340427995E0
1.032653767E0,-2.338399649E0,2.667875290E0,1.089980602E0
1.035079756E0,-2.293807745E0,2.692309380E0,8.383114934E-1
1.037505642E0,-2.227836370E0,2.701472044E0,5.841990709E-1
1.039931579E0,-2.141706944E0,2.688644171E0,3.269560039E-1
1.042357517E0,-2.037251949E0,2.658712626E0,6.795676053E-2
1.044783454E0,-1.918747544E0,2.608012438E0,-1.928750277E-1
1.047209392E0,-1.781306982E0,2.544484138E0,-4.561502039E-1
1.049635329E0,-1.627373457E0,2.472404242E0,-7.224795818E-1
1.052061267E0,-1.460001349E0,2.388107300E0,-9.875873327E-1
1.054487204E0,-1.284688115E0,2.296480179E0,-1.252694964E0
1.056913142E0,-1.100823164E0,2.197523117E0,-1.515970230E0
1.059339079E0,-9.096279144E-1,2.098565817E0,-1.774969459E0
1.061765017E0,-7.141568065E-1,2.002662659E0,-2.031525373E0
1.064190954E0,-5.174639821E-1,1.910424829E0,-2.289913654E0
1.066616892E0,-3.238253891E-1,1.826127887E0,-2.550821781E0
1.069042829E0,-1.320193708E-1,1.754047871E0,-2.812875271E0
1.071468767E0,5.497625470E-2,1.700293303E0,-3.075539589E0
1.073894704E0,2.357870489E-1,1.663031697E0,-3.338814735E0
1.076320590E0,4.092676640E-1,1.641651988E0,-3.597203255E0
1.078746527E0,5.723638535E-1,1.628824234E0,-3.841542006E0
1.081172465E0,7.305732965E-1,1.621494055E0,-4.062668800E0
1.083598402E0,8.796200752E-1,1.610498786E0,-4.260583401E0
1.086024340E0,1.019504070E0,1.590951681E0,-4.429177284E0
1.088450277E0,1.156333804E0,1.558576822E0,-4.569061279E0
1.090876215E0,1.292552829E0,1.507876515E0,-4.683900356E0
1.093302152E0,1.431825995E0,1.439461589E0,-4.771251678E0
1.095728090E0,1.576596737E0,1.354553819E0,-4.827449322E0
1.098154027E0,1.728697777E0,1.247655511E0,-4.852494240E0
1.100579965E0,1.886296391E0,1.116857886E0,-4.843942642E0
1.103005902E0,2.048170805E0,9.598701000E-1,-4.805459023E0
1.105431840E0,2.210656166E0,7.753942609E-1,-4.735211372E0
1.107857777E0,2.373141527E0,5.640410781E-1,-4.634421825E0
1.110283715E0,2.533794403E0,3.288649023E-1,-4.500035286E0
1.112709652E0,2.691393137E0,6.620056927E-2,-4.330219746E0
1.115135590E0,2.840516090E0,-2.172325552E-1,-4.126807690E0
1.117561475E0,2.980400085E0,-5.189911127E-1,-3.892242432E0
1.119987413E0,3.103791237E0,-8.299123645E-1,-3.623469591E0
1.122413350E0,3.209467888E0,-1.151828885E0,-3.318045855E0
1.124839288E0,3.295597315E0,-1.484206080E0,-2.977193117E0
1.127265225E0,3.359125376E0,-1.820172071E0,-2.596635342E0
1.129691163E0,3.397608757E0,-2.159803152E0,-2.176906824E0
1.132117100E0,3.408604145E0,-2.501877546E0,-1.715717196E0
1.134543038E0,3.402495623E0,-2.833567619E0,-1.216044188E0
1.136968975E0,3.373785734E0,-3.152430058E0,-6.815528274E-1
1.139394913E0,3.330415726E0,-3.447469234E0,-1.201841980E-1
1.141820850E0,3.275439262E0,-3.706468344E0,4.626404345E-1
1.144246788E0,3.210689545E0,-3.923930168E0,1.055162311E0
1.146672725E0,3.137998819E0,-4.088858604E0,1.656846881E0
1.149098663E0,3.057366848E0,-4.200109482E0,2.254255533E0
1.151524600E0,2.970626593E0,-4.255696297E0,2.843112230E0
1.153950538E0,2.878388643E0,-4.256917953E0,3.419217587E0
1.156376475E0,2.783707380E0,-4.210493565E0,3.976921082E0
1.158802413E0,2.687727928E0,-4.123066425E0,4.515688419E0
1.161228298E0,2.591214180E0,-4.001507759E0,5.025745869E0
1.163654236E0,2.494700193E0,-3.850017548E0,5.505871773E0
1.166080173E0,2.397575378E0,-3.673482656E0,5.944536686E0
1.168506111E0,2.299229145E0,-3.471903086E0,6.336700439E0
1.170932048E0,2.197217703E0,-3.245278835E0,6.676331520E0
1.173357986E0,2.089097738E0,-2.989944696E0,6.959764481E0
1.175783923E0,1.980366826E0,-2.714452505E0,7.192497253E0
1.178209861E0,1.865527511E0,-2.418191671E0,7.370254040E0
1.180635798E0,1.740914702E0,-2.112767935E0,7.500364304E0
1.183061736E0,1.608971715E0,-1.797570825E0,7.575498581E0
1.185487673E0,1.467865944E0,-1.478708506E0,7.607873440E0
1.187913611E0,1.320651770E0,-1.160991549E0,7.596267223E0
1.190339548E0,1.165496588E0,-8.396859169E-1,7.537015438E0
1.192765486E0,1.007897973E0,-5.177693963E-1,7.433782101E0
1.195191423E0,8.460234404E-1,-1.970745921E-1,7.282291889E0
1.197617361E0,6.865923405E-1,1.211768240E-1,7.084377289E0
1.200043298E0,5.326588154E-1,4.333197773E-1,6.835762501E0
1.202469236E0,3.921639323E-1,7.375217080E-1,6.540723324E0
1.204895121E0,2.657185495E-1,1.033171773E0,6.200481415E0
1.207321059E0,1.514901221E-1,1.319735527E0,5.826032162E0
1.209746996E0,5.803048983E-2,1.595227599E0,5.424018383E0
1.212172934E0,-1.718007959E-2,1.843842506E0,5.008642197E0
1.214598871E0,-7.459972054E-2,2.059471607E0,4.588379383E0
1.217024809E0,-1.198024154E-1,2.223178625E0,4.168116093E0
1.219450746E0,-1.515664756E-1,2.330076933E0,3.758237839E0
1.221876684E0,-1.698918939E-1,2.384442329E0,3.355078459E0
1.224302621E0,-1.760003716E-1,2.394826651E0,2.965892553E0
1.226728559E0,-1.717244387E-1,2.367949486E0,2.588999748E0
1.229154496E0,-1.558424085E-1,2.308697224E0,2.231043339E0
1.231580434E0,-1.320193708E-1,2.222567797E0,1.885303736E0
1.234006371E0,-1.008661538E-1,2.117501974E0,1.555446148E0
1.236432309E0,-6.421531737E-2,1.994721770E0,1.233529687E0
1.238858246E0,-2.328855172E-2,1.861557007E0,9.207758904E-1
1.241284184E0,2.252499200E-2,1.719840407E0,6.141305566E-1
1.243710069E0,7.391251624E-2,1.568961143E0,3.092414141E-1
1.246136006E0,1.288887709E-1,1.413195133E0,1.985253533E-3
1.248561944E0,1.875301152E-1,1.261094213E0,-3.058817685E-1
1.250987881E0,2.504473627E-1,1.110749364E0,-6.143596172E-1
1.253413819E0,3.133646548E-1,9.580375552E-1,-9.301676750E-1
1.255839756E0,3.738385141E-1,8.022715449E-1,-1.248419046E0
1.258265694E0,4.306473136E-1,6.428403854E-1,-1.573389769E0
1.260691631E0,4.770717025E-1,4.803550243E-1,-1.898360610E0
1.263117569E0,5.131117105E-1,3.239781260E-1,-2.226385593E0
1.265543506E0,5.375455618E-1,1.743205339E-1,-2.552043438E0
1.267969444E0,5.448757410E-1,3.932329267E-2,-2.873349190E0
1.270395381E0,5.338805318E-1,-7.857023180E-2,-3.187935591E0
1.272821319E0,5.021164417E-1,-1.756949425E-1,-3.492137432E0
1.275247256E0,4.459185004E-1,-2.465532273E-1,-3.784122467E0
1.277673194E0,3.634541333E-1,-2.917559147E-1,-4.057171345E0
1.280099131E0,2.565558553E-1,-3.106921911E-1,-4.311894417E0
1.282525069E0,1.233911440E-1,-3.076379597E-1,-4.543405533E0
1.284951006E0,-3.428380191E-2,-2.825932205E-1,-4.751704693E0
1.287376944E0,-2.169271260E-1,-2.349471301E-1,-4.938623905E0
1.289802829E0,-4.185067415E-1,-1.653105468E-1,-5.104239464E0
1.292228767E0,-6.432985067E-1,-7.429429889E-2,-5.250843048E0
1.294654704E0,-8.845831752E-1,3.443651274E-2,-5.378509998E0
1.297080642E0,-1.142360687E0,1.584385037E-1,-5.487851620E0
1.299506579E0,-1.409911871E0,2.916032076E-1,-5.581922054E0
1.301932517E0,-1.685403943E0,4.327089190E-1,-5.659499645E0
1.304358454E0,-1.963950276E0,5.725929737E-1,-5.722417355E0
1.306784392E0,-2.241274834E0,7.069793344E-1,-5.767619610E0
1.309210329E0,-2.511880398E0,8.273162842E-1,-5.798772812E0
1.311636267E0,-2.766069174E0,9.274951816E-1,-5.810989857E0
1.314062204E0,-2.998191118E0,9.971317649E-1,-5.804881573E0
1.316488142E0,-3.203435659E0,1.026452422E0,-5.778614998E0
1.318914079E0,-3.374472857E0,1.008127093E0,-5.729136467E0
1.321340017E0,-3.505805016E0,9.360470772E-1,-5.652169704E0
1.323765954E0,-3.595599651E0,8.059365749E-1,-5.542828083E0
1.326191892E0,-3.645078421E0,6.190173626E-1,-5.394392014E0
1.328617829E0,-3.655462742E0,3.746784329E-1,-5.200142860E0
1.331043715E0,-3.627363682E0,7.353074104E-2,-4.956338406E0
1.333469652E0,-3.563224792E0,-2.795389891E-1,-4.661910057E0
1.335895590E0,-3.467321873E0,-6.796439290E-1,-4.314337730E0
1.338321527E0,-3.336600542E0,-1.121897340E0,-3.911789417E0
1.340747465E0,-3.174726009E0,-1.592326045E0,-3.456708193E0
1.343173402E0,-2.978643894E0,-2.079171419E0,-2.944207430E0
1.345599340E0,-2.748965263E0,-2.570292473E0,-2.392001629E0
1.348025277E0,-2.485613823E0,-3.046753407E0,-1.809787750E0
1.350451215E0,-2.183855295E0,-3.495726109E0,-1.208714008E0
1.352877152E0,-1.838726640E0,-3.900107145E0,-5.838172436E-1
1.355303090E0,-1.453892827E0,-4.255696297E0,5.512896553E-2
1.357729027E0,-1.024467230E0,-4.553790092E0,7.069793344E-1
1.360154965E0,-5.559473634E-1,-4.791409492E0,1.370970368E0
1.362580902E0,-4.894413799E-2,-4.969166279E0,2.041680574E0
1.365006840E0,4.923428893E-1,-5.077286243E0,2.712390900E0
1.367432777E0,1.060430884E0,-5.120656013E0,3.376458168E0
1.369858715E0,1.646844268E0,-5.094389915E0,4.023345470E0
1.372284652E0,2.235701084E0,-5.007038593E0,4.637247086E0
1.374710538E0,2.803865194E0,-4.873262882E0,5.210221767E0
1.377136527E0,3.333469868E0,-4.704058170E0,5.726463795E0
1.379562413E0,3.803211451E0,-4.481709957E0,6.165663242E0
1.381988350E0,4.202705383E0,-4.203774452E0,6.519954681E0
1.384414288E0,4.524621964E0,-3.864067078E0,6.779564857E0
1.386840225E0,4.746970177E0,-3.467627287E0,6.942049980E0
1.389266163E0,4.849592686E0,-3.057137728E0,7.000691414E0
1.391692100E0,4.825159073E0,-2.631377220E0,6.969538212E0
1.394118038E0,4.690161705E0,-2.181182861E0,6.871802807E0
1.396543975E0,4.470867634E0,-1.699835181E0,6.730085850E0
1.398969913E0,4.189266682E0,-1.181760430E0,6.559048653E0
1.401395850E0,3.878345490E0,-6.326087117E-1,6.369075298E0
1.403821788E0,3.548488140E0,-7.612683624E-2,6.154667854E0
1.406247725E0,3.211300373E0,4.675272107E-1,5.913383484E0
1.408673663E0,2.869225979E0,9.769738317E-1,5.644534111E0
1.411099600E0,2.527685881E0,1.433353066E0,5.359268188E0
1.413525538E0,2.195384979E0,1.824906230E0,5.067894459E0
1.415951475E0,1.876522779E0,2.146822691E0,4.782017708E0
1.418377361E0,1.580872655E0,2.403989315E0,4.516910076E0
1.420803298E0,1.315154195E0,2.601903915E0,4.277457714E0
1.423229288E0,1.082421303E0,2.741177082E0,4.058774471E0
1.425655173E0,8.845068216E-1,2.824252367E0,3.865136147E0
1.428081111E0,7.244648337E-1,2.852351189E0,3.684936047E0
1.430507048E0,6.077930331E-1,2.834636688E0,3.513898849E0
1.432932986E0,5.277720094E-1,2.779660463E0,3.348970175E0
1.435358923E0,4.850127101E-1,2.697196007E0,3.178543806E0
1.437784861E0,4.776825607E-1,2.599460602E0,2.995824099E0
1.440210798E0,5.002838969E-1,2.489507914E0,2.797298670E0
1.442636736E0,5.460974574E-1,2.377112150E0,2.577393770E0
1.445062673E0,6.126797795E-1,2.262883663E0,2.330000401E0
1.447488611E0,6.914790869E-1,2.140714169E0,2.055119276E0
1.449914548E0,7.800519466E-1,2.014268875E0,1.753360748E0
1.452340486E0,8.820634484E-1,1.899429560E0,1.424724817E0
1.454766423E0,9.859074950E-1,1.786422849E0,1.068600893E0
1.457192361E0,1.090973258E0,1.673416018E0,6.892647743E-1
1.459618298E0,1.191763043E0,1.552468300E0,2.933593988E-1
1.462044236E0,1.285222650E0,1.427244663E0,-1.122431830E-1
1.464470173E0,1.364632726E0,1.292858243E0,-5.263976455E-1
1.466896111E0,1.428771734E0,1.153508663E0,-9.436063170E-1
1.469321996E0,1.474585295E0,1.009348750E0,-1.360814929E0
1.471747934E0,1.505127668E0,8.633562326E-1,-1.776801944E0
1.474173871E0,1.517955422E0,7.283589840E-1,-2.186680555E0
1.476599809E0,1.512457848E0,6.049678326E-1,-2.590526819E0
1.479025746E0,1.491688967E0,4.944044948E-1,-2.985744953E0
1.481451684E0,1.449540496E0,4.046099484E-1,-3.374243975E0
1.483877621E0,1.387844920E0,3.343625069E-1,-3.749914885E0
1.486303559E0,1.309656501E0,2.848838866E-1,-4.108482361E0
1.488729496E0,1.209477544E0,2.598391473E-1,-4.446280956E0
1.491155434E0,1.090973258E0,2.573957741E-1,-4.760256290E0
1.493581371E0,9.504783154E-1,2.708344162E-1,-5.050485134E0
1.496007309E0,7.941014171E-1,3.001550734E-1,-5.313149452E0
1.498433246E0,6.187883019E-1,3.429143727E-1,-5.545882225E0
1.500859184E0,4.245388508E-1,3.905604780E-1,-5.752959251E0
1.503285121E0,2.125748396E-1,4.467584193E-1,-5.935602665E0
1.505711059E0,-1.901262067E-2,5.108973980E-1,-6.095644951E0
1.508136944E0,-2.670166194E-1,5.817556381E-1,-6.231252670E0
1.510562881E0,-5.321243405E-1,6.642200351E-1,-6.343038082E0
1.512988819E0,-8.143357635E-1,7.509603500E-1,-6.427334785E0
1.515414756E0,-1.108764172E0,8.358681202E-1,-6.481700420E0
1.517840694E0,-1.412355185E0,9.116131663E-1,-6.502469063E0
1.520266631E0,-1.719000578E0,9.684219956E-1,-6.490862846E0
1.522692569E0,-2.025645971E0,1.003240228E0,-6.446881771E0
1.525118506E0,-2.323128462E0,1.011792183E0,-6.371747971E0
1.527544444E0,-2.608394146E0,9.873582125E-1,-6.266071320E0
1.529970381E0,-2.878464937E0,9.232192636E-1,-6.128019810E0
1.532396319E0,-3.125858068E0,8.205969334E-1,-5.958815098E0
1.534822256E0,-3.354315042E0,6.739935875E-1,-5.763343811E0
1.537248194E0,-3.561392307E0,4.858526289E-1,-5.542828083E0
1.539674131E0,-3.737927198E0,2.567849159E-1,-5.298489094E0
1.542100069E0,-3.885141373E0,-1.443126611E-2,-5.022996902E0
1.544526006E0,-3.995093822E0,-3.235199749E-1,-4.708334446E0
1.546951944E0,-4.065952301E0,-6.649835706E-1,-4.349767208E0
1.549377881E0,-4.085499287E0,-1.020496726E0,-3.942331791E0
1.551803819E0,-4.056178570E0,-1.399222016E0,-3.486639738E0
1.554229756E0,-3.982265949E0,-1.821393847E0,-2.986355782E0
1.556655642E0,-3.869870186E0,-2.278307676E0,-2.446367025E0
1.559081579E0,-3.721434116E0,-2.770650387E0,-1.872704983E0
1.561507517E0,-3.533293247E0,-3.268491030E0,-1.267966151E0
1.563933454E0,-3.306668997E0,-3.733956575E0,-6.290199757E-1
1.566359392E0,-3.025679111E0,-4.131007195E0,4.352286831E-2
1.568785329E0,-2.682383060E0,-4.426122665E0,7.448518872E-1
1.571211267E0,-2.268152237E0,-4.602657795E0,1.460154057E0
1.573637204E0,-1.777031064E0,-4.660077572E0,2.177288771E0
1.576063142E0,-1.218105793E0,-4.601436138E0,2.876097918E0
1.578489079E0,-6.017609239E-1,-4.435285568E0,3.543830395E0
1.580915017E0,5.558710173E-2,-4.175675392E0,4.165061951E0
1.583340954E0,7.324058414E-1,-3.840854883E0,4.735593319E0
1.585766892E0,1.400672793E0,-3.437084913E0,5.245039940E0
1.588192829E0,2.036564827E0,-2.984447002E0,5.689813137E0
1.590618767E0,2.610150337E0,-2.502488613E0,6.066094875E0
1.593044704E0,3.108067274E0,-2.004037142E0,6.382514000E0
1.595470642E0,3.524665117E0,-1.484817028E0,6.643345833E0
1.597896579E0,3.853300810E0,-9.514709711E-1,6.842482090E0
1.600322465E0,4.089698792E0,-4.304182529E-1,6.970759869E0
1.602748402E0,4.226528645E0,2.710634656E-2,7.015962601E0
1.605174340E0,4.221641541E0,3.447469175E-1,6.949991226E0
1.607600277E0,4.061599731E0,4.852418005E-1,6.766126156E0
1.610026215E0,3.782442570E0,5.157841444E-1,6.501018524E0
1.612452152E0,3.444643974E0,5.310553312E-1,6.203535557E0
1.614878090E0,3.109288931E0,6.110763550E-1,5.915215969E0
1.617304027E0,2.824023247E0,7.833352685E-1,5.657972813E0
1.619729965E0,2.596100807E0,1.028285027E0,5.424629211E0
1.622155902E0,2.414679289E0,1.298966646E0,5.196172237E0
1.624581840E0,2.260745764E0,1.547581553E0,4.952444077E0
1.627007777E0,2.119639874E0,1.741830945E0,4.686114788E0
1.629433715E0,1.987086177E0,1.872552276E0,4.399627209E0
1.631859652E0,1.867970943E0,1.947686434E0,4.100923061E0
1.634285590E0,1.765348554E0,1.983115673E0,3.806494713E0
1.636711527E0,1.688381791E0,1.991056681E0,3.524893999E0
1.639137465E0,1.639514089E0,1.984337330E0,3.258564711E0
1.641563402E0,1.620577812E0,1.964179397E0,3.007430077E0
1.643989340E0,1.630351305E0,1.929361105E0,2.763091326E0
1.646415277E0,1.668834686E0,1.879271626E0,2.520584822E0
1.648841163E0,1.731141090E0,1.806580782E0,2.276246071E0
1.651267100E0,1.816659689E0,1.719840407E0,2.025798559E0
1.653693038E0,1.924168825E0,1.621494055E0,1.763745070E0
1.656118975E0,2.051225185E0,1.518260837E0,1.492528915E0
1.658544913E0,2.193552494E0,1.419914484E0,1.209706664E0
1.660970850E0,2.351150990E0,1.327065706E0,9.164999723E-1
1.663396788E0,2.515469074E0,1.248877168E0,6.153522730E-1
1.665822725E0,2.681619406E0,1.187716126E0,3.092414141E-1
1.668248663E0,2.844792128E0,1.135183334E0,7.635590737E-4
1.670674600E0,2.994449615E0,1.086315513E0,-3.101576865E-1
1.673100538E0,3.120284081E0,1.034393430E0,-6.216897964E-1
1.675526475E0,3.218630552E0,9.769738317E-1,-9.313893318E-1
1.677952413E0,3.285212994E0,9.116131663E-1,-1.234980464E0
1.680378350E0,3.315144539E0,8.456416726E-1,-1.533073902E0
1.682804288E0,3.312090158E0,7.815027237E-1,-1.817117929E0
1.685230225E0,3.273606777E0,7.277481556E-1,-2.091388226E0
1.687656163E0,3.201526880E0,6.807129383E-1,-2.351685524E0
1.690082100E0,3.098904610E0,6.440621018E-1,-2.601522207E0
1.692507986E0,2.963907242E0,6.196281910E-1,-2.836087465E0
1.694933923E0,2.799589396E0,6.074112654E-1,-3.059657574E0
1.697359861E0,2.609539509E0,6.135197282E-1,-3.266734838E0
1.699785798E0,2.393299580E0,6.342885494E-1,-3.459762573E0
1.702211736E0,2.151404142E0,6.672742963E-1,-3.636908293E0
1.704637673E0,1.884463787E0,7.130877972E-1,-3.795728445E0
1.707063611E0,1.593700528E0,7.686749101E-1,-3.939888477E0
1.709489548E0,1.282168388E0,8.291487694E-1,-4.063279629E0
1.711915486E0,9.498674870E-1,8.951203227E-1,-4.170177937E0
1.714341423E0,6.041279435E-1,9.641460180E-1,-4.256917953E0
1.716767361E0,2.443388999E-1,1.038058519E0,-4.336939335E0
1.719193298E0,-1.228566542E-1,1.121744633E0,-4.401689053E0
1.721619236E0,-4.954734743E-1,1.209782958E0,-4.451778412E0
1.724045173E0,-8.674794436E-1,1.302631736E0,-4.482931614E0
1.726471111E0,-1.241317987E0,1.394869685E0,-4.494537830E0
1.728897048E0,-1.605993748E0,1.479777455E0,-4.479266644E0
1.731322986E0,-1.957230926E0,1.549414039E0,-4.433453083E0
1.733748923E0,-2.292586088E0,1.589730024E0,-4.354043007E0
1.736174861E0,-2.607783318E0,1.587897420E0,-4.245923042E0
1.738600746E0,-2.909007311E0,1.539640546E0,-4.102373600E0
1.741026684E0,-3.191829681E0,1.440072417E0,-3.931947470E0
1.743452621E0,-3.455104828E0,1.283084631E0,-3.734643698E0
1.745878559E0,-3.701887131E0,1.076541901E0,-3.512906313E0
1.748304496E0,-3.935841560E0,8.212077618E-1,-3.271010637E0
1.750730434E0,-4.156968117E0,5.206709504E-1,-3.007735491E0
1.753156371E0,-4.365878105E0,1.871483326E-1,-2.728578329E0
1.755582309E0,-4.562571049E0,-1.726407111E-1,-2.437814951E0
1.758008246E0,-4.743381500E0,-5.428141356E-1,-2.137201786E0
1.760434184E0,-4.909532070E0,-9.166526794E-1,-1.828113079E0
1.762860121E0,-5.056135654E0,-1.291102052E0,-1.514748454E0
1.765286059E0,-5.180748463E0,-1.669292808E0,-1.197718740E0
1.767711996E0,-5.277873039E0,-2.048018217E0,-8.751913905E-1
1.770137934E0,-5.345142365E0,-2.428575993E0,-5.526640415E-1
1.772563871E0,-5.375073910E0,-2.806079626E0,-2.307475507E-1
1.774989809E0,-5.364689827E0,-3.182972431E0,9.605573118E-2
1.777415746E0,-5.306048393E0,-3.554367542E0,4.192702770E-1
1.779841684E0,-5.190521717E0,-3.914156437E0,7.399650812E-1
1.782267569E0,-5.013376236E0,-4.253252983E0,1.052108049E0
1.784693506E0,-4.773313046E0,-4.562952518E0,1.342260480E0
1.787119444E0,-4.466667652E0,-4.826227665E0,1.601870537E0
1.789545381E0,-4.090996742E0,-5.022309780E0,1.819332242E0
1.791971319E0,-3.651797533E0,-5.129208088E0,1.976319909E0
1.794397256E0,-3.155789614E0,-5.134705544E0,2.074666262E0
1.796823194E0,-2.602896452E0,-5.024142265E0,2.121090651E0
1.799249131E0,-1.998157740E0,-4.803626537E0,2.116204023E0
1.801675069E0,-1.358600616E0,-4.489651203E0,2.069168806E0
1.804101006E0,-6.958313584E-1,-4.122455597E0,1.981817603E0
1.806526944E0,-2.939702384E-2,-3.734567404E0,1.857815623E0
1.808952881E0,6.193991303E-1,-3.358285427E0,1.705103755E0
1.811378819E0,1.230246425E0,-3.015600204E0,1.530401468E0
1.813804756E0,1.783063173E0,-2.713230848E0,1.341038823E0
1.816230694E0,2.270519257E0,-2.440793037E0,1.146178484E0
1.818656631E0,2.695058107E0,-2.175074339E0,9.641460180E-1
1.821082569E0,3.066529512E0,-1.891030431E0,8.059365749E-1
1.823508506E0,3.400052309E0,-1.584995866E0,6.849888563E-1
1.825934392E0,3.697534800E0,-1.258116245E0,5.982485414E-1
1.828360381E0,3.966307640E0,-9.221503139E-1,5.493807793E-1
1.830786319E0,4.205148697E0,-5.990120769E-1,5.304445028E-1
1.833212204E0,4.407339096E0,-3.033620119E-1,5.377746820E-1
1.835638142E0,4.569213867E0,-3.581092134E-2,5.658736229E-1
1.838064079E0,4.690161705E0,2.091388255E-1,6.068003774E-1
1.840490017E0,4.768960953E0,4.394282401E-1,6.617766619E-1
1.842915954E0,4.799503326E0,6.617766619E-1,7.204179764E-1
1.845341892E0,4.793394566E0,8.938986063E-1,7.790593505E-1
1.847767829E0,4.753078938E0,1.139459252E0,8.328138590E-1
1.850193767E0,4.685274601E0,1.395480514E0,8.761840463E-1
1.852619704E0,4.596091270E0,1.650203824E0,9.024504423E-1
1.855045642E0,4.488582134E0,1.899429560E0,9.061155319E-1
1.857471579E0,4.367634296E0,2.131551504E0,8.835142255E-1
1.859897517E0,4.241189003E0,2.344126463E0,8.303704858E-1
1.862323454E0,4.112299919E0,2.528602123E0,7.503495216E-1
1.864749392E0,3.981578827E0,2.685590029E0,6.416186690E-1
1.867175329E0,3.848414183E0,2.816311359E0,5.060105920E-1
1.869601267E0,3.717082024E0,2.915268660E0,3.471903205E-1
1.872027204E0,3.586971521E0,2.984294176E0,1.724116355E-1
1.874453090E0,3.456861019E0,3.013614893E0,-1.695101149E-2
1.876879027E0,3.327972174E0,3.007506371E0,-2.099787444E-1
1.879304965E0,3.201526880E0,2.962914705E0,-4.060607255E-1
1.881730902E0,3.081189871E0,2.886558771E0,-5.954233408E-1
1.884156840E0,2.966350555E0,2.775384426E0,-7.744016051E-1
1.886582777E0,2.851511478E0,2.641608953E0,-9.417737722E-1
1.889008715E0,2.734839439E0,2.490729809E0,-1.092653036E0
1.891434652E0,2.607707024E0,2.326411724E0,-1.232537031E0
1.893860590E0,2.473931313E0,2.154763699E0,-1.360204101E0
1.896286527E0,2.327327967E0,1.981893897E0,-1.473210931E0
1.898712465E0,2.167896986E0,1.809635043E0,-1.572778940E0
1.901138402E0,1.995638013E0,1.639208674E0,-1.658297539E0
1.903564340E0,1.812994719E0,1.474279881E0,-1.730377555E0
1.905990277E0,1.618134379E0,1.316681266E0,-1.792683959E0
1.908416215E0,1.415333152E0,1.170612454E0,-1.843995214E0
1.910842152E0,1.208255887E0,1.035004377E0,-1.886754513E0
1.913268090E0,9.914051294E-1,9.152782559E-1,-1.921572804E0
1.915694027E0,7.727217674E-1,8.089908361E-1,-1.945395827E0
1.918119965E0,5.491516590E-1,7.173637748E-1,-1.960667014E0
1.920545902E0,3.231382072E-1,6.440621018E-1,-1.966775417E0
1.922971788E0,9.529217333E-2,5.811448097E-1,-1.964942932E0
1.925397725E0,-1.356844455E-1,5.273902416E-1,-1.958223581E0
1.927823663E0,-3.629196286E-1,4.809658527E-1,-1.947839141E0
1.930249600E0,-5.840463638E-1,4.375956953E-1,-1.933789730E0
1.932675538E0,-8.008971214E-1,3.978906274E-1,-1.921572804E0
1.935101475E0,-1.012250304E0,3.600181043E-1,-1.914853454E0
1.937527413E0,-1.221770883E0,3.251998127E-1,-1.911799192E0
1.939953350E0,-1.428848147E0,2.861055732E-1,-1.919740200E0
1.942379288E0,-1.640201211E0,2.402920425E-1,-1.937454820E0
1.944805225E0,-1.852776051E0,1.883700192E-1,-1.962499499E0
1.947231163E0,-2.072070360E0,1.248419061E-1,-1.993041873E0
1.949657100E0,-2.297472954E0,5.276193097E-2,-2.023584366E0
1.952083038E0,-2.525318861E0,-3.031329438E-2,-2.048018217E0
1.954508975E0,-2.756906509E0,-1.274380088E-1,-2.061456680E0
1.956934913E0,-2.989639282E0,-2.398339063E-1,-2.060845852E0
1.959360850E0,-3.220539570E0,-3.656684458E-1,-2.045574665E0
1.961786788E0,-3.445331335E0,-5.024982095E-1,-2.014421463E0
1.964212725E0,-3.659127712E0,-6.454364657E-1,-1.969218850E0
1.966638611E0,-3.857042313E0,-7.944832444E-1,-1.909966707E0
1.969064600E0,-4.040907383E0,-9.490275979E-1,-1.840330124E0
1.971490486E0,-4.206447124E0,-1.106626153E0,-1.762141585E0
1.973916423E0,-4.351217747E0,-1.267279029E0,-1.676622987E0
1.976342361E0,-4.477052212E0,-1.431596875E0,-1.588050127E0
1.978768298E0,-4.577842236E0,-1.599045396E0,-1.498866439E0
1.981194236E0,-4.657252312E0,-1.765806675E0,-1.406017661E0
1.983620173E0,-4.709784985E0,-1.928292036E0,-1.308282137E0
1.986046111E0,-4.736662388E0,-2.085890770E0,-1.201383829E0
1.988472048E0,-4.733608246E0,-2.242267609E0,-1.082879424E0
1.990897986E0,-4.698789597E0,-2.394979477E0,-9.539906979E-1
1.993323923E0,-4.634650707E0,-2.541582823E0,-8.159392476E-1
1.995749861E0,-4.538747787E0,-2.682688475E0,-6.681141853E-1
1.998175798E0,-4.409859180E0,-2.817074776E0,-5.123481154E-1
2.000601736E0,-4.247984409E0,-2.939244270E0,-3.510844707E-1
2.003027673E0,-4.051291943E0,-3.045531750E0,-1.849340051E-1
2.005453611E0,-3.824667454E0,-3.134104490E0,-1.939439960E-2
2.007879548E0,-3.569333315E0,-3.203741074E0,1.437018216E-1
2.010305486E0,-3.281624079E0,-3.245278835E0,3.037438095E-1
2.012731423E0,-2.963983536E0,-3.250165462E0,4.589753449E-1
2.015157309E0,-2.614502668E0,-3.208627939E0,6.110763550E-1
2.017583246E0,-2.233944893E0,-3.112725019E0,7.625664473E-1
2.020009184E0,-1.821012020E0,-2.964899778E0,9.116131663E-1
2.022435121E0,-1.384256244E0,-2.755990028E0,1.058827400E0
2.024861059E0,-9.242882729E-1,-2.490271568E0,1.207263231E0
2.027286996E0,-4.508816302E-1,-2.180572033E0,1.352034092E0
2.029712934E0,2.496838197E-2,-1.837275863E0,1.496804833E0
2.032138871E0,4.892886579E-1,-1.475654244E0,1.645240784E0
2.034564809E0,9.345963001E-1,-1.104182720E0,1.793065786E0
2.036990746E0,1.346307397E0,-7.327876687E-1,1.930506349E0
2.039416684E0,1.715259075E0,-3.699443638E-1,2.049621582E0
2.041842621E0,2.031677961E0,-3.275668249E-2,2.144302845E0
2.044268559E0,2.298007488E0,2.793862522E-1,2.211496115E0
2.046694496E0,2.516079903E0,5.713712573E-1,2.248757839E0
2.049120434E0,2.695058107E0,8.486959338E-1,2.264639854E0
2.051546371E0,2.839905262E0,1.119301200E0,2.260974884E0
2.053972309E0,2.956577063E0,1.383263588E0,2.243260145E0
2.056398246E0,3.046982527E0,1.641651988E0,2.214550495E0
2.058824184E0,3.112343073E0,1.892710209E0,2.177899599E0
2.061250121E0,3.151437283E0,2.129719019E0,2.132696867E0
2.063676006E0,3.167930126E0,2.352678299E0,2.079553127E0
2.066101944E0,3.163043499E0,2.561588049E0,2.022133589E0
2.068527881E0,3.142274618E0,2.748507261E0,1.959216237E0
2.070953819E0,3.108067274E0,2.909160137E0,1.885303736E0
2.073379756E0,3.070194721E0,3.034383774E0,1.794287443E0
2.075805694E0,3.024381161E0,3.126010895E0,1.695941091E0
2.078231631E0,2.979178429E0,3.183430433E0,1.585988522E0
2.080657569E0,2.937640905E0,3.216416359E0,1.465040803E0
2.083083506E0,2.893659830E0,3.220081329E0,1.334319472E0
2.085509444E0,2.851511478E0,3.194425821E0,1.189548731E0
2.087935381E0,2.811195374E0,3.131508589E0,1.032560945E0
2.090361319E0,2.771490335E0,3.029496908E0,8.633562326E-1
2.092787256E0,2.734228611E0,2.898164749E0,6.801020503E-1
2.095213194E0,2.699334145E0,2.734457731E0,4.876851737E-1
2.097639131E0,2.668791771E0,2.546927691E0,2.884726226E-1
2.100065069E0,2.637027502E0,2.344126463E0,7.834116369E-2
2.102491006E0,2.604041815E0,2.133994818E0,-1.354553849E-1
2.104916944E0,2.565558434E0,1.923863411E0,-3.523061574E-1
2.107342881E0,2.520355701E0,1.718007922E0,-5.734328628E-1
2.109768767E0,2.462325335E0,1.515817523E0,-7.921161652E-1
2.112194704E0,2.392688751E0,1.315459609E0,-1.012021184E0
2.114620642E0,2.309002638E0,1.122355461E0,-1.230704546E0
2.117046579E0,2.211266994E0,9.348253608E-1,-1.448166132E0
2.119472517E0,2.098260403E0,7.564579844E-1,-1.663184404E0
2.121898454E0,1.969371557E0,5.951942801E-1,-1.875148416E0
2.124324392E0,1.823989868E0,4.553102851E-1,-2.082225561E0
2.126750329E0,1.660893679E0,3.392492831E-1,-2.278307676E0
2.129176267E0,1.486802220E0,2.464005202E-1,-2.462249041E0
2.131602204E0,1.299883008E0,1.688229144E-1,-2.631453753E0
2.134028142E0,1.106244445E0,1.046839505E-1,-2.787219763E0
2.136454079E0,9.040539265E-1,4.909684882E-2,-2.930157900E0
2.138880017E0,7.000309825E-1,2.290677221E-4,-3.059046745E0
2.141305954E0,4.935645759E-1,-4.375193641E-2,-3.175107718E0
2.143731892E0,2.907632887E-1,-8.467870206E-2,-3.283227682E0
2.146157829E0,8.674030751E-2,-1.207186878E-1,-3.382184982E0
2.148583767E0,-1.118614078E-1,-1.604237556E-1,-3.475644588E0
2.151009704E0,-3.109976053E-1,-1.989071369E-1,-3.568493366E0
2.153435642E0,-5.076904297E-1,-2.441098392E-1,-3.660120487E0
2.155861527E0,-7.013289928E-1,-2.923667729E-1,-3.756634235E0
2.158287465E0,-8.968001604E-1,-3.412345648E-1,-3.862310886E0
2.160713402E0,-1.096547127E0,-3.864372373E-1,-3.980204344E0
2.163139340E0,-1.303013563E0,-4.218663871E-1,-4.108482361E0
2.165565277E0,-1.514977574E0,-4.438568950E-1,-4.244701385E0
2.167991215E0,-1.736715078E0,-4.481328130E-1,-4.388861179E0
2.170417152E0,-1.967004538E0,-4.353050292E-1,-4.528745174E0
2.172843090E0,-2.200348139E0,-4.041518271E-1,-4.666796684E0
2.175269027E0,-2.441632748E0,-3.638359010E-1,-4.797518253E0
2.177694965E0,-2.687269688E0,-3.161898255E-1,-4.924574375E0
2.180120902E0,-2.932830334E0,-2.667111754E-1,-5.044987679E0
2.182546840E0,-3.171060801E0,-2.215084881E-1,-5.158605099E0
2.184972777E0,-3.399517775E0,-1.811925620E-1,-5.258783817E0
2.187398715E0,-3.610260010E0,-1.494285166E-1,-5.345524311E0
2.189824652E0,-3.794125080E0,-1.237729266E-1,-5.412717342E0
2.192250590E0,-3.946226120E0,-1.115559787E-1,-5.458530903E0
2.194676527E0,-4.067784786E0,-1.054475084E-1,-5.479910851E0
2.197102465E0,-4.152692318E0,-1.072800532E-1,-5.481132507E0
2.199528350E0,-4.202781677E0,-1.225512326E-1,-5.459141731E0
2.201954288E0,-4.218663692E0,-1.469851285E-1,-5.413939476E0
2.204380225E0,-4.197284222E0,-1.805817187E-1,-5.346745968E0
2.206806163E0,-4.135588646E0,-2.233410329E-1,-5.250843048E0
2.209232100E0,-4.036020756E0,-2.691545784E-1,-5.123176098E0
2.211658038E0,-3.898579836E0,-3.247416615E-1,-4.960614204E0
2.214083975E0,-3.722656012E0,-3.888806403E-1,-4.763921261E0
2.216509913E0,-3.512524366E0,-4.658474028E-1,-4.526912689E0
2.218935850E0,-3.273072243E0,-5.641937852E-1,-4.243479729E0
2.221361788E0,-3.007964611E0,-6.839198470E-1,-3.913011074E0
2.223787725E0,-2.720866442E0,-8.244147301E-1,-3.540394306E0
2.226213663E0,-2.417809725E0,-9.850675464E-1,-3.126240015E0
2.228639600E0,-2.103834391E0,-1.157326460E0,-2.676656246E0
2.231065538E0,-1.785582900E0,-1.333861351E0,-2.199508190E0
2.233491475E0,-1.464277267E0,-1.506807446E0,-1.700446010E0
2.235917413E0,-1.147247553E0,-1.661351800E0,-1.186112642E0
2.238343350E0,-8.375479579E-1,-1.791462302E0,-6.632274389E-1
2.240769288E0,-5.357894301E-1,-1.886143565E0,-1.378987730E-1
2.243195225E0,-2.425827235E-1,-1.937454820E0,3.862845302E-1
2.245621163E0,4.031591862E-2,-1.940509081E0,9.048938751E-1
2.248047100E0,3.115321100E-1,-1.894084692E0,1.417394757E0
2.250472986E0,5.656445622E-1,-1.800624967E0,1.920732856E0
2.252898923E0,8.063184023E-1,-1.657075882E0,2.417962551E0
2.255324861E0,1.024390817E0,-1.475654244E0,2.913970470E0
2.257750798E0,1.216807723E0,-1.265446424E0,3.407000542E0
2.260176736E0,1.373184681E0,-1.041265488E0,3.893845797E0
2.262602673E0,1.487413049E0,-8.121978045E-1,4.370917797E0
2.265028611E0,1.558882236E0,-5.904602408E-1,4.833328724E0
2.267454548E0,1.585148692E0,-3.846046925E-1,5.274971485E0
2.269880486E0,1.569266558E0,-2.044047713E-1,5.688515186E0
2.272306423E0,1.516122937E0,-5.719057471E-2,6.069149494E0
2.274732361E0,1.441599488E0,5.092938989E-2,6.400839329E0
2.277158298E0,1.349361539E0,1.230093688E-1,6.671444893E0
2.279584236E0,1.251015186E0,1.730988473E-1,6.876078606E0
2.282010173E0,1.154501319E0,2.066954374E-1,7.010465145E0
2.284436111E0,1.065928459E0,2.341835648E-1,7.077047348E0
2.286862048E0,9.883508682E-1,2.610608339E-1,7.075214863E0
2.289287986E0,9.248227477E-1,2.916032076E-1,7.019016743E0
2.291713923E0,8.741224408E-1,3.264214993E-1,6.912729263E0
2.294139809E0,8.399149776E-1,3.636831939E-1,6.768569469E0
2.296565746E0,8.246437907E-1,4.009448588E-1,6.585315228E0
2.298991684E0,8.258655071E-1,4.382065535E-1,6.376405239E0
2.301417621E0,8.478559852E-1,4.791333079E-1,6.148559570E0
2.303843559E0,8.838959932E-1,5.237251520E-1,5.908496380E0
2.306269496E0,9.376505613E-1,5.793122649E-1,5.661026955E0
2.308695434E0,1.004843712E0,6.422295570E-1,5.410579681E0
2.311121371E0,1.083032131E0,7.094227076E-1,5.159521580E0
2.313547309E0,1.168550849E0,7.747833729E-1,4.913350105E0
2.315973246E0,1.257123709E0,8.346464038E-1,4.662291527E0
2.318399184E0,1.349972486E0,8.865684271E-1,4.410622597E0
2.320825121E0,1.444042921E0,9.274951816E-1,4.153455734E0
2.323251059E0,1.537502527E0,9.555941820E-1,3.889569998E0
2.325676996E0,1.627907991E0,9.757521152E-1,3.618353844E0
2.328102934E0,1.713426590E0,9.885799289E-1,3.337974787E0
2.330528871E0,1.796501756E0,9.898016453E-1,3.045989752E0
2.332954809E0,1.872857690E0,9.751412868E-1,2.739268064E0
2.335380694E0,1.943715930E0,9.433772564E-1,2.414297342E0
2.337806684E0,2.009076595E0,8.957311511E-1,2.071612120E0
2.340232621E0,2.064663649E0,8.322030306E-1,1.709990501E0
2.342658506E0,2.111088037E0,7.601230741E-1,1.331876040E0
2.345084444E0,2.148960590E0,6.819345951E-1,9.433772564E-1
2.347510381E0,2.172172785E0,5.903075337E-1,5.463265181E-1
2.349936319E0,2.180724621E0,4.834092557E-1,1.467560530E-1
2.352362256E0,2.173394442E0,3.673482835E-1,-2.509055138E-1
2.354788194E0,2.145906448E0,2.439571172E-1,-6.400152445E-1
2.357214131E0,2.103757858E0,1.181225851E-1,-1.020573020E0
2.359640069E0,2.038397312E0,-1.015533600E-2,-1.387081385E0
2.362066006E0,1.952878714E0,-1.341573298E-1,-1.740761995E0
2.364491944E0,1.847202063E0,-2.526617050E-1,-2.075506210E0
2.366917881E0,1.722589254E0,-3.601708114E-1,-2.392612457E0
2.369343819E0,1.579650998E0,-4.511870444E-1,-2.691316605E0
2.371769756E0,1.420830727E0,-5.214344859E-1,-2.971695662E0
2.374195694E0,1.247350097E0,-5.733565092E-1,-3.236192465E0
2.376621631E0,1.059209108E0,-6.081748009E-1,-3.482974768E0
2.379047569E0,8.533536196E-1,-6.240568161E-1,-3.715707541E0
2.381473506E0,6.365028620E-1,-6.246677041E-1,-3.934390783E0
2.383899392E0,4.037700295E-1,-6.124507189E-1,-4.147576332E0
2.386325329E0,1.594311297E-1,-5.861843228E-1,-4.354043007E0
2.388751267E0,-1.014770046E-1,-5.434249640E-1,-4.559287548E0
2.391177204E0,-3.781908154E-1,-4.847836494E-1,-4.766364574E0
2.393603142E0,-6.677324176E-1,-4.035409689E-1,-4.975885391E0
2.396029079E0,-9.737668633E-1,-3.021403253E-1,-5.187925816E0
2.398455017E0,-1.298737645E0,-1.811925620E-1,-5.398668289E0
2.400880954E0,-1.638368726E0,-4.497363046E-2,-5.602691174E0
2.403306892E0,-1.992660165E0,1.022405624E-1,-5.798161983E0
2.405732829E0,-2.358557701E0,2.555632293E-1,-5.980805397E0
2.408158767E0,-2.730639935E0,4.094967246E-1,-6.151231766E0
2.410584704E0,-3.100813389E0,5.609868765E-1,-6.308219433E0
2.413010642E0,-3.465489149E0,7.002600431E-1,-6.448103428E0
2.415436579E0,-3.810617924E0,8.248728514E-1,-6.576381683E0
2.417862517E0,-4.125814915E0,9.336037040E-1,-6.690609932E0
2.420288454E0,-4.398863792E0,1.024619937E0,-6.783458710E0
2.422714392E0,-4.615714550E0,1.093034863E0,-6.851263046E0
2.425140329E0,-4.769648075E0,1.124188066E0,-6.885470390E0
2.427566267E0,-4.858221054E0,1.105862617E0,-6.878750801E0
2.429992152E0,-4.876546383E0,1.024009109E0,-6.823163986E0
2.432418090E0,-4.835619450E0,8.682430387E-1,-6.708935261E0
2.434844027E0,-4.730554104E0,6.330668330E-1,-6.532400608E0
2.437269965E0,-4.570511818E0,3.264214993E-1,-6.283174992E0
2.439695902E0,-4.362213135E0,-3.031329438E-2,-5.960647583E0
2.442121840E0,-4.105046272E0,-4.224772453E-1,-5.560542583E0
2.444547777E0,-3.805731058E0,-8.225821853E-1,-5.079805851E0
2.446973715E0,-3.461213350E0,-1.206805110E0,-4.518971443E0
2.449399652E0,-3.072714329E0,-1.566059709E0,-3.883079767E0
2.451825590E0,-2.645121336E0,-1.899582267E0,-3.181827068E0
2.454251527E0,-2.180801153E0,-2.217833757E0,-2.434760809E0
2.456677465E0,-1.686625600E0,-2.521424770E0,-1.655854225E0
2.459103402E0,-1.172292233E0,-2.808522940E0,-8.605310917E-1
2.461529340E0,-6.414659619E-1,-3.070576429E0,-6.154286116E-2
2.463955277E0,-1.106397063E-1,-3.300865889E0,7.289698720E-1
2.466381215E0,4.172086716E-1,-3.491450310E0,1.499859095E0
2.468807152E0,9.260444641E-1,-3.631945133E0,2.240816832E0
2.471233090E0,1.403727055E0,-3.727848053E0,2.951232195E0
2.473659027E0,1.835595965E0,-3.782213449E0,3.625684023E0
2.476084965E0,2.212488890E0,-3.799317122E0,4.257299900E0
2.478510850E0,2.529518604E0,-3.781602621E0,4.841880798E0
2.480936788E0,2.784318209E0,-3.726015568E0,5.375761509E0
2.483362725E0,2.976735115E0,-3.637442827E0,5.857185364E0
2.485788663E0,3.114175797E0,-3.509775639E0,6.281723976E0
2.488214600E0,3.190531492E0,-3.354620457E0,6.642735004E0
2.490640538E0,3.207635403E0,-3.167701244E0,6.931665421E0
2.493066475E0,3.166708469E0,-2.949017763E0,7.147294521E0
2.495492413E0,3.068362236E0,-2.705289841E0,7.293898106E0
2.497918350E0,2.913817883E0,-2.437738657E0,7.373919010E0
2.500344288E0,2.716514111E0,-2.138423443E0,7.391633511E0
2.502770225E0,2.481261492E0,-1.807344317E0,7.359258652E0
2.505196163E0,2.216153860E0,-1.448089838E0,7.279237747E0
2.507622100E0,1.936996698E0,-1.066921115E0,7.161954880E0
2.510048038E0,1.653563499E0,-6.680378318E-1,7.014130116E0
2.512473975E0,1.366465330E0,-2.618243992E-1,6.836373329E0
2.514899913E0,1.083643079E0,1.407239437E-1,6.643345833E0
2.517325850E0,8.099834919E-1,5.371637940E-1,6.439322948E0
2.519751788E0,5.509842038E-1,9.183325171E-1,6.235910416E0
2.522177725E0,3.096995652E-1,1.282473803E0,6.039217949E0
2.524603611E0,9.040539712E-2,1.620883226E0,5.851687908E0
2.527029548E0,-1.069746241E-1,1.936691284E0,5.678741455E0
2.529455486E0,-2.749576271E-1,2.221346140E0,5.523586273E0
2.531881423E0,-4.142307937E-1,2.476680279E0,5.378815651E0
2.534307361E0,-5.309026241E-1,2.706358671E0,5.243207455E0
2.536733298E0,-6.188646555E-1,2.907938480E0,5.110042572E0
2.539159236E0,-6.768951416E-1,3.079586506E0,4.973213196E0
2.541585173E0,-7.104917169E-1,3.217638016E0,4.823555470E0
2.544011111E0,-7.147676349E-1,3.317206144E0,4.654350758E0
2.546437048E0,-6.939988136E-1,3.375847340E0,4.460711956E0
2.548862986E0,-6.420768499E-1,3.391729355E0,4.234698772E0
2.551288923E0,-5.596124530E-1,3.369127989E0,3.969590902E0
2.553714861E0,-4.429406226E-1,3.314762592E0,3.662334681E0
2.556140798E0,-2.902288139E-1,3.227411509E0,3.311097622E0
2.558566736E0,-9.964445978E-2,3.116848230E0,2.919468164E0
2.560992673E0,1.191152185E-1,2.987959385E0,2.489431620E0
2.563418611E0,3.634541333E-1,2.848686218E0,2.025798559E0
2.565844548E0,6.285618544E-1,2.700861216E0,1.532844782E0
2.568270434E0,9.089407325E-1,2.542651653E0,1.019122243E0
2.570696371E0,1.199704051E0,2.372225285E0,4.913502634E-1
2.573122309E0,1.491688967E0,2.187138557E0,-3.955236077E-2
2.575548246E0,1.776343822E0,1.986169815E0,-5.654918551E-1
2.577974184E0,2.052446842E0,1.768708229E0,-1.082268596E0
2.580400121E0,2.306559324E0,1.528645277E0,-1.579498291E0
2.582826059E0,2.531351089E0,1.266591787E0,-2.056570053E0
2.585251996E0,2.722622633E0,9.867473841E-1,-2.509895086E0
2.587677934E0,2.880831957E0,7.057576776E-1,-2.938098907E0
2.590103871E0,3.006055832E0,4.406499267E-1,-3.338203907E0
2.592529809E0,3.099515438E0,2.036412060E-1,-3.715096712E0
2.594955746E0,3.156324148E0,3.894151188E-3,-4.070609570E0
2.597381684E0,3.180757999E0,-1.494285166E-1,-4.402299881E0
2.599807621E0,3.171595335E0,-2.599918544E-1,-4.710777760E0
2.602233559E0,3.125781775E0,-3.314609826E-1,-4.997341633E0
2.604659496E0,3.040874004E0,-3.681118190E-1,-5.265503407E0
2.607085434E0,2.915650368E0,-3.729985952E-1,-5.518393993E0
2.609511319E0,2.751332521E0,-3.418453932E-1,-5.765787125E0
2.611937256E0,2.548454762E0,-2.813715041E-1,-6.007071972E0
2.614363194E0,2.309002638E0,-1.915769726E-1,-6.244080544E0
2.616789131E0,2.028623819E0,-7.857023180E-2,-6.467650890E0
2.619215069E0,1.712204814E0,5.642701685E-2,-6.681447506E0
2.621641006E0,1.361578584E0,2.066954374E-1,-6.880583763E0
2.624066944E0,9.779664874E-1,3.630723357E-1,-7.069946289E0
2.626492881E0,5.674771070E-1,5.249468684E-1,-7.250145912E0
2.628918819E0,1.447708011E-1,6.843779683E-1,-7.417518139E0
2.631344756E0,-2.810660899E-1,8.407548666E-1,-7.567786694E0
2.633770694E0,-6.964422464E-1,9.898016453E-1,-7.697973728E0
2.636196631E0,-1.088606119E0,1.123577118E0,-7.802428246E0
2.638622569E0,-1.445951819E0,1.234216928E0,-7.873286724E0
2.641048506E0,-1.764203191E0,1.311183691E0,-7.906272411E0
2.643474444E0,-2.036641121E0,1.334395885E0,-7.894055367E0
2.645900381E0,-2.259600401E0,1.298355818E0,-7.834192276E0
2.648326319E0,-2.431248426E0,1.191992044E0,-7.723628998E0
2.650752256E0,-2.550974607E0,1.019122243E0,-7.563510895E0
2.653178142E0,-2.617556810E0,7.833352685E-1,-7.353379250E0
2.655604079E0,-2.631606340E0,4.797441661E-1,-7.088882446E0
2.658030017E0,-2.596177101E0,1.138466597E-1,-6.763911724E0
2.660455954E0,-2.511269331E0,-3.100813329E-1,-6.371137142E0
2.662881892E0,-2.382991552E0,-7.798228860E-1,-5.904449463E0
2.665307829E0,-2.219284534E0,-1.277052522E0,-5.355908871E0
2.667733767E0,-2.015872240E0,-1.785353780E0,-4.732768059E0
2.670159704E0,-1.770922542E0,-2.287470341E0,-4.040067196E0
2.672585642E0,-1.481991768E0,-2.773704767E0,-3.283838511E0
2.675011579E0,-1.142971635E0,-3.230007648E0,-2.479352713E0
2.677437517E0,-7.520293593E-1,-3.641718626E0,-1.639972210E0
2.679863454E0,-3.134410083E-1,-3.997231722E0,-7.890619636E-1
2.682289392E0,1.685938388E-1,-4.294790745E0,6.184828654E-2
2.684715329E0,6.872031689E-1,-4.526912689E0,8.975636959E-1
2.687141267E0,1.229635477E0,-4.694895744E0,1.708158016E0
2.689567204E0,1.781230569E0,-4.811567307E0,2.480879784E0
2.691993142E0,2.324273825E0,-4.879982471E0,3.215194464E0
2.694419079E0,2.848457098E0,-4.907470703E0,3.903008461E0
2.696845017E0,3.333469868E0,-4.900140285E0,4.543176651E0
2.699270954E0,3.765949726E0,-4.867765427E0,5.129590034E0
2.701696840E0,4.136123180E0,-4.820730209E0,5.659194469E0
2.704122777E0,4.445211887E0,-4.757812977E0,6.132677555E0
2.706548715E0,4.695659161E0,-4.682678699E0,6.549275398E0
2.708974652E0,4.895406246E0,-4.593494892E0,6.910285950E0
2.711400590E0,5.039566040E0,-4.503089428E0,7.208990097E0
2.713826527E0,5.132414818E0,-4.407186508E0,7.438057899E0
2.716252465E0,5.175174236E0,-4.300899029E0,7.590158939E0
2.718678402E0,5.167233467E0,-4.181173325E0,7.675677776E0
2.721104340E0,5.114089489E0,-4.044267178E0,7.699500561E0
2.723530277E0,5.018797398E0,-3.881781578E0,7.668347359E0
2.725956215E0,4.881356716E0,-3.691808224E0,7.589548111E0
2.728382152E0,4.712152004E0,-3.471292257E0,7.470432758E0
2.730808090E0,4.514237404E0,-3.217790604E0,7.317720890E0
2.733234027E0,4.293110847E0,-2.923973083E0,7.141186237E0
2.735659965E0,4.056713104E0,-2.591061354E0,6.945714951E0
2.738085902E0,3.808708906E0,-2.218444586E0,6.734972954E0
2.740511840E0,3.552153111E0,-1.810398579E0,6.516900539E0
2.742937777E0,3.287045479E0,-1.369290471E0,6.289054394E0
2.745363663E0,3.020105124E0,-9.087116718E-1,6.056321621E0
2.747789600E0,2.753165007E0,-4.420243502E-1,5.821756363E0
2.750215538E0,2.489202499E0,2.221956849E-2,5.584671021E0
2.752641475E0,2.229592562E0,4.724139869E-1,5.352549076E0
2.755067413E0,1.974869132E0,8.981745243E-1,5.119205475E0
2.757493350E0,1.724421859E0,1.300188422E0,4.886472702E0
2.759919288E0,1.482526302E0,1.677692056E0,4.645798683E0
2.762345225E0,1.248571754E0,2.025874853E0,4.391075611E0
2.764771163E0,1.028055906E0,2.341682911E0,4.111918449E0
2.767197100E0,8.246437907E-1,2.622672796E0,3.808938026E0
2.769623038E0,6.377245188E-1,2.869455099E0,3.479080677E0
2.772048975E0,4.740174711E-1,3.086305857E0,3.124178410E0
2.774474913E0,3.347443044E-1,3.268949032E0,2.746598244E0
2.776900850E0,2.192941606E-1,3.415552378E0,2.353212595E0
2.779326788E0,1.294996142E-1,3.521839857E0,1.948220968E0
2.781752725E0,6.352811307E-2,3.584146261E0,1.536509871E0
2.784178663E0,2.252499200E-2,3.605525970E0,1.119912148E0
2.786604548E0,2.367033157E-3,3.582924604E0,7.033142447E-1
2.789030486E0,3.588727675E-3,3.513898849E0,2.890834510E-1
2.791456423E0,2.435753495E-2,3.400281191E0,-1.189625040E-1
2.793882361E0,6.597150117E-2,3.243904352E0,-5.166240931E-1
2.796308298E0,1.215586066E-1,3.052098274E0,-9.045121074E-1
2.798734236E0,1.930277348E-1,2.829749823E0,-1.281404853E0
2.801160173E0,2.736595869E-1,2.581745863E0,-1.648524046E0
2.803586111E0,3.603998721E-1,2.307475567E0,-2.002204657E0
2.806012048E0,4.440859556E-1,2.013658047E0,-2.348020554E0
2.808437986E0,5.222744346E-1,1.706401825E0,-2.676656246E0
2.810863923E0,5.864133835E-1,1.394258857E0,-2.994296789E0
2.813289861E0,6.328377724E-1,1.087537169E0,-3.296666384E0
2.815715798E0,6.597150564E-1,8.004390001E-1,-3.590483904E0
2.818141736E0,6.639909744E-1,5.420506001E-1,-3.873916864E0
2.820567673E0,6.407787800E-1,3.276431859E-1,-4.148797989E0
2.822993611E0,5.906893015E-1,1.566059589E-1,-4.412684441E0
2.825419548E0,5.088357925E-1,3.443651274E-2,-4.656412125E0
2.827845486E0,3.958290219E-1,-4.008685052E-2,-4.887312412E0
2.830271371E0,2.480039895E-1,-7.734853774E-2,-5.098742008E0
2.832697309E0,6.841489673E-2,-7.368344814E-2,-5.293602467E0
2.835123246E0,-1.442363113E-1,-3.886515647E-2,-5.470747948E0
2.837549184E0,-3.891860545E-1,1.916533336E-2,-5.634455204E0
2.839975121E0,-6.604022384E-1,9.674293548E-2,-5.785945415E0
2.842401059E0,-9.542197585E-1,1.834832430E-1,-5.927661896E0
2.844826996E0,-1.263308525E0,2.781645656E-1,-6.063270092E0
2.847252934E0,-1.578505635E0,3.765109777E-1,-6.186050415E0
2.849678871E0,-1.890648603E0,4.748573899E-1,-6.296613693E0
2.852104809E0,-2.186298609E0,5.695387125E-1,-6.386408329E0
2.854530746E0,-2.458736658E0,6.538356543E-1,-6.454212189E0
2.856956684E0,-2.700708389E0,7.253047824E-1,-6.494528294E0
2.859382621E0,-2.909007311E0,7.760050893E-1,-6.506744862E0
2.861808559E0,-3.081266403E0,7.955521941E-1,-6.488419533E0
2.864234496E0,-3.213820219E0,7.821135521E-1,-6.435886860E0
2.866660434E0,-3.303614616E0,7.350783348E-1,-6.346703053E0
2.869086371E0,-3.346984863E0,6.458946466E-1,-6.215370655E0
2.871512309E0,-3.345152378E0,5.212817788E-1,-6.040057659E0
2.873938194E0,-3.297506332E0,3.594072461E-1,-5.816487789E0
2.876364131E0,-3.206490040E0,1.559951156E-1,-5.544049740E0
2.878790069E0,-3.074547052E0,-9.261971712E-2,-5.212359428E0
2.881216006E0,-2.906563997E0,-3.705552220E-1,-4.817676067E0
2.883641944E0,-2.706816912E0,-6.674270034E-1,-4.353432178E0
2.886067881E0,-2.477061987E0,-9.740723372E-1,-3.820162296E0
2.888493819E0,-2.215619326E0,-1.280717611E0,-3.212980270E0
2.890919756E0,-1.921801805E0,-1.583774209E0,-2.536772251E0
2.893345694E0,-1.593165994E0,-1.881256819E0,-1.796349049E0
2.895771631E0,-1.234598637E0,-2.168965816E0,-1.004691005E0
2.898197569E0,-8.460997939E-1,-2.443236351E0,-1.757712960E-1
2.900623506E0,-4.343887568E-1,-2.705289841E0,6.709393859E-1
2.903049444E0,-1.908897655E-3,-2.948406935E0,1.526736379E0
2.905475381E0,4.459185004E-1,-3.167701244E0,2.374592304E0
2.907901319E0,8.893936276E-1,-3.357674599E0,3.208475113E0
2.910327256E0,1.328592777E0,-3.515273333E0,4.021512985E0
2.912753194E0,1.750688195E0,-3.636220932E0,4.804008484E0
2.915179131E0,2.141630411E0,-3.717463732E0,5.552906990E0
2.917605069E0,2.494700193E0,-3.760222912E0,6.256068707E0
2.920031006E0,2.803254366E0,-3.768774986E0,6.910896778E0
2.922456892E0,3.064697027E0,-3.749838591E0,7.517467976E0
2.924882829E0,3.285823822E0,-3.700360060E0,8.065398216E0
2.927308767E0,3.463580370E0,-3.634999275E0,8.552930832E0
2.929734704E0,3.595523357E0,-3.567806244E0,8.965863228E0
2.932160642E0,3.681041956E0,-3.510386467E0,9.292056084E0
2.934586579E0,3.723801136E0,-3.468238115E0,9.529675484E0
2.937012517E0,3.721357822E0,-3.442582369E0,9.668948174E0
2.939438454E0,3.679820299E0,-3.432808876E0,9.712318420E0
2.941864392E0,3.599188328E0,-3.436474085E0,9.657953262E0
2.944290329E0,3.481905699E0,-3.448690891E0,9.510128021E0
2.946716267E0,3.332248211E0,-3.446247578E0,9.266400337E0
2.949142204E0,3.158767462E0,-3.409596682E0,8.938375473E0
2.951568142E0,2.973680735E0,-3.326521397E0,8.540713310E0
2.953994079E0,2.786761522E0,-3.172587872E0,8.092885971E0
2.956420017E0,2.605263472E0,-2.938022614E0,7.609705925E0
2.958845954E0,2.433615446E0,-2.627101421E0,7.105146408E0
2.961271892E0,2.268686771E0,-2.264258146E0,6.601808071E0
2.963697829E0,2.110477209E0,-1.870872498E0,6.111297607E0
2.966123715E0,1.951656938E0,-1.469545841E0,5.651864052E0
2.968549652E0,1.786117435E0,-1.087689877E0,5.227325439E0
2.970975590E0,1.610804200E0,-7.352310419E-1,4.838826656E0
2.973401527E0,1.426328301E0,-4.145362079E-1,4.486978531E0
2.975827465E0,1.240019917E0,-1.176644564E-1,4.157121181E0
2.978253402E0,1.053711534E0,1.627144367E-1,3.842534781E0
2.980679340E0,8.735115528E-1,4.351523221E-1,3.538943529E0
2.983105277E0,7.024743557E-1,7.008708715E-1,3.242682695E0
2.985531215E0,5.430431962E-1,9.598701000E-1,2.943902016E0
2.987957152E0,3.982724249E-1,1.216502309E0,2.645808458E0
2.990383090E0,2.626643181E-1,1.457787037E0,2.336719751E0
2.992809027E0,1.386623234E-1,1.678302884E0,2.019079208E0
2.995234965E0,2.313583903E-2,1.867665529E0,1.689832568E0
2.997660902E0,-8.192989230E-2,2.020988226E0,1.345925570E0
3.000086840E0,-1.735569835E-1,2.130329847E0,9.916341901E-1
3.002512725E0,-2.541888058E-1,2.196912050E0,6.306234598E-1
3.004938715E0,-3.232145607E-1,2.215237617E0,2.640387416E-1
3.007364600E0,-3.818559051E-1,2.186527729E0,-1.043021679E-1
3.009790538E0,-4.233935177E-1,2.115058661E0,-4.701996744E-1
3.012216475E0,-4.588226378E-1,2.009382010E0,-8.342646360E-1
3.014642413E0,-4.814240038E-1,1.879882455E0,-1.195275426E0
3.017068350E0,-4.991385639E-1,1.732057452E0,-1.548345089E0
3.019494288E0,-5.119663477E-1,1.575680494E0,-1.895306349E0
3.021920225E0,-5.211290717E-1,1.417471051E0,-2.231272221E0
3.024346163E0,-5.296809077E-1,1.261094213E0,-2.556319475E0
3.026772100E0,-5.431195498E-1,1.119912148E0,-2.870294809E0
3.029198038E0,-5.620558262E-1,9.977426529E-1,-3.169610023E0
3.031623975E0,-5.901548266E-1,8.969528675E-1,-3.452432394E0
3.034049913E0,-6.286382079E-1,8.254837394E-1,-3.723037720E0
3.036475850E0,-6.781167984E-1,7.815027237E-1,-3.973484993E0
3.038901788E0,-7.416449189E-1,7.643989921E-1,-4.210493565E0
3.041327725E0,-8.167791367E-1,7.796701789E-1,-4.433453083E0
3.043753611E0,-9.077953696E-1,8.230403066E-1,-4.647249699E0
3.046179600E0,-1.013471961E0,8.993962407E-1,-4.857380867E0
3.048605486E0,-1.133198023E0,1.007516146E0,-5.063923836E0
3.051031423E0,-1.263308525E0,1.148011088E0,-5.263670921E0
3.053457361E0,-1.406857610E0,1.316681266E0,-5.458530903E0
3.055883298E0,-1.562623620E0,1.505433083E0,-5.644228458E0
3.058309236E0,-1.729995847E0,1.703958392E0,-5.821985245E0
3.060735173E0,-1.907141447E0,1.909814000E0,-5.989968300E0
3.063161111E0,-2.093449831E0,2.111393452E0,-6.145734310E0
3.065587048E0,-2.290142775E0,2.302588701E0,-6.289894104E0
3.068012986E0,-2.488057137E0,2.479123592E0,-6.426113129E0
3.070438923E0,-2.687880754E0,2.636722088E0,-6.549504280E0
3.072864861E0,-2.880297422E0,2.771108627E0,-6.654570103E0
3.075290798E0,-3.065995216E0,2.876785278E0,-6.743143082E0
3.077716736E0,-3.234588861E0,2.950086832E0,-6.811557770E0
3.080142673E0,-3.383024931E0,2.983072519E0,-6.863479614E0
3.082568611E0,-3.505805016E0,2.970855713E0,-6.897076607E0
3.084994548E0,-3.601097345E0,2.910381794E0,-6.910514832E0
3.087420486E0,-3.662792921E0,2.801040173E0,-6.897076607E0
3.089846423E0,-3.689670086E0,2.644663095E0,-6.852484703E0
3.092272309E0,-3.682950735E0,2.443083525E0,-6.774296284E0
3.094698246E0,-3.643856525E0,2.195690393E0,-6.652737617E0
3.097124184E0,-3.572387457E0,1.907981396E0,-6.485976219E0
3.099550121E0,-3.474040985E0,1.573237062E0,-6.267903805E0
3.101976059E0,-3.351260662E0,1.194435477E0,-6.005239487E0
3.104401996E0,-3.203435659E0,7.772268057E-1,-5.710811138E0
3.106827934E0,-3.043393850E0,3.178696334E-1,-5.371180058E0
3.109253871E0,-2.857696295E0,-1.549261361E-1,-4.967944622E0
3.111679809E0,-2.648786545E0,-6.271110773E-1,-4.496370316E0
3.114105746E0,-2.405592918E0,-1.096852660E0,-3.965543985E0
3.116531684E0,-2.129489899E0,-1.552621007E0,-3.384628296E0
3.118957621E0,-1.816125274E0,-1.982657433E0,-2.764007568E0
3.121383559E0,-1.460612178E0,-2.382762432E0,-2.113989592E0
3.123809496E0,-1.065393925E0,-2.737053871E0,-1.444501042E0
3.126235434E0,-6.316924095E-1,-3.041255713E0,-7.597413063E-1
3.128661371E0,-1.680593491E-1,-3.295979023E0,-7.437065244E-2
3.131087256E0,3.151971996E-1,-3.496947765E0,6.061895490E-1
3.133513246E0,8.105943203E-1,-3.652102947E0,1.276288986E0
3.135939184E0,1.307824016E0,-3.770607471E0,1.928673863E0
3.138365069E0,1.798945189E0,-3.857347727E0,2.565176725E0
3.140791006E0,2.274795294E0,-3.920264959E0,3.179765463E0
3.143216944E0,2.726287603E0,-3.955694199E0,3.767400503E0
3.145642881E0,3.144107103E0,-3.964856863E0,4.326325893E0
3.148068819E0,3.519778252E0,-3.947142363E0,4.852876186E0
3.150494756E0,3.850246668E0,-3.893387794E0,5.347051620E0
3.152920694E0,4.130625725E0,-3.799317122E0,5.800376415E0
3.155346631E0,4.365801811E0,-3.653935671E0,6.212087631E0
3.157772569E0,4.558829308E0,-3.454188585E0,6.584093571E0
3.160198506E0,4.712152004E0,-3.199465275E0,6.909675121E0
3.162624444E0,4.819661140E0,-2.895263195E0,7.179058552E0
3.165050381E0,4.881356716E0,-2.547080278E0,7.392855167E0
3.167476319E0,4.884410858E0,-2.183015347E0,7.532128334E0
3.169902256E0,4.803168297E0,-1.840940952E0,7.586493969E0
3.172328194E0,4.619914055E0,-1.560562015E0,7.546788692E0
3.174754131E0,4.336481094E0,-1.336915612E0,7.418510914E0
3.177180069E0,3.974248648E0,-1.134725094E0,7.215098858E0
3.179605954E0,3.586360693E0,-8.909971118E-1,6.960375309E0
3.182031892E0,3.222906590E0,-5.513660312E-1,6.677553177E0
3.184457829E0,2.911374331E0,-1.158319116E-1,6.383124828E0
3.186883767E0,2.651687860E0,3.923930228E-1,6.072814465E0
3.189309704E0,2.433004618E0,9.293277264E-1,5.746622086E0
3.191735642E0,2.239366055E0,1.440072417E0,5.403249264E0
3.194161579E0,2.057944298E0,1.887212634E0,5.042238712E0
3.196587517E0,1.883852959E0,2.248834133E0,4.671454430E0
3.199013454E0,1.719534993E0,2.525547981E0,4.290285587E0
3.201439392E0,1.569266558E0,2.730792761E0,3.900565147E0
3.203865329E0,1.439156175E0,2.878006935E0,3.500460148E0
3.206291267E0,1.331036210E0,2.972688198E0,3.090581656E0
3.208717204E0,1.255291104E0,3.023388624E0,2.667798996E0
3.211143142E0,1.214364409E0,3.017280102E0,2.234708309E0
3.213569079E0,1.209477544E0,2.951919317E0,1.795509219E0
3.215995017E0,1.242463350E0,2.826084852E0,1.353866577E0
3.218420902E0,1.314543247E0,2.638554811E0,9.128348827E-1
3.220846840E0,1.416554809E0,2.400324345E0,4.827983975E-1
3.223272777E0,1.543611050E0,2.127886534E0,5.879404768E-2
3.225698715E0,1.692046881E0,1.833458066E0,-3.565820754E-1
3.228124652E0,1.856364846E0,1.529256105E0,-7.658497691E-1
3.230550590E0,2.029845476E0,1.228108406E0,-1.165343881E0
3.232976527E0,2.202715158E0,9.427663684E-1,-1.560562015E0
3.235402465E0,2.370087385E0,6.782695055E-1,-1.947839141E0
3.237828402E0,2.524020910E0,4.333197773E-1,-2.331527710E0
3.240254340E0,2.662072420E0,2.115822136E-1,-2.710863829E0
3.242680277E0,2.775766373E0,7.559234742E-3,-3.083480597E0
3.245106215E0,2.860063314E0,-1.836359501E-1,-3.454264879E0
3.247532152E0,2.910152674E0,-3.626142144E-1,-3.815886497E0
3.249958090E0,2.928478003E0,-5.269321203E-1,-4.170177937E0
3.252384027E0,2.914428711E0,-6.759788394E-1,-4.517138958E0
3.254809965E0,2.872280121E0,-8.005917072E-1,-4.858602524E0
3.257235850E0,2.802643538E0,-9.068791270E-1,-5.190979958E0
3.259661840E0,2.708573103E0,-9.917868972E-1,-5.520837307E0
3.262087725E0,2.592435837E0,-1.059590936E0,-5.844586372E0
3.264513663E0,2.448886633E0,-1.116399765E0,-6.161616325E0
3.266939600E0,2.281514406E0,-1.156104803E0,-6.472537518E0
3.269365538E0,2.087875843E0,-1.182371259E0,-6.775517941E0
3.271791475E0,1.869803429E0,-1.195809841E0,-7.071778774E0
3.274217413E0,1.628518820E0,-1.198253274E0,-7.359488010E0
3.276643350E0,1.366465330E0,-1.192144752E0,-7.636812210E0
3.279069288E0,1.083032131E0,-1.173819423E0,-7.903218269E0
3.281495225E0,7.849387527E-1,-1.149996281E0,-8.154887199E0
3.283921163E0,4.764608741E-1,-1.127394915E0,-8.386398315E0
3.286347100E0,1.606528312E-1,-1.106626153E0,-8.599583626E0
3.288773038E0,-1.564532518E-1,-1.090133309E0,-8.791390419E0
3.291198975E0,-4.716504514E-1,-1.086468220E0,-8.965481758E0
3.293624913E0,-7.813500166E-1,-1.095020056E0,-9.118803978E0
3.296050850E0,-1.078221798E0,-1.122508168E0,-9.247081757E0
3.298476788E0,-1.362265706E0,-1.172597647E0,-9.347871780E0
3.300902673E0,-1.630427718E0,-1.247120976E0,-9.421784401E0
3.303328611E0,-1.881485939E0,-1.345467448E0,-9.464543343E0
3.305754548E0,-2.112997055E0,-1.471378326E0,-9.471262932E0
3.308180486E0,-2.326793671E0,-1.621646762E0,-9.438888550E0
3.310606423E0,-2.519821405E0,-1.799403310E0,-9.371084213E0
3.313032361E0,-2.693989038E0,-1.998539567E0,-9.265407562E0
3.315458298E0,-2.843646765E0,-2.215390205E0,-9.120636940E0
3.317884236E0,-2.964594364E0,-2.450566530E0,-8.929441452E0
3.320310173E0,-3.051334858E0,-2.696127176E0,-8.688767433E0
3.322736111E0,-3.102035046E0,-2.956958771E0,-8.394339561E0
3.325162048E0,-3.111197710E0,-3.242224455E0,-8.041269302E0
3.327587986E0,-3.077601194E0,-3.540928841E0,-7.626428127E0
3.330013923E0,-2.993915081E0,-3.837189674E0,-7.135917664E0
3.332439861E0,-2.851587772E0,-4.095578194E0,-6.560499668E0
3.334865798E0,-2.640234470E0,-4.270967484E0,-5.898952007E0
3.337291736E0,-2.346340656E0,-4.333884716E0,-5.148831367E0
3.339717673E0,-1.965171933E0,-4.260583401E0,-4.324111462E0
3.342143611E0,-1.500317216E0,-4.058316708E0,-3.435328722E0
3.344569496E0,-9.639933109E-1,-3.748006105E0,-2.499510527E0
3.346995486E0,-3.702498078E-1,-3.358896255E0,-1.535517335E0
3.349421371E0,2.559449971E-1,-2.927638292E0,-5.599942207E-1
3.351847309E0,8.893936276E-1,-2.475611210E0,4.076641798E-1
3.354273246E0,1.507570982E0,-2.026027679E0,1.356310010E0
3.356699184E0,2.092151880E0,-1.585606813E0,2.272580862E0
3.359125121E0,2.622367382E0,-1.157937288E0,3.155331612E0
3.361551059E0,3.087298393E0,-7.407286763E-1,3.988527060E0
3.363976996E0,3.475186348E0,-3.284067512E-1,4.771633148E0
3.366402934E0,3.786107779E0,7.475243509E-2,5.495487213E0
3.368828871E0,4.031668186E0,4.730248451E-1,6.165663242E0
3.371254809E0,4.213089943E0,8.670213223E-1,6.783229828E0
3.373680746E0,4.327929020E0,1.247655511E0,7.345819950E0
3.376106684E0,4.381683826E0,1.617828965E0,7.857709885E0
3.378532621E0,4.374964237E0,1.966011882E0,8.318900108E0
3.380958559E0,4.305938721E0,2.291593552E0,8.726410866E0
3.383384496E0,4.166665554E0,2.574415684E0,9.073372841E0
3.385810434E0,3.949814796E0,2.792488337E0,9.344588280E0
3.388236319E0,3.661494732E0,2.947643518E0,9.527842522E0
3.390662256E0,3.304149151E0,3.042935610E0,9.623134613E0
3.393088194E0,2.898546696E0,3.092414141E0,9.631075859E0
3.395514131E0,2.467823029E0,3.122345686E0,9.560828209E0
3.397940069E0,2.036564827E0,3.160829067E0,9.415447235E0
3.400366006E0,1.624242902E0,3.219470501E0,9.192487717E0
3.402791944E0,1.241852522E0,3.299491405E0,8.893783569E0
3.405217881E0,8.936695457E-1,3.399059534E0,8.513835907E0
3.407643819E0,5.833591223E-1,3.499849319E0,8.050127029E0
3.410069756E0,3.090887070E-1,3.592698097E0,7.508916378E0
3.412495694E0,7.146912813E-2,3.664778233E0,6.906010151E0
3.414921631E0,-1.240783483E-1,3.711813450E0,6.258512020E0
3.417347569E0,-2.774010003E-1,3.726473808E0,5.595055580E0
3.419773506E0,-3.952945471E-1,3.697153091E0,4.938394547E0
3.422199444E0,-4.734829962E-1,3.609801769E0,4.304945946E0
3.424625381E0,-5.180748105E-1,3.461976767E0,3.709980726E0
3.427051319E0,-5.266267061E-1,3.254899502E0,3.158996582E0
3.429477204E0,-5.058578849E-1,2.996511221E0,2.648862839E0
3.431903142E0,-4.563792646E-1,2.699028730E0,2.186451435E0
3.434329079E0,-3.794125021E-1,2.376501322E0,1.766188502E0
3.436755017E0,-2.810660899E-1,2.042978764E0,1.391128302E0
3.439180954E0,-1.613400280E-1,1.710066915E0,1.053940535E0
3.441606892E0,-2.939702384E-2,1.390593767E0,7.509603500E-1
3.444032829E0,1.087308154E-1,1.093645692E0,4.754682481E-1
3.446458767E0,2.486148328E-1,8.212077618E-1,2.231119573E-1
3.448884704E0,3.817795515E-1,5.695387125E-1,-1.695101149E-2
3.451310642E0,5.051707029E-1,3.398601413E-1,-2.435753495E-1
3.453736579E0,6.139014959E-1,1.309503764E-1,-4.628695250E-1
3.456162517E0,7.043069005E-1,-6.085565686E-2,-6.833853722E-1
3.458588454E0,7.666133046E-1,-2.337254286E-1,-9.045121074E-1
3.461014392E0,8.050966859E-1,-3.888806403E-1,-1.132968903E0
3.463440329E0,8.154810667E-1,-5.232670307E-1,-1.366923451E0
3.465866267E0,8.008207679E-1,-6.381063461E-1,-1.611262321E0
3.468292152E0,7.592831254E-1,-7.297334075E-1,-1.859266400E0
3.470718142E0,6.890357137E-1,-8.005917072E-1,-2.113378763E0
3.473144027E0,5.955760479E-1,-8.531245589E-1,-2.370621920E0
3.475569965E0,4.703523815E-1,-8.903862238E-1,-2.622901678E0
3.477995902E0,3.151971996E-1,-9.105442166E-1,-2.871516705E0
3.480421840E0,1.301104724E-1,-9.184852242E-1,-3.109746933E0
3.482847777E0,-8.803836256E-2,-9.129875898E-1,-3.339425564E0
3.485273715E0,-3.397074342E-1,-8.946621418E-1,-3.556276321E0
3.487699652E0,-6.194754839E-1,-8.635089397E-1,-3.762131929E0
3.490125590E0,-9.303967357E-1,-8.183062673E-1,-3.953327179E0
3.492551527E0,-1.268195271E0,-7.596648932E-1,-4.130472660E0
3.494977465E0,-1.631038547E0,-6.857523918E-1,-4.295401573E0
3.497403402E0,-2.018926620E0,-5.990120769E-1,-4.446280956E0
3.499829340E0,-2.425750732E0,-5.012765527E-1,-4.579445362E0
3.502255277E0,-2.845479250E0,-3.919348717E-1,-4.699171543E0
3.504681215E0,-3.277348280E0,-2.789281309E-1,-4.804848194E0
3.507107152E0,-3.711049795E0,-1.634780020E-1,-4.897696972E0
3.509533090E0,-4.144140720E0,-5.108210072E-2,-4.978328705E0
3.511958975E0,-4.565014362E0,4.970769584E-2,-5.052317619E0
3.514384913E0,-4.962676048E0,1.407239437E-1,-5.119510651E0
3.516810850E0,-5.324984550E0,2.152473032E-1,-5.176930428E0
3.519236788E0,-5.641403675E0,2.671693265E-1,-5.226408958E0
3.521662725E0,-5.907732964E0,2.952682972E-1,-5.264892578E0
3.524088663E0,-6.114199162E0,2.940466106E-1,-5.287493706E0
3.526514600E0,-6.256526470E0,2.580066025E-1,-5.287493706E0
3.528940538E0,-6.333493233E0,1.743205339E-1,-5.257562160E0
3.531366475E0,-6.348764420E0,3.443651274E-2,-5.182428360E0
3.533792413E0,-6.307227135E0,-1.787491739E-1,-5.052928448E0
3.536218350E0,-6.215600014E0,-4.560738206E-1,-4.855548382E0
3.538644288E0,-6.073883533E0,-7.657734156E-1,-4.576391220E0
3.541070225E0,-5.874747276E0,-1.067531943E0,-4.202552795E0
3.543496163E0,-5.605974197E0,-1.323476911E0,-3.736476421E0
3.545922100E0,-5.254049778E0,-1.504974961E0,-3.186713696E0
3.548348038E0,-4.811796665E0,-1.603932142E0,-2.556930304E0
3.550773923E0,-4.277915955E0,-1.625311852E0,-1.861098886E0
3.553199861E0,-3.649965048E0,-1.585606813E0,-1.119530320E0
3.555625798E0,-2.937717199E0,-1.500699043E0,-3.504736125E-1
3.558051736E0,-2.152091265E0,-1.383340001E0,4.290438294E-1
3.560477673E0,-1.312787056E0,-1.243456006E0,1.206041574E0
3.562903611E0,-4.423297644E-1,-1.084635615E0,1.961048722E0
3.565329548E0,4.398100376E-1,-9.129875898E-1,2.685513735E0
3.567755486E0,1.308434844E0,-7.327876687E-1,3.376458168E0
3.570181423E0,2.135522127E0,-5.568636060E-1,4.028232098E0
3.572607361E0,2.903433323E0,-4.114819765E-1,4.637247086E0
3.575033298E0,3.587582350E0,-3.082487881E-1,5.203502178E0
3.577459236E0,4.188655853E0,-2.447206825E-1,5.725242138E0
3.579885173E0,4.703600407E0,-1.976854503E-1,6.202313900E0
3.582311111E0,5.139134407E0,-1.475959718E-1,6.636626244E0
3.584737048E0,5.506940842E0,-8.162446320E-2,7.026957989E0
3.587162986E0,5.811753750E0,-2.214321401E-3,7.364145279E0
3.589588923E0,6.052427292E0,8.696937561E-2,7.648189545E0
3.592014809E0,6.235681534E0,1.804290116E-1,7.871148586E0
3.594440746E0,6.361515999E0,2.757211924E-1,8.029357910E0
3.596866684E0,6.431152821E0,3.673482835E-1,8.128926277E0
3.599292621E0,6.437871933E0,4.467584193E-1,8.164966583E0
3.601718559E0,6.378008842E0,4.980695844E-1,8.131369591E0
3.604144496E0,6.234459877E0,4.944044948E-1,8.011033058E0
3.606570434E0,5.994396687E0,4.192702770E-1,7.785019398E0
3.608996371E0,5.674313068E0,3.001550734E-1,7.462491989E0
3.611422309E0,5.304063320E0,1.883700192E-1,7.074604034E0
3.613848246E0,4.930224419E0,1.431673318E-1,6.658006191E0
3.616274184E0,4.588150024E0,1.993652731E-1,6.245073318E0
3.618700121E0,4.293110847E0,3.606289625E-1,5.846800804E0
3.621126059E0,4.048161030E0,6.019136310E-1,5.461279869E0
3.623551996E0,3.836197138E0,8.804599643E-1,5.082554817E0
3.625977934E0,3.637060881E0,1.161449671E0,4.706883430E0
3.628403871E0,3.439757347E0,1.411973476E0,4.331823349E0
3.630829756E0,3.235734224E0,1.615385532E0,3.955541372E0
3.633255694E0,3.023159504E0,1.763210654E0,3.583535433E0
3.635681631E0,2.806308746E0,1.871330619E0,3.216416359E0
3.638107569E0,2.593046665E0,1.952573299E0,2.858383417E0
3.640533506E0,2.387801886E0,2.016101360E0,2.507756948E0
3.642959444E0,2.191720009E0,2.066801786E0,2.160184860E0
3.645385381E0,2.007854939E0,2.102841616E0,1.811391234E0
3.647811319E0,1.832541823E0,2.120556355E0,1.462597370E0
3.650237256E0,1.670056462E0,2.115058661E0,1.109527707E0
3.652663194E0,1.514901161E0,2.080851078E0,7.534037232E-1
3.655089131E0,1.366465330E0,2.014268875E0,3.972797990E-1
3.657515069E0,1.222916245E0,1.909814000E0,4.413371533E-2
3.659941006E0,1.084864736E0,1.766875744E0,-3.034383655E-1
3.662366944E0,9.492566586E-1,1.590951681E0,-6.430694461E-1
3.664792881E0,8.167027831E-1,1.391204596E0,-9.741486907E-1
3.667218819E0,6.841489077E-1,1.173055768E0,-1.297286868E0
3.669644756E0,5.509842038E-1,9.433772564E-1,-1.610040665E0
3.672070642E0,4.098785222E-1,7.100335956E-1,-1.917296886E0
3.674496579E0,2.644968629E-1,4.724139869E-1,-2.214168549E0
3.676922517E0,1.081199646E-1,2.445679754E-1,-2.506229877E0
3.679348454E0,-5.566345528E-2,4.298837483E-2,-2.789663076E0
3.681774392E0,-2.297549248E-1,-1.243837699E-1,-3.061490059E0
3.684200329E0,-4.117874205E-1,-2.587701678E-1,-3.325376034E0
3.686626267E0,-6.048151255E-1,-3.558948934E-1,-3.577656031E0
3.689052204E0,-8.063947558E-1,-4.188121557E-1,-3.820773363E0
3.691478142E0,-1.017747879E0,-4.530195892E-1,-4.051673412E0
3.693904079E0,-1.237652898E0,-4.591280818E-1,-4.270356655E0
3.696330017E0,-1.468553185E0,-4.346941710E-1,-4.481709957E0
3.698755954E0,-1.712281227E0,-3.833830059E-1,-4.684511185E0
3.701181892E0,-1.965782881E0,-3.106921911E-1,-4.878760815E0
3.703607829E0,-2.235166550E0,-2.172325552E-1,-5.069421291E0
3.706033767E0,-2.516767025E0,-1.030041203E-1,-5.255118847E0
3.708459704E0,-2.808217525E0,2.527380548E-2,-5.434097290E0
3.710885590E0,-3.108754396E0,1.682120711E-1,-5.605134487E0
3.713311579E0,-3.413567305E0,3.209238648E-1,-5.767008781E0
3.715737465E0,-3.719601631E0,4.791333079E-1,-5.915444851E0
3.718163402E0,-4.021971226E0,6.397861242E-1,-6.046777248E0
3.720589340E0,-4.320064545E0,7.943304777E-1,-6.162227154E0
3.723015277E0,-4.606552124E0,9.403229952E-1,-6.261795044E0
3.725441215E0,-4.872270584E0,1.067379236E0,-6.347924709E0
3.727867152E0,-5.115387440E0,1.174277544E0,-6.413896084E0
3.730293090E0,-5.330482483E0,1.260483265E0,-6.460931301E0
3.732719027E0,-5.506406307E0,1.320346355E0,-6.489641190E0
3.735144965E0,-5.648733616E0,1.353332043E0,-6.501247406E0
3.737570902E0,-5.751356125E0,1.355775476E0,-6.487808704E0
3.739996840E0,-5.813051701E0,1.319735527E0,-6.448103428E0
3.742422777E0,-5.835042000E0,1.239714503E0,-6.376634598E0
3.744848715E0,-5.813662529E0,1.115636110E0,-6.263017178E0
3.747274652E0,-5.757464409E0,9.494857192E-1,-6.096866608E0
3.749700538E0,-5.668280602E0,7.460735440E-1,-5.869631290E0
3.752126475E0,-5.544278622E0,5.066214204E-1,-5.572148800E0
3.754552413E0,-5.387290955E0,2.500655949E-1,-5.200142860E0
3.756978350E0,-5.194187164E0,-1.443126611E-2,-4.748039246E0
3.759404288E0,-4.960843086E0,-2.746522129E-1,-4.216602325E0
3.761830225E0,-4.684740543E0,-5.293754935E-1,-3.608809233E0
3.764256163E0,-4.365878105E0,-7.792120576E-1,-2.929547071E0
3.766682100E0,-4.002423763E0,-1.021718383E0,-2.192178011E0
3.769108038E0,-3.596821308E0,-1.256894588E0,-1.414569497E0
3.771533975E0,-3.154567957E0,-1.482984424E0,-6.088619828E-1
3.773959913E0,-2.684215546E0,-1.700446010E0,2.023431510E-1
3.776385850E0,-2.190574646E0,-1.902025700E0,1.003240228E0
3.778811788E0,-1.679906368E0,-2.079782248E0,1.778405428E0
3.781237725E0,-1.164962053E0,-2.225774765E0,2.523639202E0
3.783663663E0,-6.518504024E-1,-2.333283901E0,3.232298374E0
3.786089600E0,-1.472905427E-1,-2.393757582E0,3.897511005E0
3.788515538E0,3.384093940E-1,-2.411472321E0,4.517520905E0
3.790941423E0,7.971556783E-1,-2.396811962E0,5.091106415E0
3.793367361E0,1.219861984E0,-2.358939409E0,5.617045879E0
3.795793298E0,1.606528282E0,-2.307628155E0,6.094804764E0
3.798219236E0,1.946770191E0,-2.252651930E0,6.527284622E0
3.800645173E0,2.252193928E0,-2.192788839E0,6.906620979E0
3.803071111E0,2.519744873E0,-2.128649950E0,7.233424187E0
3.805497048E0,2.754386663E0,-2.054737568E0,7.509527206E0
3.807922986E0,2.957798719E0,-1.974716425E0,7.734929562E0
3.810348923E0,3.128835917E0,-1.889197826E0,7.905355930E0
3.812774861E0,3.266276598E0,-1.802457571E0,8.024471283E0
3.815200798E0,3.375007391E0,-1.718771458E0,8.093497276E0
3.817626736E0,3.451363325E0,-1.647302389E0,8.114876747E0
3.820052673E0,3.497787714E0,-1.587439299E0,8.090442657E0
3.822478611E0,3.513058901E0,-1.538571477E0,8.018973351E0
3.824904548E0,3.501452923E0,-1.506807446E0,7.902912617E0
3.827330486E0,3.453195810E0,-1.510472536E0,7.734929562E0
3.829756423E0,3.366455555E0,-1.544679999E0,7.512581348E0
3.832182361E0,3.249172926E0,-1.594769478E0,7.238921642E0
3.834608246E0,3.108678102E0,-1.639361382E0,6.918838024E0
3.837034184E0,2.957798719E0,-1.650967479E0,6.563935757E0
3.839460121E0,2.809973717E0,-1.614316583E0,6.186431885E0
3.841886059E0,2.682230234E0,-1.509250879E0,5.796100616E0
3.844311996E0,2.578386307E0,-1.330196261E0,5.405081749E0
3.846737934E0,2.498365402E0,-1.091354966E0,5.021470070E0
3.849163871E0,2.435447931E0,-8.134194613E-1,4.647020340E0
3.851589809E0,2.378028393E0,-5.281538367E-1,4.283566475E0
3.854015746E0,2.314500332E0,-2.563267946E-1,3.931107521E0
3.856441684E0,2.241809368E0,-1.015533600E-2,3.590254784E0
3.858867621E0,2.152625799E0,2.054737508E-1,3.254899502E0
3.861293559E0,2.048170805E0,3.893387616E-1,2.924354792E0
3.863719496E0,1.929055691E0,5.499916077E-1,2.602438450E0
3.866145434E0,1.800166845E0,6.886539459E-1,2.285408735E0
3.868571371E0,1.670056462E0,8.065474629E-1,1.965324640E0
3.870997256E0,1.541778445E0,9.030613303E-1,1.642186522E0
3.873423194E0,1.417165637E0,9.659785628E-1,1.311107278E0
3.875849131E0,1.298661232E0,9.977426529E-1,9.696436524E-1
3.878275069E0,1.183822036E0,9.934667349E-1,6.190173626E-1
3.880701006E0,1.072647810E0,9.531508088E-1,2.591519356E-1
3.883126944E0,9.651386738E-1,8.755732179E-1,-1.104106456E-1
3.885552881E0,8.594620824E-1,7.619556189E-1,-4.873034060E-1
3.887978819E0,7.543963790E-1,6.141305566E-1,-8.709154725E-1
3.890404756E0,6.523848772E-1,4.400390983E-1,-1.259414315E0
3.892830694E0,5.509842038E-1,2.433462739E-1,-1.645469785E0
3.895256631E0,4.483618736E-1,3.993413970E-2,-2.029692650E0
3.897682569E0,3.420744538E-1,-1.640888453E-1,-2.405440092E0
3.900108506E0,2.302894145E-1,-3.595599532E-1,-2.768283367E0
3.902534444E0,1.087308154E-1,-5.391490459E-1,-3.118909836E0
3.904960381E0,-2.451024577E-2,-6.955259442E-1,-3.448156357E0
3.907386319E0,-1.711135954E-1,-8.201388121E-1,-3.760910273E0
3.909812204E0,-3.335989714E-1,-9.056574106E-1,-4.055338383E0
3.912238142E0,-5.119663477E-1,-9.551360607E-1,-4.335717678E0
3.914664079E0,-7.074374557E-1,-9.649096131E-1,-4.603879452E0
3.917090017E0,-9.255099297E-1,-9.429190755E-1,-4.863489628E0
3.919515954E0,-1.166794658E0,-8.873320222E-1,-5.113402367E0
3.921941892E0,-1.431902289E0,-7.993699908E-1,-5.357130527E0
3.924367829E0,-1.720833063E0,-6.802547574E-1,-5.592306614E0
3.926793767E0,-2.028700113E0,-5.318188667E-1,-5.815876961E0
3.929219704E0,-2.357946873E0,-3.626142144E-1,-6.030283928E0
3.931645642E0,-2.704373598E0,-1.738623977E-1,-6.230641842E0
3.934071579E0,-3.059275866E0,2.588465251E-2,-6.415728569E0
3.936497517E0,-3.420286417E0,2.286859453E-1,-6.581879139E0
3.938923454E0,-3.782518864E0,4.272113144E-1,-6.735201836E0
3.941349392E0,-4.138031960E0,6.159631014E-1,-6.877529144E0
3.943775329E0,-4.481328011E0,7.882220149E-1,-7.012526512E0
3.946201215E0,-4.803855419E0,9.433772564E-1,-7.137750149E0
3.948627152E0,-5.098894596E0,1.073487759E0,-7.254422188E0
3.951053090E0,-5.357359409E0,1.173055768E0,-7.365596294E0
3.953479027E0,-5.574210167E0,1.240936160E0,-7.463331699E0
3.955904965E0,-5.740360737E0,1.269035220E0,-7.548850536E0
3.958330902E0,-5.850313187E0,1.251320601E0,-7.613600254E0
3.960756840E0,-5.901013374E0,1.187105298E0,-7.650250912E0
3.963182777E0,-5.890629292E0,1.066157579E0,-7.651472569E0
3.965608715E0,-5.827101231E0,8.749623299E-1,-7.609935284E0
3.968034652E0,-5.712261677E0,6.153522730E-1,-7.510977745E0
3.970460590E0,-5.553441525E0,3.093177676E-1,-7.333221436E0
3.972886527E0,-5.348196983E0,-1.809635013E-2,-7.062615871E0
3.975312465E0,-5.095229626E0,-3.369586170E-1,-6.690609932E0
3.977738402E0,-4.780643463E0,-6.252785325E-1,-6.215370655E0
3.980164340E0,-4.398863792E0,-8.677848577E-1,-5.635676861E0
3.982590277E0,-3.949891090E0,-1.065699458E0,-4.961835861E0
3.985016215E0,-3.432503462E0,-1.231238961E0,-4.204996109E0
3.987442152E0,-2.857696295E0,-1.377842307E0,-3.388293505E0
3.989868038E0,-2.226003885E0,-1.524522066E0,-2.527609587E0
3.992293975E0,-1.552850127E0,-1.685174823E0,-1.645469785E0
3.994719913E0,-8.509865999E-1,-1.863542318E0,-7.640172243E-1
3.997145850E0,-1.344627589E-1,-2.052294016E0,1.033858955E-1
3.999571788E0,5.809157491E-1,-2.237991571E0,9.421555400E-1
4.001997725E0,1.290109396E0,-2.400476933E0,1.741754651E0
4.004423663E0,1.971204162E0,-2.529976606E0,2.502259493E0
4.006849600E0,2.612593651E0,-2.617938757E0,3.222524643E0
4.009275538E0,3.203970194E0,-2.659476280E0,3.901786804E0
4.011701475E0,3.731742144E0,-2.657643795E0,4.541954994E0
4.014127413E0,4.194764614E0,-2.619771242E0,5.139363289E0
4.016553350E0,4.592425823E0,-2.547691107E0,5.697066784E0
4.018979288E0,4.927781105E0,-2.436517000E0,6.213920116E0
4.021405225E0,5.207549095E0,-2.289302826E0,6.687937737E0
4.023831163E0,5.434249878E0,-2.116433144E0,7.112476349E0
4.026257100E0,5.605287075E0,-1.927681208E0,7.482038975E0
4.028682986E0,5.720126629E0,-1.733431816E0,7.786241055E0
4.031108923E0,5.775102615E0,-1.542236567E0,8.024471283E0
4.033534861E0,5.771437645E0,-1.361960292E0,8.194287300E0
4.035960798E0,5.684697151E0,-1.235514879E0,8.276140213E0
4.038386736E0,5.499610424E0,-1.182982087E0,8.260869026E0
4.040812673E0,5.221598625E0,-1.189090490E0,8.152749062E0
4.043238611E0,4.874026775E0,-1.220243812E0,7.969495296E0
4.045664548E0,4.494690418E0,-1.225741386E0,7.738595009E0
4.048090486E0,4.117797852E0,-1.167100072E0,7.482649803E0
4.050516423E0,3.769614697E0,-1.024161816E0,7.216320515E0
4.052942361E0,3.460525990E0,-7.993699908E-1,6.942660809E0
4.055368298E0,3.183201313E0,-5.220453143E-1,6.654340744E0
4.057794236E0,2.927867174E0,-2.190651000E-1,6.354414940E0
4.060220173E0,2.685284615E0,8.391514421E-2,6.041661263E0
4.062646111E0,2.450108290E0,3.679591119E-1,5.712414265E0
4.065072048E0,2.221651554E0,6.287909150E-1,5.379426479E0
4.067497934E0,1.998081326E0,8.621345758E-1,5.048957825E0
4.069923871E0,1.783063173E0,1.079596162E0,4.726430893E0
4.072349809E0,1.577207565E0,1.279419541E0,4.411844254E0
4.074775746E0,1.379903913E0,1.464506269E0,4.101533890E0
4.077201684E0,1.194817185E0,1.628213406E0,3.792445183E0
4.079627621E0,1.018893242E0,1.766875744E0,3.478469610E0
4.082053559E0,8.557969928E-1,1.879882455E0,3.157774925E0
4.084479496E0,7.036960125E-1,1.959903479E0,2.827841043E0
4.086905434E0,5.668662786E-1,2.008160353E0,2.485155821E0
4.089331371E0,4.465293586E-1,2.021599054E0,2.130253553E0
4.091757309E0,3.396310806E-1,2.003273487E0,1.757025838E0
4.094183246E0,2.535016239E-1,1.955016613E0,1.372802854E0
4.096609184E0,1.832541823E-1,1.881714940E0,9.775846601E-1
4.099035121E0,1.258345395E-1,1.781535983E0,5.762580037E-1
4.101461059E0,7.635590434E-2,1.658144832E0,1.699682474E-1
4.103886996E0,3.535278514E-2,1.510930657E0,-2.338017821E-1
4.106312881E0,-6.872031372E-4,1.347834468E0,-6.369609833E-1
4.108738819E0,-3.611634299E-2,1.168779850E0,-1.033400893E0
4.111164756E0,-6.971294433E-2,9.800280929E-1,-1.420678020E0
4.113590694E0,-1.081963181E-1,7.900545597E-1,-1.800014138E0
4.116016631E0,-1.570640951E-1,6.013027430E-1,-2.168354988E0
4.118442569E0,-2.138728946E-1,4.259895980E-1,-2.523944616E0
4.120868506E0,-2.859528661E-1,2.677801549E-1,-2.867240667E0
4.123294444E0,-3.745257258E-1,1.321720779E-1,-3.193433046E0
4.125720381E0,-4.838673770E-1,2.710634656E-2,-3.506797791E0
4.128146319E0,-6.084802151E-1,-3.947600350E-2,-3.807334661E0
4.130572256E0,-7.563052773E-1,-6.818582863E-2,-4.095043659E0
4.132998194E0,-9.255099297E-1,-5.963396281E-2,-4.371146679E0
4.135424131E0,-1.120981097E0,-9.544488043E-3,-4.638697624E0
4.137850069E0,-1.340886116E0,7.475243509E-2,-4.892810345E0
4.140276006E0,-1.586446643E0,1.908134073E-1,-5.138447285E0
4.142701892E0,-1.854608655E0,3.325299621E-1,-5.372401714E0
4.145127829E0,-2.144150257E0,4.889068604E-1,-5.593528271E0
4.147553767E0,-2.454460621E0,6.550573111E-1,-5.796940327E0
4.149979704E0,-2.772788525E0,8.285379410E-1,-5.985692501E0
4.152405642E0,-3.094094038E0,9.995751977E-1,-6.153675079E0
4.154831579E0,-3.415399790E0,1.166947365E0,-6.306997776E0
4.157257517E0,-3.729986191E0,1.324011445E0,-6.443216801E0
4.159683454E0,-4.023803711E0,1.463284612E0,-6.568440437E0
4.162109392E0,-4.293187141E0,1.584843159E0,-6.680225849E0
4.164535329E0,-4.526530743E0,1.680746198E0,-6.777350426E0
4.166961267E0,-4.718337059E0,1.747939467E0,-6.860425472E0
4.169387204E0,-4.863107681E0,1.781535983E0,-6.918456078E0
4.171813142E0,-4.954123974E0,1.772373319E0,-6.945944309E0
4.174239079E0,-4.989552975E0,1.714953661E0,-6.944111824E0
4.176665017E0,-4.970616817E0,1.602557778E0,-6.903184891E0
4.179090954E0,-4.900369644E0,1.424801230E0,-6.817666054E0
4.181516892E0,-4.782475948E0,1.178553462E0,-6.680836678E0
4.183942777E0,-4.622434139E0,8.755732179E-1,-6.481089592E0
4.186368715E0,-4.424519539E0,5.353312492E-1,-6.210484028E0
4.188794652E0,-4.188732147E0,1.828723997E-1,-5.861690521E0
4.191220590E0,-3.914461851E0,-1.720298529E-1,-5.429821491E0
4.193646527E0,-3.600486517E0,-5.098283887E-1,-4.911746502E0
4.196072465E0,-3.241308212E0,-8.225821853E-1,-4.313726902E0
4.198498402E0,-2.836316586E0,-1.104182720E0,-3.645460129E0
4.200924340E0,-2.386045694E0,-1.355240941E0,-2.915497541E0
4.203350277E0,-1.894924521E0,-1.577665806E0,-2.139034271E0
4.205776215E0,-1.367152572E0,-1.776801944E0,-1.326607585E0
4.208202152E0,-8.131140471E-1,-1.950282574E0,-4.989095032E-1
4.210628090E0,-2.425827235E-1,-2.100551128E0,3.293993771E-1
4.213054027E0,3.316900730E-1,-2.219055414E0,1.142513394E0
4.215479965E0,8.961129189E-1,-2.299687147E0,1.931117296E0
4.217905850E0,1.440377831E0,-2.343057394E0,2.683070183E0
4.220331788E0,1.949213624E0,-2.349165916E0,3.402113914E0
4.222757725E0,2.412235737E0,-2.319845200E0,4.084430218E0
4.225183663E0,2.817914724E0,-2.261814594E0,4.725208759E0
4.227609600E0,3.167319298E0,-2.176295996E0,5.325671673E0
4.230035538E0,3.457471848E0,-2.071841240E0,5.885284424E0
4.232461475E0,3.687150478E0,-1.946006656E0,6.406947613E0
4.234887413E0,3.870404482E0,-1.802457571E0,6.893182278E0
4.237313350E0,4.006012917E0,-1.644858956E0,7.343987465E0
4.239739288E0,4.095807076E0,-1.485427856E0,7.752644539E0
4.242165225E0,4.142231464E0,-1.324087739E0,8.120374680E0
4.244591163E0,4.143453121E0,-1.178706169E0,8.441145897E0
4.247017100E0,4.090920448E0,-1.059590936E0,8.706864357E0
4.249443038E0,3.985243797E0,-9.716289043E-1,8.909054756E0
4.251868975E0,3.823980093E0,-9.105442166E-1,9.044662476E0
4.254294913E0,3.614459515E0,-8.671740294E-1,9.113688469E0
4.256720798E0,3.365844727E0,-8.225821853E-1,9.113688469E0
4.259146736E0,3.091574430E0,-7.639408708E-1,9.050770760E0
4.261572673E0,2.801421881E0,-6.784222126E-1,8.926769257E0
4.263998611E0,2.508749723E0,-5.586961508E-1,8.744125366E0
4.266424548E0,2.222873211E0,-4.041518271E-1,8.504062653E0
4.268850486E0,1.944937706E0,-2.190651000E-1,8.218720436E0
4.271276423E0,1.679219127E0,-7.711946499E-3,7.891917706E0
4.273702361E0,1.431215167E0,2.201340795E-1,7.521744251E0
4.276128298E0,1.204590797E0,4.620296061E-1,7.117973804E0
4.278554236E0,9.999569654E-1,7.088118792E-1,6.686716080E0
4.280980173E0,8.203678727E-1,9.537616372E-1,6.237743378E0
4.283406111E0,6.670452356E-1,1.195046306E0,5.773499012E0
4.285832048E0,5.369347334E-1,1.422357798E0,5.309789658E0
4.288257986E0,4.288147688E-1,1.619661450E0,4.850432873E0
4.290683923E0,3.341334462E-1,1.778481841E0,4.402681828E0
4.293109809E0,2.535016239E-1,1.892099380E0,3.969590902E0
4.295535746E0,1.844758689E-1,1.958070874E0,3.551160574E0
4.297961684E0,1.252236813E-1,1.982504725E0,3.144947052E0
4.300387621E0,8.002099395E-2,1.969676971E0,2.751485109E0
4.302813559E0,5.070032179E-2,1.924474239E0,2.370927334E0
4.305239496E0,3.596363217E-2,1.853615999E0,1.993423700E0
4.307665434E0,4.031591862E-2,1.761378050E0,1.626915336E0
4.310091371E0,6.047387794E-2,1.653868914E0,1.262850404E0
4.312517309E0,9.590301663E-2,1.535975456E0,9.018396139E-1
4.314943246E0,1.459924877E-1,1.408308387E0,5.371637940E-1
4.317369184E0,2.058555335E-1,1.272700310E0,1.699682474E-1
4.319795121E0,2.718270421E-1,1.133961558E0,-2.002051920E-1
4.322221059E0,3.420744538E-1,9.885799289E-1,-5.777087808E-1
4.324646996E0,4.129327536E-1,8.389223814E-1,-9.582666159E-1
4.327072934E0,4.782933891E-1,6.874322295E-1,-1.347987175E0
4.329498871E0,5.363239050E-1,5.359421372E-1,-1.741983652E0
4.331924756E0,5.839699507E-1,3.820086122E-1,-2.139645338E0
4.334350694E0,6.157340407E-1,2.329618782E-1,-2.537993908E0
4.336776631E0,6.273401380E-1,8.635853231E-2,-2.935044765E0
4.339202569E0,6.175665855E-1,-5.047125369E-2,-3.325986862E0
4.341628506E0,5.833591223E-1,-1.750840992E-1,-3.704712152E0
4.344054444E0,5.234960914E-1,-2.795389891E-1,-4.074275017E0
4.346480381E0,4.379774928E-1,-3.613924980E-1,-4.432842255E0
4.348906319E0,3.268032968E-1,-4.065952003E-1,-4.778581619E0
4.351332256E0,1.911951900E-1,-4.163687527E-1,-5.112791538E0
4.353758194E0,3.046600707E-2,-3.919348717E-1,-5.434097290E0
4.356184131E0,-1.527881771E-1,-3.351260722E-1,-5.741964340E0
4.358610069E0,-3.580328524E-1,-2.428881377E-1,-6.033949375E0
4.361036006E0,-5.846571922E-1,-1.219403818E-1,-6.310052395E0
4.363461944E0,-8.314394951E-1,2.466295846E-2,-6.573327541E0
4.365887881E0,-1.098990560E0,1.871483326E-1,-6.824996471E0
4.368313767E0,-1.383034587E0,3.624614775E-1,-7.060172558E0
4.370739704E0,-1.680517197E0,5.444939733E-1,-7.280688286E0
4.373165642E0,-1.988384128E0,7.283589840E-1,-7.484100819E0
4.375591579E0,-2.300527096E0,9.030613303E-1,-7.677204609E0
4.378017517E0,-2.607783318E0,1.062492490E0,-7.858015537E0
4.380443454E0,-2.909618139E0,1.202376485E0,-8.027219772E0
4.382869392E0,-3.195494652E0,1.316070437E0,-8.183596611E0
4.385295329E0,-3.462435007E0,1.399145603E0,-8.328368187E0
4.387721267E0,-3.698221922E0,1.451067686E0,-8.457256317E0
4.390147204E0,-3.901023388E0,1.470614791E0,-8.565376282E0
4.392573142E0,-4.065952301E0,1.446791768E0,-8.646008492E0
4.394999079E0,-4.188121319E0,1.384485364E0,-8.691210747E0
4.397425017E0,-4.257758141E0,1.273311138E0,-8.698541641E0
4.399850954E0,-4.280359268E0,1.102808356E0,-8.660668373E0
4.402276892E0,-4.250427723E0,8.719081283E-1,-8.570263863E0
4.404702829E0,-4.170406818E0,5.799230933E-1,-8.419384003E0
4.407128715E0,-4.042739868E0,2.335727215E-1,-8.208642006E0
4.409554652E0,-3.861318350E0,-1.488176584E-1,-7.931317329E0
4.411980590E0,-3.634693861E0,-5.495334864E-1,-7.577560425E0
4.414406527E0,-3.362866879E0,-9.484167099E-1,-7.150578022E0
4.416832465E0,-3.042783022E0,-1.327752829E0,-6.646018028E0
4.419258402E0,-2.671387672E0,-1.676622987E0,-6.073043346E0
4.421684340E0,-2.246772528E0,-1.989987612E0,-5.434097290E0
4.424110277E0,-1.767868280E0,-2.270366669E0,-4.737044334E0
4.426536215E0,-1.240096331E0,-2.516537905E0,-3.987534523E0
4.428962152E0,-6.665107012E-1,-2.727280378E0,-3.195876598E0
4.431388090E0,-5.260922015E-2,-2.905647755E0,-2.369400263E0
4.433814027E0,5.876350403E-1,-3.053472757E0,-1.520246148E0
4.436239965E0,1.244295835E0,-3.162203550E0,-6.601731777E-1
4.438665902E0,1.907065153E0,-3.228785992E0,2.017323077E-1
4.441091840E0,2.561893463E0,-3.249554634E0,1.047832131E0
4.443517777E0,3.197250843E0,-3.218401432E0,1.874919295E0
4.445943663E0,3.799546242E0,-3.141434669E0,2.670853376E0
4.448369600E0,4.354195595E0,-3.025373697E0,3.433267117E0
4.450795538E0,4.850203514E0,-2.881213903E0,4.154066563E0
4.453221475E0,5.282072544E0,-2.718728542E0,4.830885410E0
4.455647413E0,5.643770695E0,-2.540360928E0,5.461890697E0
4.458073350E0,5.933311939E0,-2.346111536E0,6.047769547E0
4.460499288E0,6.160547256E0,-2.137812614E0,6.590812683E0
4.462925225E0,6.327308655E0,-1.919740200E0,7.089875221E0
4.465351163E0,6.426876545E0,-1.708997965E0,7.540680408E0
4.467777100E0,6.451921463E0,-1.525132895E0,7.934065819E0
4.470203038E0,6.398777962E0,-1.377231479E0,8.266977310E0
4.472628975E0,6.270499706E0,-1.265446424E0,8.541934967E0
4.475054913E0,6.073195934E0,-1.179927826E0,8.763062477E0
4.477480850E0,5.821527004E0,-1.106626153E0,8.931655884E0
4.479906736E0,5.530152798E0,-1.027216077E0,9.051992416E0
4.482332673E0,5.216101170E0,-9.319238663E-1,9.119186401E0
4.484758611E0,4.894184589E0,-8.152520061E-1,9.133235931E0
4.487184548E0,4.570435524E0,-6.784222126E-1,9.092919350E0
4.489610486E0,4.250962257E0,-5.238778591E-1,8.992129326E0
4.492036423E0,3.936376095E0,-3.595599532E-1,8.826590538E0
4.494462361E0,3.627898216E0,-1.891335845E-1,8.599354744E0
4.496888298E0,3.326139688E0,-1.259872504E-2,8.312790871E0
4.499314236E0,3.040263176E0,1.663795263E-1,7.975603580E0
4.501740173E0,2.772101164E0,3.496336937E-1,7.587715626E0
4.504166111E0,2.528907537E0,5.420506001E-1,7.151570797E0
4.506592048E0,2.320608854E0,7.448518872E-1,6.675720692E0
4.509017986E0,2.143463135E0,9.562050104E-1,6.170549870E0
4.511443923E0,2.002968073E0,1.170612454E0,5.649420738E0
4.513869861E0,1.889350533E0,1.380209327E0,5.129590034E0
4.516295746E0,1.796501756E0,1.573848009E0,4.620143414E0
4.518721684E0,1.718313336E0,1.730224848E0,4.128411293E0
4.521147621E0,1.650509238E0,1.851783514E0,3.659280539E0
4.523573559E0,1.586370349E0,1.933637023E0,3.210307837E0
4.525999496E0,1.528950691E0,1.983115673E0,2.780805826E0
4.528425434E0,1.478250384E0,1.996554255E0,2.372759819E0
4.530851371E0,1.433658481E0,1.981893897E0,1.977541685E0
4.533277309E0,1.399451017E0,1.933026195E0,1.589653611E0
4.535703246E0,1.372573733E0,1.859724522E0,1.202987313E0
4.538129184E0,1.355470061E0,1.763210654E0,8.126559258E-1
4.540555121E0,1.344474792E0,1.645317078E0,4.107184112E-1
4.542981059E0,1.337144613E0,1.507265568E0,1.374406274E-3
4.545406996E0,1.333479524E0,1.356386304E0,-4.182776511E-1
4.547832934E0,1.329814434E0,1.188326955E0,-8.470924497E-1
4.550258871E0,1.319430113E0,1.012403011E0,-1.280794024E0
4.552684756E0,1.298661232E0,8.297596574E-1,-1.714495540E0
4.555110694E0,1.266897202E0,6.446729302E-1,-2.145142794E0
4.557536631E0,1.215586066E0,4.595862031E-1,-2.568536282E0
4.559962569E0,1.139230132E0,2.946574390E-1,-2.984523296E0
4.562388506E0,1.037218690E0,1.480541080E-1,-3.384017467E0
4.564814444E0,9.064973593E-1,2.527380548E-2,-3.768240452E0
4.567240381E0,7.482879162E-1,-7.368344814E-2,-4.135359764E0
4.569666319E0,5.583143830E-1,-1.402658075E-1,-4.477434158E0
4.572092256E0,3.390202224E-1,-1.640888453E-1,-4.803015709E0
4.574518194E0,8.918370306E-2,-1.475959718E-1,-5.112791538E0
4.576944131E0,-1.894390136E-1,-8.712209016E-2,-5.406609058E0
4.579370069E0,-4.985277057E-1,1.855448633E-2,-5.678436279E0
4.581796006E0,-8.320503235E-1,1.688229144E-1,-5.931326866E0
4.584221944E0,-1.188174248E0,3.642940223E-1,-6.162227154E0
4.586647829E0,-1.563234448E0,5.976377130E-1,-6.372358799E0
4.589073767E0,-1.951733351E0,8.694646955E-1,-6.565997124E0
4.591499704E0,-2.354892492E0,1.165114760E0,-6.741310120E0
4.593925642E0,-2.763625622E0,1.474890709E0,-6.901963234E0
4.596351579E0,-3.178390980E0,1.787644506E0,-7.046733856E0
4.598777517E0,-3.584604502E0,2.090013981E0,-7.175012112E0
4.601203454E0,-3.982265949E0,2.377112150E0,-7.280077457E0
4.603629392E0,-4.361602306E0,2.643441439E0,-7.364374638E0
4.606055329E0,-4.715282917E0,2.879839420E0,-7.421183586E0
4.608481267E0,-5.036588192E0,3.085695028E0,-7.452336788E0
4.610907204E0,-5.323762894E0,3.264062405E0,-7.456612587E0
4.613333142E0,-5.571766853E0,3.408833027E0,-7.432178497E0
4.615759079E0,-5.773957253E0,3.520618200E0,-7.380256653E0
4.618185017E0,-5.924225807E0,3.592698097E0,-7.292905331E0
4.620610954E0,-6.014020443E0,3.624462128E0,-7.165238380E0
4.623036840E0,-6.038454056E0,3.611634493E0,-6.989314556E0
4.625462829E0,-5.993251324E0,3.548106194E0,-6.764522552E0
4.627888715E0,-5.872303963E0,3.431434393E0,-6.485365391E0
4.630314652E0,-5.669502258E0,3.260397196E0,-6.159783840E0
4.632740590E0,-5.408060074E0,3.011171579E0,-5.780447483E0
4.635166527E0,-5.086678028E0,2.691087484E0,-5.339416027E0
4.637592465E0,-4.712228298E0,2.318470716E0,-4.826838493E0
4.640018402E0,-4.280359268E0,1.917144179E0,-4.237981796E0
4.642444340E0,-3.793514252E0,1.499935389E0,-3.588040352E0
4.644870277E0,-3.246805906E0,1.069211721E0,-2.885565996E0
4.647296215E0,-2.643899679E0,6.269583702E-1,-2.151251316E0
4.649722152E0,-1.990827560E0,1.822615564E-1,-1.401741743E0
4.652148090E0,-1.301180959E0,-2.563267946E-1,-6.546755433E-1
4.654574027E0,-5.901548266E-1,-6.784222126E-1,7.528692484E-2
4.656999965E0,1.233911440E-1,-1.070586205E0,7.790593505E-1
4.659425902E0,8.191461563E-1,-1.420601606E0,1.450380445E0
4.661851840E0,1.480082870E0,-1.732210159E0,2.097267628E0
4.664277777E0,2.089708567E0,-2.006480455E0,2.717888594E0
4.666703663E0,2.633362532E0,-2.253873587E0,3.316595078E0
4.669129600E0,3.105623722E0,-2.471946239E0,3.889569998E0
4.671555538E0,3.503896236E0,-2.649091959E0,4.438721657E0
4.673981475E0,3.833142996E0,-2.782256603E0,4.954276562E0
4.676407413E0,4.104969978E0,-2.870218515E0,5.441122055E0
4.678833350E0,4.318766594E0,-2.917253733E0,5.892614365E0
4.681259288E0,4.476975918E0,-2.941076756E0,6.295773506E0
4.683685225E0,4.582041740E0,-2.938022614E0,6.650064945E0
4.686111163E0,4.636406898E0,-2.916032076E0,6.956099510E0
4.688537100E0,4.632741928E0,-2.887933016E0,7.210211754E0
4.690963038E0,4.574100494E0,-2.854336500E0,7.414235115E0
4.693388975E0,4.462926388E0,-2.818907499E0,7.570611954E0
4.695814913E0,4.301662922E0,-2.777369738E0,7.681175232E0
4.698240798E0,4.097028732E0,-2.728502035E0,7.751422882E0
4.700666788E0,3.856355190E0,-2.670471430E0,7.777078152E0
4.703092673E0,3.594301701E0,-2.600224018E0,7.766693592E0
4.705518611E0,3.319420338E0,-2.516537905E0,7.720269203E0
4.707944548E0,3.040263176E0,-2.409028769E0,7.640859127E0
4.710370486E0,2.763549328E0,-2.275253296E0,7.532128334E0
4.712796423E0,2.493478537E0,-2.112157106E0,7.389190197E0
4.715222361E0,2.230814219E0,-1.919740200E0,7.219374657E0
4.717648298E0,1.975480080E0,-1.701056957E0,7.019016743E0
4.720074236E0,1.729308605E0,-1.460917592E0,6.796668530E0
4.722500173E0,1.493521571E0,-1.204361677E0,6.549886227E0
4.724926111E0,1.268729806E0,-9.294804335E-1,6.289665222E0
4.727352048E0,1.053100705E0,-6.417713761E-1,6.015394688E0
4.729777986E0,8.460234404E-1,-3.455104828E-1,5.728296757E0
4.732203923E0,6.487197876E-1,-4.741701856E-2,5.432569981E0
4.734629809E0,4.593571424E-1,2.427354306E-1,5.123481274E0
4.737055746E0,2.761029601E-1,5.163949728E-1,4.805840969E0
4.739481684E0,1.026223376E-1,7.668423653E-1,4.469874859E0
4.741907621E0,-6.116108224E-2,9.879691005E-1,4.117415905E0
4.744333559E0,-2.108186632E-1,1.177942634E0,3.743577480E0
4.746759496E0,-3.439833522E-1,1.331952453E0,3.346526623E0
4.749185434E0,-4.521033168E-1,1.447402596E0,2.927409172E0
4.751611371E0,-5.351785421E-1,1.523758531E0,2.489431620E0
4.754037309E0,-5.925981998E-1,1.565907001E0,2.040458918E0
4.756463246E0,-6.268056631E-1,1.577513099E0,1.584766865E0
4.758889184E0,-6.371900439E-1,1.554911733E0,1.126631379E0
4.761315121E0,-6.280273199E-1,1.501767993E0,6.660525799E-1
4.763741059E0,-6.042042971E-1,1.416860223E0,2.139492482E-1
4.766166996E0,-5.687751770E-1,1.311183691E0,-2.295258641E-1
4.768592934E0,-5.272375345E-1,1.187716126E0,-6.583406329E-1
4.771018819E0,-4.814240038E-1,1.050275564E0,-1.073105931E0
4.773444756E0,-4.356104434E-1,9.000070691E-1,-1.476265073E0
4.775870694E0,-3.952945471E-1,7.436301708E-1,-1.862320542E0
4.778296631E0,-3.641413152E-1,5.835881829E-1,-2.234937429E0
4.780722569E0,-3.433725238E-1,4.235462248E-1,-2.598467827E0
4.783148506E0,-3.390965760E-1,2.622825503E-1,-2.951537609E0
4.785574444E0,-3.525352180E-1,1.107924208E-1,-3.295444489E0
4.788000381E0,-3.855209649E-1,-2.481566928E-2,-3.628356457E0
4.790426319E0,-4.417189360E-1,-1.366007179E-1,-3.952105522E0
4.792852256E0,-5.199073553E-1,-2.166217119E-1,-4.264248371E0
4.795278194E0,-6.243622303E-1,-2.587701678E-1,-4.567228794E0
4.797704131E0,-7.538618445E-1,-2.593810260E-1,-4.854937553E0
4.800130069E0,-9.145147204E-1,-2.178433985E-1,-5.131116867E0
4.802555954E0,-1.102044821E0,-1.414874941E-1,-5.394392014E0
4.804981892E0,-1.312176228E0,-3.153498843E-2,-5.643617630E0
4.807407829E0,-1.549185038E0,1.095707268E-1,-5.881237507E0
4.809833767E0,-1.808184266E0,2.732777894E-1,-6.106639862E0
4.812259704E0,-2.084897995E0,4.522560537E-1,-6.323490620E0
4.814685642E0,-2.373218060E0,6.373427510E-1,-6.533011436E0
4.817111579E0,-2.664668560E0,8.254837394E-1,-6.730315208E0
4.819537517E0,-2.946879864E0,1.011181235E0,-6.920899391E0
4.821963454E0,-3.214431047E0,1.191992044E0,-7.101099491E0
4.824389392E0,-3.450217962E0,1.360662222E0,-7.272136688E0
4.826815329E0,-3.651186705E0,1.512763262E0,-7.432789326E0
4.829241267E0,-3.806952715E0,1.636765242E0,-7.578782082E0
4.831667204E0,-3.914461851E0,1.722894669E0,-7.702860355E0
4.834093142E0,-3.973714113E0,1.762599707E0,-7.804260731E0
4.836519079E0,-3.981044292E0,1.750382781E0,-7.880005836E0
4.838944965E0,-3.935841560E0,1.688076377E0,-7.914213657E0
4.841370902E0,-3.841771126E0,1.569572091E0,-7.908715725E0
4.843796840E0,-3.704330444E0,1.394258857E0,-7.857404709E0
4.846222777E0,-3.529017210E0,1.166336536E0,-7.753560543E0
4.848648715E0,-3.319496632E0,8.932877779E-1,-7.580614567E0
4.851074652E0,-3.080044508E0,5.890858173E-1,-7.333832264E0
4.853500590E0,-2.819823742E0,2.720561028E-1,-6.999698639E0
4.855926527E0,-2.529594898E0,-5.291464552E-2,-6.584322453E0
4.858352465E0,-2.213786840E0,-3.723877668E-1,-6.088314533E0
4.860778402E0,-1.873544931E0,-6.784222126E-1,-5.519615650E0
4.863204340E0,-1.506425738E0,-9.679638147E-1,-4.887312412E0
4.865630277E0,-1.110596657E0,-1.239179969E0,-4.208050251E0
4.868056215E0,-6.909446120E-1,-1.493979692E0,-3.491526604E0
4.870482152E0,-2.505237460E-1,-1.726101637E0,-2.745682001E0
4.872908090E0,2.082989216E-1,-1.933789730E0,-1.983268380E0
4.875333975E0,6.731536984E-1,-2.118265629E0,-1.211768270E0
4.877759913E0,1.136175871E0,-2.272809982E0,-4.396573007E-1
4.880185850E0,1.591257095E0,-2.397422791E0,3.275668323E-1
4.882611788E0,2.028012991E0,-2.487217426E0,1.078985333E0
4.885037725E0,2.440334797E0,-2.536695957E0,1.810780287E0
4.887463663E0,2.819136381E0,-2.544636965E0,2.511422157E0
4.889889600E0,3.160600185E0,-2.510429621E0,3.179765463E0
4.892315538E0,3.456861019E0,-2.433462858E0,3.808938026E0
4.894741475E0,3.709141016E0,-2.320456028E0,4.397183895E0
4.897167413E0,3.911331415E0,-2.169576645E0,4.945724964E0
4.899593350E0,4.066486359E0,-1.983879209E0,5.460669041E0
4.902019288E0,4.181325912E0,-1.767028451E0,5.931097984E0
4.904445225E0,4.250351429E0,-1.530019641E0,6.356247425E0
4.906871163E0,4.273563862E0,-1.288658619E0,6.723977566E0
4.909297048E0,4.241799831E0,-1.055925846E0,7.026957989E0
4.911722986E0,4.161778927E0,-8.378533721E-1,7.263355732E0
4.914148923E0,4.028003216E0,-6.460473537E-1,7.434392929E0
4.916574861E0,3.842916489E0,-4.817294180E-1,7.540680408E0
4.919000798E0,3.616903067E0,-3.357369304E-1,7.590158939E0
4.921426736E0,3.360957861E0,-2.001288384E-1,7.585272312E0
4.923852673E0,3.093406916E0,-6.879667193E-2,7.532128334E0
4.926278611E0,2.824023247E0,6.131379306E-2,7.434392929E0
4.928704548E0,2.566780090E0,1.944784969E-1,7.292065620E0
4.931130486E0,2.327327967E0,3.319191337E-1,7.108811378E0
4.933556423E0,2.108033895E0,4.742465317E-1,6.888906479E0
4.935982361E0,1.910730243E0,6.208499074E-1,6.633572102E0
4.938408298E0,1.735417008E0,7.747833729E-1,6.345252037E0
4.940834236E0,1.579650998E0,9.293277264E-1,6.028222561E0
4.943260173E0,1.446486354E0,1.084482908E0,5.690958500E0
4.945686059E0,1.336533785E0,1.239103675E0,5.339110374E0
4.948111996E0,1.247960925E0,1.389982939E0,4.979932308E0
4.950537934E0,1.177102685E0,1.536586285E0,4.623808384E0
4.952963871E0,1.120904684E0,1.668529272E0,4.271960258E0
4.955389809E0,1.071426034E0,1.786422849E0,3.928664207E0
4.957815746E0,1.029277682E0,1.887212634E0,3.589643955E0
4.960241684E0,9.865183234E-1,1.972731233E0,3.254899502E0
4.962667621E0,9.480349422E-1,2.041146040E0,2.917635679E0
4.965093559E0,9.144383669E-1,2.094289780E0,2.578004599E0
4.967519496E0,8.869501948E-1,2.135827541E0,2.230432510E0
4.969945434E0,8.698465228E-1,2.171256542E0,1.874919295E0
4.972371371E0,8.619054556E-1,2.195690393E0,1.505967617E0
4.974797309E0,8.643488884E-1,2.209739923E0,1.125409722E0
4.977223246E0,8.729007244E-1,2.212183237E0,7.326349020E-1
4.979649131E0,8.900044560E-1,2.200577259E0,3.269560039E-1
4.982075121E0,9.095515609E-1,2.176143408E0,-8.719844371E-2
4.984501006E0,9.327637553E-1,2.135827541E0,-5.062396526E-1
4.986926944E0,9.584193230E-1,2.080240250E0,-9.271134138E-1
4.989352881E0,9.791881442E-1,2.012436390E0,-1.348598003E0
4.991778819E0,9.950701594E-1,1.933637023E0,-1.767028451E0
4.994204756E0,1.002400398E0,1.842009902E0,-2.178739548E0
4.996630694E0,9.975135922E-1,1.743663549E0,-2.583807468E0
4.999056631E0,9.767447710E-1,1.631267548E0,-2.977803946E0
5.001482569E0,9.400939345E-1,1.505433083E0,-3.358972788E0
5.003908506E0,8.820634484E-1,1.368603230E0,-3.722426891E0
5.006334444E0,8.044858575E-1,1.223221660E0,-4.071831703E0
5.008760381E0,7.079719901E-1,1.081428766E0,-4.404132366E0
5.011186319E0,5.870242119E-1,9.525399208E-1,-4.718107700E0
5.013612256E0,4.428642690E-1,8.462525010E-1,-5.013834476E0
5.016038142E0,2.712161839E-1,7.723399997E-1,-5.290548325E0
5.018464079E0,7.391251624E-2,7.265264392E-1,-5.552601814E0
5.020890017E0,-1.515664756E-1,7.045359612E-1,-5.800605774E0
5.023315954E0,-4.014030099E-1,7.075902224E-1,-6.036392689E0
5.025741892E0,-6.781167984E-1,7.375217080E-1,-6.257519245E0
5.028167829E0,-9.792644978E-1,7.900545597E-1,-6.473759174E0
5.030593767E0,-1.303013563E0,8.590803146E-1,-6.680225849E0
5.033019704E0,-1.645698905E0,9.421555400E-1,-6.877529144E0
5.035445642E0,-2.005487919E0,1.029506683E0,-7.071778774E0
5.037871579E0,-2.373218060E0,1.121744633E0,-7.259308815E0
5.040297517E0,-2.745300293E0,1.212837219E0,-7.438898087E0
5.042723454E0,-3.108754396E0,1.299577594E0,-7.611767769E0
5.045149392E0,-3.459380627E0,1.380820274E0,-7.776772976E0
5.047575329E0,-3.792292595E0,1.458397865E0,-7.930095673E0
5.050001215E0,-4.097105503E0,1.532310367E0,-8.071811676E0
5.052427152E0,-4.368932247E0,1.596449256E0,-8.196424484E0
5.054853090E0,-4.604719162E0,1.649592996E0,-8.300879478E0
5.057279027E0,-4.797747135E0,1.686243892E0,-8.376013756E0
5.059704965E0,-4.937631130E0,1.703958392E0,-8.413886070E0
