"Time (s)","Acceleration x (m/s^2)","Acceleration y (m/s^2)","Acceleration z (m/s^2)","Absolute acceleration (m/s^2)"
2.241255500E-2,-1.022931710E-1,-9.926026344E0,2.901297435E-2,9.926595823E0
2.483672200E-2,-9.990034252E-2,-9.897313118E0,-4.995017126E-2,9.897943324E0
2.726141000E-2,-9.272187948E-2,-9.918848038E0,-7.387840003E-2,9.919556530E0
2.968557600E-2,-9.511470050E-2,-9.923633575E0,-3.080759197E-2,9.924137204E0
3.210974300E-2,-8.554340899E-2,-9.909276962E0,-4.755735025E-2,9.909760304E0
3.453417000E-2,-9.511470050E-2,-9.918848038E0,-6.430710852E-2,9.919512519E0
3.695823200E-2,-9.032905847E-2,-9.911669731E0,-2.362912335E-2,9.912109490E0
3.938286800E-2,-9.272187948E-2,-9.909276962E0,-4.277170449E-2,9.909803060E0
4.180719100E-2,-9.750752151E-2,-9.928419113E0,-5.712864175E-2,9.929062266E0
4.423104500E-2,-1.118644550E-1,-9.887741089E0,-5.234299600E-2,9.888512390E0
4.665521200E-2,-8.554340899E-2,-9.904491425E0,-5.234299600E-2,9.904999134E0
4.907953500E-2,-1.070788130E-1,-9.880562782E0,-5.712864175E-2,9.881308134E0
5.150338900E-2,-1.381855011E-1,-9.885348320E0,-4.995017126E-2,9.886440293E0
5.392792000E-2,-1.310070455E-1,-9.909276962E0,-4.277170449E-2,9.910235223E0
5.635292000E-2,-1.238285750E-1,-9.892526627E0,-4.755735025E-2,9.893415905E0
5.877713900E-2,-9.511470050E-2,-9.897313118E0,-5.473581702E-2,9.897921487E0
6.120114900E-2,-1.310070455E-1,-9.904491425E0,-4.516452923E-2,9.905460770E0
6.362583700E-2,-1.022931710E-1,-9.894919395E0,-3.320041299E-2,9.895503828E0
6.605068000E-2,-1.022931710E-1,-9.906884193E0,-2.362912335E-2,9.907440469E0
6.847521200E-2,-9.750752151E-2,-9.904491425E0,-5.234299600E-2,9.905109686E0
7.089969100E-2,-1.142572835E-1,-9.873384476E0,-3.798605874E-2,9.874118628E0
7.332401400E-2,-9.511470050E-2,-9.911669731E0,-4.277170449E-2,9.912218374E0
7.574828500E-2,-1.046859920E-1,-9.890133858E0,-5.473581702E-2,9.890839342E0
7.817271200E-2,-1.262213886E-1,-9.904491425E0,-6.669992954E-2,9.905520234E0
8.059693000E-2,-9.990034252E-2,-9.899705887E0,-4.277170449E-2,9.900302326E0
8.302068000E-2,-1.094716340E-1,-9.902098656E0,-4.037888348E-2,9.902786087E0
8.544484700E-2,-1.022931710E-1,-9.916455269E0,-3.320041299E-2,9.917038432E0
8.786932600E-2,-8.075776696E-2,-9.899705887E0,-2.841476910E-2,9.900076053E0
9.029411800E-2,-1.070788130E-1,-9.904491425E0,-2.841476910E-2,9.905110986E0
9.271844100E-2,-9.990034252E-2,-9.897313118E0,-4.755735025E-2,9.897931538E0
9.514266000E-2,-8.793623000E-2,-9.897313118E0,-2.362912335E-2,9.897731966E0
9.756651400E-2,-9.750752151E-2,-9.904491425E0,-4.277170449E-2,9.905063731E0
9.999052400E-2,-9.511470050E-2,-9.894919395E0,-5.234299600E-2,9.895514966E0
1.024145870E-1,-9.750752151E-2,-9.904491425E0,-5.473581702E-2,9.905122619E0
1.048386490E-1,-1.094716340E-1,-9.909276962E0,-4.277170449E-2,9.909973934E0
1.072629720E-1,-9.511470050E-2,-9.904491425E0,-3.320041299E-2,9.905003758E0
1.096875550E-1,-9.750752151E-2,-9.914062500E0,-6.191428751E-2,9.914735314E0
1.121115140E-1,-9.990034252E-2,-9.906884193E0,-4.516452923E-2,9.907490819E0
1.145347950E-1,-7.597211748E-2,-9.897313118E0,-4.995017126E-2,9.897730737E0
1.169590140E-1,-9.990034252E-2,-9.885348320E0,-5.712864175E-2,9.886018165E0
1.193831280E-1,-6.640082598E-2,-9.909276962E0,-4.037888348E-2,9.909581698E0
1.218074510E-1,-7.357929647E-2,-9.906884193E0,-5.234299600E-2,9.907295702E0
1.242317220E-1,-8.315058798E-2,-9.916455269E0,-4.755735025E-2,9.916917909E0
1.266563570E-1,-1.046859920E-1,-9.916455269E0,-4.755735025E-2,9.917121859E0
1.290802640E-1,-9.511470050E-2,-9.918848038E0,-3.559323773E-2,9.919367927E0
1.315043780E-1,-9.511470050E-2,-9.909276962E0,-4.277170449E-2,9.909825737E0
1.339289620E-1,-1.214357466E-1,-9.904491425E0,-3.798605874E-2,9.905308676E0
1.363530240E-1,-1.118644550E-1,-9.916455269E0,-2.602194622E-2,9.917120343E0
1.387774510E-1,-1.286142170E-1,-9.918848038E0,-3.798605874E-2,9.919754581E0
1.412022430E-1,-8.793623000E-2,-9.909276962E0,-3.080759197E-2,9.909715021E0
1.436267740E-1,-9.272187948E-2,-9.906884193E0,-3.559323773E-2,9.907382028E0
1.460513050E-1,-8.793623000E-2,-9.918848038E0,-3.798605874E-2,9.919310567E0
1.484757850E-1,-1.070788130E-1,-9.904491425E0,-4.516452923E-2,9.905173198E0
1.508996910E-1,-1.046859920E-1,-9.887741089E0,-4.516452923E-2,9.888398396E0
1.533239620E-1,-1.286142170E-1,-9.902098656E0,-4.277170449E-2,9.903026246E0
1.557479720E-1,-1.190429255E-1,-9.873384476E0,-4.037888348E-2,9.874184659E0
1.581721910E-1,-1.142572835E-1,-9.923633575E0,-4.995017126E-2,9.924417015E0
1.605962530E-1,-1.118644550E-1,-9.911669731E0,-5.712864175E-2,9.912465596E0
1.630205240E-1,-1.022931710E-1,-9.911669731E0,-2.123630047E-2,9.912220323E0
1.654439100E-1,-1.333998591E-1,-9.897313118E0,-2.362912335E-2,9.898240289E0
1.678675030E-1,-1.118644550E-1,-9.918848038E0,-3.798605874E-2,9.919551552E0
1.702915140E-1,-1.262213886E-1,-9.914062500E0,-3.559323773E-2,9.914929852E0
1.727156800E-1,-9.272187948E-2,-9.909276962E0,-3.559323773E-2,9.909774677E0
1.751395870E-1,-1.238285750E-1,-9.904491425E0,-3.080759197E-2,9.905313372E0
1.775633890E-1,-1.166501045E-1,-9.928419113E0,-3.080759197E-2,9.929152151E0
1.799871910E-1,-1.094716340E-1,-9.923633575E0,-2.602194622E-2,9.924271486E0
1.824111490E-1,-1.022931710E-1,-9.902098656E0,-3.080759197E-2,9.902674931E0
1.848356280E-1,-8.554340899E-2,-9.916455269E0,-3.080759197E-2,9.916872082E0
1.872594820E-1,-9.990034252E-2,-9.909276962E0,-2.123630047E-2,9.909803276E0
1.896838050E-1,-9.511470050E-2,-9.909276962E0,-5.234299600E-2,9.909871670E0
1.921081280E-1,-1.070788130E-1,-9.885348320E0,-5.712864175E-2,9.886093311E0
1.945327120E-1,-1.046859920E-1,-9.894919395E0,-4.995017126E-2,9.895599225E0
1.969570870E-1,-9.990034252E-2,-9.923633575E0,-2.841476910E-2,9.924177085E0
1.993807850E-1,-1.262213886E-1,-9.916455269E0,-4.037888348E-2,9.917340742E0
2.018052120E-1,-8.315058798E-2,-9.894919395E0,-4.995017126E-2,9.895394832E0
2.042301070E-1,-1.070788130E-1,-9.897313118E0,-3.080759197E-2,9.897940288E0
2.066545870E-1,-9.990034252E-2,-9.904491425E0,-2.602194622E-2,9.905029409E0
2.090787010E-1,-8.554340899E-2,-9.902098656E0,-4.277170449E-2,9.902560521E0
2.115030760E-1,-9.272187948E-2,-9.902098656E0,-4.277170449E-2,9.902625134E0
2.139278160E-1,-9.750752151E-2,-9.918848038E0,-2.602194622E-2,9.919361434E0
2.163521390E-1,-9.511470050E-2,-9.909276962E0,-6.191428751E-2,9.909926846E0
2.187766180E-1,-9.990034252E-2,-9.911669731E0,-5.473581702E-2,9.912324296E0
2.212007850E-1,-1.094716340E-1,-9.887741089E0,-3.798605874E-2,9.888420037E0
2.236256280E-1,-1.022931710E-1,-9.909276962E0,-4.755735025E-2,9.909919047E0
2.260501070E-1,-7.836493850E-2,-9.899705887E0,-3.080759197E-2,9.900063980E0
2.284746910E-1,-7.597211748E-2,-9.928419113E0,-4.277170449E-2,9.928801905E0
2.308997430E-1,-1.022931710E-1,-9.885348320E0,-4.755735025E-2,9.885991958E0
2.333244300E-1,-7.836493850E-2,-9.887741089E0,-2.602194622E-2,9.888085864E0
2.357489100E-1,-9.511470050E-2,-9.899705887E0,-4.755735025E-2,9.900277024E0
2.381736490E-1,-1.310070455E-1,-9.906884193E0,-3.080759197E-2,9.907798261E0
2.405979200E-1,-1.214357466E-1,-9.902098656E0,-2.123630047E-2,9.902866020E0
2.430219820E-1,-1.070788130E-1,-9.911669731E0,-2.362912335E-2,9.912276281E0
2.454471390E-1,-9.750752151E-2,-9.914062500E0,-3.320041299E-2,9.914597583E0
2.478715660E-1,-1.190429255E-1,-9.909276962E0,-3.320041299E-2,9.910047598E0
2.502954720E-1,-1.142572835E-1,-9.892526627E0,-3.320041299E-2,9.893242141E0
2.527191180E-1,-9.990034252E-2,-9.902098656E0,-3.559323773E-2,9.902666547E0
2.551432850E-1,-8.793623000E-2,-9.926026344E0,-2.362912335E-2,9.926443981E0
2.575679720E-1,-9.272187948E-2,-9.892526627E0,-4.995017126E-2,9.893087254E0
2.599929720E-1,-1.022931710E-1,-9.894919395E0,-5.473581702E-2,9.895599514E0
2.624176070E-1,-9.990034252E-2,-9.892526627E0,-4.037888348E-2,9.893113443E0
2.648418260E-1,-9.032905847E-2,-9.897313118E0,-4.755735025E-2,9.897839562E0
2.672664100E-1,-1.094716340E-1,-9.923633575E0,-2.602194622E-2,9.924271486E0
2.696909930E-1,-1.070788130E-1,-9.894919395E0,-3.320041299E-2,9.895554456E0
2.721152640E-1,-8.793623000E-2,-9.899705887E0,-4.995017126E-2,9.900222444E0
2.745405240E-1,-1.046859920E-1,-9.902098656E0,-3.798605874E-2,9.902724872E0
2.769648990E-1,-1.142572835E-1,-9.911669731E0,-2.362912335E-2,9.912356426E0
2.793891700E-1,-9.750752151E-2,-9.918848038E0,-1.884347759E-2,9.919345200E0
2.818132320E-1,-1.046859920E-1,-9.916455269E0,-4.516452923E-2,9.917110673E0
2.842370870E-1,-1.070788130E-1,-9.921240807E0,-3.080759197E-2,9.921866464E0
2.866606800E-1,-1.070788130E-1,-9.904491425E0,-4.037888348E-2,9.905152533E0
2.890852640E-1,-1.190429255E-1,-9.906884193E0,-2.841476910E-2,9.907640135E0
2.915099510E-1,-1.022931710E-1,-9.916455269E0,-3.320041299E-2,9.917038432E0
2.939340140E-1,-1.238285750E-1,-9.897313118E0,-5.473581702E-2,9.898239060E0
2.963580760E-1,-9.750752151E-2,-9.914062500E0,-1.405783277E-2,9.914551961E0
2.987823990E-1,-9.272187948E-2,-9.921240807E0,-3.798605874E-2,9.921746793E0
3.012067740E-1,-1.094716340E-1,-9.887741089E0,-5.712864175E-2,9.888512100E0
3.036313570E-1,-8.075776696E-2,-9.894919395E0,-4.277170449E-2,9.895341383E0
3.060563050E-1,-9.990034252E-2,-9.885348320E0,-6.191428751E-2,9.886046979E0
3.084803680E-1,-1.046859920E-1,-9.902098656E0,-3.798605874E-2,9.902724872E0
3.109048990E-1,-1.022931710E-1,-9.911669731E0,-4.516452923E-2,9.912300469E0
3.133291700E-1,-9.032905847E-2,-9.887741089E0,-6.191428751E-2,9.888347514E0
3.157540140E-1,-8.554340899E-2,-9.892526627E0,-5.234299600E-2,9.893034950E0
3.181780240E-1,-9.272187948E-2,-9.897313118E0,-3.798605874E-2,9.897820328E0
3.206025550E-1,-7.836493850E-2,-9.904491425E0,-3.798605874E-2,9.904874274E0
3.230268260E-1,-8.315058798E-2,-9.902098656E0,-3.320041299E-2,9.902503425E0
3.254510450E-1,-1.262213886E-1,-9.906884193E0,-3.320041299E-2,9.907743867E0
3.278754200E-1,-9.990034252E-2,-9.928419113E0,-4.277170449E-2,9.929013827E0
3.302994300E-1,-8.554340899E-2,-9.940383911E0,-4.277170449E-2,9.940843998E0
3.327226600E-1,-8.793623000E-2,-9.928419113E0,-4.516452923E-2,9.928911255E0
3.351467220E-1,-8.793623000E-2,-9.916455269E0,-3.798605874E-2,9.916917909E0
3.375702120E-1,-9.511470050E-2,-9.892526627E0,-2.602194622E-2,9.893018094E0
3.399938570E-1,-1.070788130E-1,-9.911669731E0,-5.712864175E-2,9.912412744E0
3.424175030E-1,-1.022931710E-1,-9.921240807E0,-3.798605874E-2,9.921840856E0
3.448417220E-1,-1.142572835E-1,-9.916455269E0,-4.995017126E-2,9.917239275E0
3.472659930E-1,-9.990034252E-2,-9.916455269E0,-2.841476910E-2,9.916999172E0
3.496900550E-1,-9.990034252E-2,-9.894919395E0,-2.362912335E-2,9.895451898E0
3.521142740E-1,-1.094716340E-1,-9.909276962E0,-4.516452923E-2,9.909984550E0
3.545384930E-1,-8.554340899E-2,-9.887741089E0,-5.234299600E-2,9.888249658E0
3.569632320E-1,-9.511470050E-2,-9.923633575E0,-4.755735025E-2,9.924203336E0
3.593869300E-1,-1.142572835E-1,-9.899705887E0,-3.798605874E-2,9.900438087E0
3.618111490E-1,-1.286142170E-1,-9.894919395E0,-5.234299600E-2,9.895893656E0
3.642358890E-1,-1.262213886E-1,-9.916455269E0,-3.559323773E-2,9.917322412E0
3.666605760E-1,-9.272187948E-2,-9.906884193E0,-5.234299600E-2,9.907456362E0
3.690852120E-1,-1.022931710E-1,-9.911669731E0,-4.277170449E-2,9.912289855E0
3.715093260E-1,-9.750752151E-2,-9.904491425E0,-5.712864175E-2,9.905136131E0
3.739333890E-1,-1.214357466E-1,-9.923633575E0,-5.712864175E-2,9.924540980E0
3.763578680E-1,-1.214357466E-1,-9.935597420E0,-5.712864175E-2,9.936503732E0
3.787821390E-1,-9.750752151E-2,-9.904491425E0,-4.516452923E-2,9.905074353E0
3.812065660E-1,-1.046859920E-1,-9.923633575E0,-3.320041299E-2,9.924241269E0
3.836304720E-1,-8.793623000E-2,-9.892526627E0,-2.841476910E-2,9.892958265E0
3.860542220E-1,-9.750752151E-2,-9.897313118E0,-4.516452923E-2,9.897896469E0
3.884784930E-1,-9.511470050E-2,-9.899705887E0,-4.755735025E-2,9.900277024E0
3.909026070E-1,-1.142572835E-1,-9.921240807E0,-5.473581702E-2,9.922049681E0
3.933270870E-1,-9.750752151E-2,-9.902098656E0,-3.798605874E-2,9.902651587E0
3.957513570E-1,-9.750752151E-2,-9.899705887E0,-3.080759197E-2,9.900234011E0
3.981763570E-1,-1.022931710E-1,-9.890133858E0,-5.712864175E-2,9.890827837E0
4.006006280E-1,-8.315058798E-2,-9.887741089E0,-3.798605874E-2,9.888163672E0
4.030245870E-1,-9.750752151E-2,-9.914062500E0,-4.037888348E-2,9.914624220E0
4.054485450E-1,-1.022931710E-1,-9.911669731E0,-1.645065658E-2,9.912211225E0
4.078722430E-1,-9.272187948E-2,-9.909276962E0,-3.320041299E-2,9.909766371E0
4.102966700E-1,-8.075776696E-2,-9.909276962E0,-2.841476910E-2,9.909646771E0
4.127213050E-1,-7.118647546E-2,-9.911669731E0,-4.995017126E-2,9.912051220E0
4.151450550E-1,-8.793623000E-2,-9.906884193E0,-4.516452923E-2,9.907377405E0
4.175691180E-1,-8.554340899E-2,-9.897313118E0,-3.798605874E-2,9.897755684E0
4.199937530E-1,-1.214357466E-1,-9.918848038E0,-4.037888348E-2,9.919673558E0
4.224184410E-1,-1.022931710E-1,-9.911669731E0,-5.234299600E-2,9.912335776E0
4.248432850E-1,-1.118644550E-1,-9.921240807E0,-3.320041299E-2,9.921926983E0
4.272679720E-1,-9.750752151E-2,-9.914062500E0,-4.516452923E-2,9.914644865E0
4.296923470E-1,-9.990034252E-2,-9.897313118E0,-4.516452923E-2,9.897920330E0
4.321173470E-1,-9.272187948E-2,-9.926026344E0,-4.277170449E-2,9.926551554E0
4.345430760E-1,-1.190429255E-1,-9.911669731E0,-2.602194622E-2,9.912418737E0
4.369671910E-1,-1.286142170E-1,-9.928419113E0,-3.798605874E-2,9.929324783E0
4.393915660E-1,-8.075776696E-2,-9.916455269E0,-1.166501082E-2,9.916790962E0
4.418167220E-1,-9.750752151E-2,-9.914062500E0,-3.080759197E-2,9.914589859E0
4.442416700E-1,-9.272187948E-2,-9.916455269E0,-4.277170449E-2,9.916980985E0
4.466651600E-1,-8.315058798E-2,-9.914062500E0,-3.559323773E-2,9.914475082E0
4.490894300E-1,-1.118644550E-1,-9.899705887E0,-5.473581702E-2,9.900489196E0
4.515140660E-1,-1.094716340E-1,-9.916455269E0,-3.320041299E-2,9.917115075E0
4.539379720E-1,-1.118644550E-1,-9.899705887E0,-3.798605874E-2,9.900410761E0
4.563625550E-1,-1.022931710E-1,-9.909276962E0,-4.516452923E-2,9.909907852E0
4.587876070E-1,-1.118644550E-1,-9.921240807E0,-4.755735025E-2,9.921985411E0
4.612128680E-1,-1.118644550E-1,-9.894919395E0,-4.037888348E-2,9.895634085E0
4.636375030E-1,-1.142572835E-1,-9.904491425E0,-2.123630047E-2,9.905173198E0
4.660616180E-1,-1.022931710E-1,-9.904491425E0,-4.037888348E-2,9.905101954E0
4.684857850E-1,-1.118644550E-1,-9.916455269E0,-3.320041299E-2,9.917141777E0
4.709107850E-1,-9.990034252E-2,-9.918848038E0,-4.995017126E-2,9.919476876E0
4.733356800E-1,-1.190429255E-1,-9.902098656E0,-5.952146277E-2,9.902993073E0
4.757597430E-1,-1.238285750E-1,-9.899705887E0,-4.755735025E-2,9.900594521E0
4.781840140E-1,-9.990034252E-2,-9.909276962E0,-3.798605874E-2,9.909853326E0
4.806091180E-1,-1.094716340E-1,-9.904491425E0,-2.841476910E-2,9.905137143E0
4.830333890E-1,-9.032905847E-2,-9.899705887E0,-4.755735025E-2,9.900232204E0
4.854577640E-1,-9.511470050E-2,-9.902098656E0,-4.755735025E-2,9.902669655E0
4.878819820E-1,-9.990034252E-2,-9.926026344E0,-4.037888348E-2,9.926611180E0
4.903065660E-1,-9.511470050E-2,-9.935597420E0,-4.037888348E-2,9.936134729E0
4.927312530E-1,-8.793623000E-2,-9.918848038E0,-5.712864175E-2,9.919402344E0
4.951556800E-1,-9.511470050E-2,-9.899705887E0,-4.995017126E-2,9.900288807E0
4.975800550E-1,-9.032905847E-2,-9.885348320E0,-4.995017126E-2,9.885887202E0
5.000044300E-1,-8.793623000E-2,-9.906884193E0,-3.798605874E-2,9.907347281E0
5.024287010E-1,-1.214357466E-1,-9.904491425E0,-4.277170449E-2,9.905328184E0
5.048534930E-1,-9.750752151E-2,-9.906884193E0,-1.884347759E-2,9.907381956E0
5.072780760E-1,-9.750752151E-2,-9.914062500E0,-5.473581702E-2,9.914693086E0
5.097028160E-1,-1.142572835E-1,-9.906884193E0,-5.952146277E-2,9.907721835E0
5.121278680E-1,-8.315058798E-2,-9.916455269E0,-4.277170449E-2,9.916896114E0
5.145532320E-1,-1.214357466E-1,-9.914062500E0,-5.234299600E-2,9.914944361E0
5.169777640E-1,-1.310070455E-1,-9.928419113E0,-4.277170449E-2,9.929375527E0
5.194025030E-1,-1.094716340E-1,-9.916455269E0,-3.080759197E-2,9.917107353E0
5.218273470E-1,-1.094716340E-1,-9.909276962E0,-3.559323773E-2,9.909945551E0
5.242518780E-1,-8.793623000E-2,-9.918848038E0,-3.559323773E-2,9.919301692E0
5.266763570E-1,-8.554340899E-2,-9.911669731E0,-4.516452923E-2,9.912141765E0
5.291004720E-1,-9.272187948E-2,-9.911669731E0,-4.516452923E-2,9.912206315E0
5.315247950E-1,-8.315058798E-2,-9.933204651E0,-3.320041299E-2,9.933608152E0
5.339497430E-1,-9.750752151E-2,-9.909276962E0,-2.123630047E-2,9.909779443E0
5.363742740E-1,-9.990034252E-2,-9.923633575E0,-2.841476910E-2,9.924177085E0
5.387986490E-1,-1.046859920E-1,-9.911669731E0,-5.234299600E-2,9.912360758E0
5.412233370E-1,-9.990034252E-2,-9.935597420E0,-4.516452923E-2,9.936202293E0
5.436478160E-1,-1.046859920E-1,-9.916455269E0,-4.037888348E-2,9.917090032E0
5.460726070E-1,-1.286142170E-1,-9.914062500E0,-3.798605874E-2,9.914969481E0
5.484973990E-1,-1.070788130E-1,-9.911669731E0,-1.884347759E-2,9.912266028E0
5.509225550E-1,-1.166501045E-1,-9.894919395E0,-4.277170449E-2,9.895699395E0
5.533472430E-1,-9.990034252E-2,-9.899705887E0,-4.037888348E-2,9.900292277E0
5.557723470E-1,-8.075776696E-2,-9.933204651E0,-4.516452923E-2,9.933635603E0
5.581974510E-1,-1.142572835E-1,-9.909276962E0,-4.277170449E-2,9.910027955E0
5.606218260E-1,-8.793623000E-2,-9.890133858E0,-3.320041299E-2,9.890580507E0
5.630462010E-1,-8.554340899E-2,-9.902098656E0,-3.320041299E-2,9.902523806E0
5.654698470E-1,-1.357926875E-1,-9.914062500E0,-4.755735025E-2,9.915106485E0
5.678945350E-1,-1.094716340E-1,-9.926026344E0,-4.755735025E-2,9.926743914E0
5.703192740E-1,-9.272187948E-2,-9.880562782E0,-3.320041299E-2,9.881053613E0
5.727435970E-1,-9.032905847E-2,-9.899705887E0,-3.559323773E-2,9.900181961E0
5.751675550E-1,-1.094716340E-1,-9.911669731E0,-4.995017126E-2,9.912400109E0
5.775925030E-1,-1.142572835E-1,-9.914062500E0,-5.952146277E-2,9.914899535E0
5.800172430E-1,-1.022931710E-1,-9.890133858E0,-4.516452923E-2,9.890765969E0
5.824413050E-1,-8.315058798E-2,-9.894919395E0,-5.234299600E-2,9.895407200E0
5.848660450E-1,-1.094716340E-1,-9.902098656E0,-4.755735025E-2,9.902817959E0
5.872906800E-1,-9.272187948E-2,-9.904491425E0,-4.277170449E-2,9.905017776E0
5.897154720E-1,-1.238285750E-1,-9.916455269E0,-4.516452923E-2,9.917331216E0
5.921402120E-1,-9.511470050E-2,-9.916455269E0,-3.320041299E-2,9.916966985E0
5.945655760E-1,-9.750752151E-2,-9.892526627E0,-3.080759197E-2,9.893055134E0
5.969906800E-1,-1.022931710E-1,-9.887741089E0,-4.516452923E-2,9.888373353E0
5.994154200E-1,-1.118644550E-1,-9.887741089E0,-4.755735025E-2,9.888488216E0
6.018397950E-1,-1.166501045E-1,-9.897313118E0,-3.798605874E-2,9.898073406E0
6.042642740E-1,-1.070788130E-1,-9.911669731E0,-6.669992954E-2,9.912472528E0
6.066891180E-1,-1.238285750E-1,-9.914062500E0,-5.234299600E-2,9.914973957E0
6.091136490E-1,-1.190429255E-1,-9.894919395E0,-4.037888348E-2,9.895717837E0
6.115375550E-1,-1.118644550E-1,-9.897313118E0,-5.952146277E-2,9.898124237E0
6.139621390E-1,-8.793623000E-2,-9.921240807E0,-7.866404206E-2,9.921942348E0
6.163862010E-1,-8.793623000E-2,-9.926026344E0,-5.952146277E-2,9.926594309E0
6.188103680E-1,-1.166501045E-1,-9.899705887E0,-4.037888348E-2,9.900475461E0
6.212353680E-1,-9.511470050E-2,-9.911669731E0,-4.995017126E-2,9.912251948E0
6.236598470E-1,-1.166501045E-1,-9.904491425E0,-5.473581702E-2,9.905329557E0
6.260848470E-1,-1.166501045E-1,-9.870991707E0,-4.037888348E-2,9.871763519E0
6.285086490E-1,-9.272187948E-2,-9.906884193E0,-4.037888348E-2,9.907400377E0
6.309330240E-1,-1.094716340E-1,-9.904491425E0,-2.602194622E-2,9.905130568E0
6.333572430E-1,-8.554340899E-2,-9.894919395E0,-3.080759197E-2,9.895337115E0
6.357819300E-1,-7.597211748E-2,-9.894919395E0,-2.123630047E-2,9.895233832E0
6.382066700E-1,-9.511470050E-2,-9.914062500E0,-3.080759197E-2,9.914566615E0
6.406309930E-1,-9.511470050E-2,-9.906884193E0,-4.037888348E-2,9.907423060E0
6.430552120E-1,-9.990034252E-2,-9.906884193E0,-2.602194622E-2,9.907422048E0
6.454801600E-1,-9.990034252E-2,-9.902098656E0,-6.879365072E-3,9.902604970E0
6.479048470E-1,-7.357929647E-2,-9.892526627E0,-1.405783277E-2,9.892810248E0
6.503289620E-1,-1.094716340E-1,-9.902098656E0,-2.123630047E-2,9.902726534E0
6.527532850E-1,-8.554340899E-2,-9.909276962E0,-3.080759197E-2,9.909694077E0
6.551778160E-1,-9.750752151E-2,-9.899705887E0,-2.123630047E-2,9.900208854E0
6.576024510E-1,-8.554340899E-2,-9.899705887E0,-1.645065658E-2,9.900089138E0
6.600269820E-1,-1.022931710E-1,-9.911669731E0,-1.645065658E-2,9.912211225E0
6.624511490E-1,-1.142572835E-1,-9.914062500E0,-1.884347759E-2,9.914738779E0
6.648761490E-1,-9.272187948E-2,-9.904491425E0,-3.320041299E-2,9.904981070E0
6.673000550E-1,-1.070788130E-1,-9.909276962E0,-1.884347759E-2,9.909873403E0
6.697244300E-1,-1.190429255E-1,-9.894919395E0,-2.841476910E-2,9.895676251E0
6.721484930E-1,-1.022931710E-1,-9.904491425E0,-2.841476910E-2,9.905060407E0
6.745723990E-1,-1.166501045E-1,-9.914062500E0,-3.559323773E-2,9.914812625E0
6.769968260E-1,-1.094716340E-1,-9.897313118E0,-2.841476910E-2,9.897959304E0
6.794216700E-1,-1.070788130E-1,-9.911669731E0,-4.755735025E-2,9.912362202E0
6.818469300E-1,-1.070788130E-1,-9.897313118E0,-2.602194622E-2,9.897926549E0
6.842706280E-1,-1.142572835E-1,-9.909276962E0,-2.602194622E-2,9.909969817E0
6.866952120E-1,-1.262213886E-1,-9.887741089E0,-2.602194622E-2,9.888580931E0
6.891192220E-1,-1.094716340E-1,-9.918848038E0,-4.277170449E-2,9.919544337E0
6.915429200E-1,-1.070788130E-1,-9.921240807E0,-3.798605874E-2,9.921891350E0
6.939666180E-1,-1.070788130E-1,-9.909276962E0,-2.841476910E-2,9.909896225E0
6.963908370E-1,-9.511470050E-2,-9.937990189E0,-2.123630047E-2,9.938468030E0
6.988148990E-1,-1.022931710E-1,-9.911669731E0,-1.166501082E-2,9.912204438E0
7.012391700E-1,-8.315058798E-2,-9.894919395E0,-4.995017126E-2,9.895394832E0
7.036638050E-1,-8.315058798E-2,-9.904491425E0,-4.516452923E-2,9.904943424E0
7.060884930E-1,-1.094716340E-1,-9.902098656E0,-1.166501082E-2,9.902710634E0
7.085123990E-1,-9.990034252E-2,-9.897313118E0,-2.841476910E-2,9.897858073E0
7.109363570E-1,-7.118647546E-2,-9.916455269E0,-5.712864175E-2,9.916875329E0
7.133602120E-1,-9.750752151E-2,-9.926026344E0,-2.602194622E-2,9.926539369E0
7.157844300E-1,-8.315058798E-2,-9.916455269E0,-6.879365072E-3,9.916806262E0
7.182090660E-1,-9.990034252E-2,-9.930811882E0,-2.123630047E-2,9.931337055E0
7.206334930E-1,-8.554340899E-2,-9.918848038E0,-1.884347759E-2,9.919234807E0
7.230578680E-1,-1.070788130E-1,-9.911669731E0,-3.080759197E-2,9.912295992E0
7.254824510E-1,-9.990034252E-2,-9.887741089E0,-3.559323773E-2,9.888309805E0
7.279070870E-1,-9.032905847E-2,-9.892526627E0,-3.798605874E-2,9.893011945E0
7.303312010E-1,-1.070788130E-1,-9.914062500E0,-2.841476910E-2,9.914681464E0
7.327556800E-1,-9.750752151E-2,-9.914062500E0,-2.602194622E-2,9.914576144E0
7.351804720E-1,-9.511470050E-2,-9.904491425E0,-2.841476910E-2,9.904988874E0
7.376045870E-1,-7.357929647E-2,-9.923633575E0,-4.277170449E-2,9.923998522E0
7.400293780E-1,-8.793623000E-2,-9.916455269E0,-5.234299600E-2,9.916983295E0
7.424539620E-1,-9.272187948E-2,-9.918848038E0,-2.362912335E-2,9.919309557E0
7.448778680E-1,-1.214357466E-1,-9.892526627E0,-2.602194622E-2,9.893306163E0
7.473023470E-1,-1.238285750E-1,-9.909276962E0,-4.995017126E-2,9.910176510E0
7.497272430E-1,-1.046859920E-1,-9.897313118E0,-4.277170449E-2,9.897959160E0
7.521520870E-1,-1.142572835E-1,-9.906884193E0,-2.602194622E-2,9.907577216E0
7.545762530E-1,-1.022931710E-1,-9.904491425E0,-4.995017126E-2,9.905145597E0
7.570005240E-1,-7.836493850E-2,-9.909276962E0,-4.277170449E-2,9.909679127E0
7.594251600E-1,-9.750752151E-2,-9.892526627E0,-4.516452923E-2,9.893110260E0
7.618498470E-1,-9.990034252E-2,-9.897313118E0,-3.320041299E-2,9.897872969E0
7.642742220E-1,-1.118644550E-1,-9.909276962E0,-4.995017126E-2,9.910034238E0
7.666988050E-1,-9.511470050E-2,-9.906884193E0,-3.320041299E-2,9.907396403E0
7.691233890E-1,-9.272187948E-2,-9.940383911E0,-4.037888348E-2,9.940898355E0
7.715482320E-1,-1.262213886E-1,-9.930811882E0,-3.320041299E-2,9.931669484E0
7.739728160E-1,-1.262213886E-1,-9.942776680E0,-4.277170449E-2,9.943669814E0
7.763964620E-1,-1.046859920E-1,-9.904491425E0,-4.037888348E-2,9.905126955E0
7.788209930E-1,-1.046859920E-1,-9.937990189E0,-4.516452923E-2,9.938644172E0
7.812458890E-1,-1.262213886E-1,-9.904491425E0,-2.602194622E-2,9.905329846E0
7.836701070E-1,-9.990034252E-2,-9.926026344E0,-4.516452923E-2,9.926631800E0
7.860953160E-1,-1.070788130E-1,-9.914062500E0,-1.645065658E-2,9.914654394E0
7.885195870E-1,-9.511470050E-2,-9.902098656E0,-4.755735025E-2,9.902669655E0
7.909439620E-1,-1.166501045E-1,-9.909276962E0,-5.712864175E-2,9.910128195E0
7.933683370E-1,-1.142572835E-1,-9.914062500E0,-2.841476910E-2,9.914761590E0
7.957928160E-1,-1.022931710E-1,-9.894919395E0,-2.362912335E-2,9.895476344E0
7.982172950E-1,-9.750752151E-2,-9.916455269E0,-2.841476910E-2,9.916975356E0
8.006419300E-1,-1.166501045E-1,-9.906884193E0,-3.320041299E-2,9.907626554E0
8.030659930E-1,-1.046859920E-1,-9.914062500E0,-4.277170449E-2,9.914707451E0
8.054901070E-1,-7.597211748E-2,-9.906884193E0,-3.559323773E-2,9.907239427E0
8.079146910E-1,-9.272187948E-2,-9.909276962E0,-3.080759197E-2,9.909758643E0
8.103387530E-1,-1.046859920E-1,-9.909276962E0,-2.602194622E-2,9.909864087E0
8.127630760E-1,-9.272187948E-2,-9.914062500E0,-3.320041299E-2,9.914551673E0
8.151870350E-1,-1.142572835E-1,-9.937990189E0,-4.516452923E-2,9.938749597E0
8.176118260E-1,-9.511470050E-2,-9.911669731E0,-4.995017126E-2,9.912251948E0
8.200363050E-1,-9.272187948E-2,-9.899705887E0,-4.755735025E-2,9.900254325E0
8.224608370E-1,-7.357929647E-2,-9.904491425E0,-7.148557901E-2,9.905022690E0
8.248852120E-1,-9.511470050E-2,-9.892526627E0,-1.884347759E-2,9.893001816E0
8.273095350E-1,-8.315058798E-2,-9.885348320E0,-4.516452923E-2,9.885801195E0
8.297337010E-1,-9.272187948E-2,-9.890133858E0,-5.234299600E-2,9.890706995E0
8.321583890E-1,-9.750752151E-2,-9.892526627E0,-4.277170449E-2,9.893099625E0
8.345829720E-1,-1.022931710E-1,-9.899705887E0,-5.712864175E-2,9.900399195E0
8.370072950E-1,-1.022931710E-1,-9.902098656E0,-3.798605874E-2,9.902699865E0
8.394314100E-1,-1.094716340E-1,-9.916455269E0,-5.473581702E-2,9.917210553E0
8.418552640E-1,-9.511470050E-2,-9.921240807E0,-4.995017126E-2,9.921822462E0
8.442795870E-1,-1.046859920E-1,-9.904491425E0,-3.320041299E-2,9.905100292E0
8.467033890E-1,-9.990034252E-2,-9.899705887E0,-4.277170449E-2,9.900302326E0
8.491274510E-1,-9.272187948E-2,-9.926026344E0,-3.559323773E-2,9.926523219E0
8.515517220E-1,-1.142572835E-1,-9.909276962E0,-1.405783277E-2,9.909945624E0
8.539757320E-1,-9.511470050E-2,-9.909276962E0,-4.755735025E-2,9.909847548E0
8.564001070E-1,-1.190429255E-1,-9.894919395E0,-1.884347759E-2,9.895653396E0
8.588251600E-1,-1.238285750E-1,-9.902098656E0,-2.602194622E-2,9.902907070E0
8.612498470E-1,-9.750752151E-2,-9.904491425E0,-3.320041299E-2,9.905027025E0
8.636745870E-1,-9.272187948E-2,-9.892526627E0,-2.841476910E-2,9.893001961E0
8.660989620E-1,-9.272187948E-2,-9.947562218E0,-3.559323773E-2,9.948058017E0
8.685235970E-1,-1.238285750E-1,-9.904491425E0,-4.037888348E-2,9.905347765E0
8.709484410E-1,-1.022931710E-1,-9.923633575E0,-3.080759197E-2,9.924208600E0
8.733725030E-1,-1.070788130E-1,-9.897313118E0,-1.884347759E-2,9.897910280E0
8.757966700E-1,-1.022931710E-1,-9.904491425E0,-2.362912335E-2,9.905047835E0
8.782209930E-1,-1.094716340E-1,-9.904491425E0,-1.405783277E-2,9.905106362E0
8.806456280E-1,-1.262213886E-1,-9.921240807E0,-5.473581702E-2,9.922194666E0
8.830698990E-1,-9.272187948E-2,-9.904491425E0,-4.037888348E-2,9.905007732E0
8.854943780E-1,-7.597211748E-2,-9.916455269E0,-4.037888348E-2,9.916828491E0
8.879192740E-1,-9.750752151E-2,-9.935597420E0,-2.362912335E-2,9.936103972E0
8.903439620E-1,-7.597211748E-2,-9.945169449E0,-4.516452923E-2,9.945562174E0
8.927688050E-1,-7.597211748E-2,-9.923633575E0,-4.516452923E-2,9.924027153E0
8.951933370E-1,-1.094716340E-1,-9.880562782E0,-3.798605874E-2,9.881242223E0
8.976185970E-1,-8.793623000E-2,-9.923633575E0,-5.473581702E-2,9.924174128E0
9.000429720E-1,-9.990034252E-2,-9.914062500E0,-5.234299600E-2,9.914703986E0
9.024675030E-1,-8.793623000E-2,-9.906884193E0,-4.037888348E-2,9.907356744E0
9.048916700E-1,-9.990034252E-2,-9.894919395E0,-5.473581702E-2,9.895575068E0
9.073153680E-1,-1.190429255E-1,-9.904491425E0,-3.080759197E-2,9.905254702E0
9.097390660E-1,-9.990034252E-2,-9.894919395E0,-4.995017126E-2,9.895549754E0
9.121638050E-1,-1.310070455E-1,-9.911669731E0,-3.320041299E-2,9.912591083E0
9.145882320E-1,-1.046859920E-1,-9.911669731E0,-3.559323773E-2,9.912286461E0
9.170127640E-1,-9.272187948E-2,-9.904491425E0,-4.037888348E-2,9.905007732E0
9.194372430E-1,-9.272187948E-2,-9.897313118E0,-3.080759197E-2,9.897795381E0
9.218614620E-1,-9.272187948E-2,-9.902098656E0,-3.798605874E-2,9.902605620E0
9.242861490E-1,-1.094716340E-1,-9.906884193E0,-6.191428751E-2,9.907682466E0
9.267107320E-1,-1.310070455E-1,-9.902098656E0,-4.037888348E-2,9.903047566E0
9.291357850E-1,-1.142572835E-1,-9.918848038E0,-5.234299600E-2,9.919644193E0
9.315605760E-1,-7.836493850E-2,-9.906884193E0,-4.277170449E-2,9.907286455E0
9.339848990E-1,-1.214357466E-1,-9.899705887E0,-3.080759197E-2,9.900498593E0
9.364090660E-1,-1.094716340E-1,-9.902098656E0,-2.841476910E-2,9.902744530E0
9.388331280E-1,-1.070788130E-1,-9.916455269E0,-4.277170449E-2,9.917125611E0
9.412571390E-1,-9.272187948E-2,-9.921240807E0,-2.841476910E-2,9.921714766E0
9.436810970E-1,-9.990034252E-2,-9.918848038E0,-4.516452923E-2,9.919453932E0
9.461052640E-1,-9.511470050E-2,-9.909276962E0,-3.798605874E-2,9.909806237E0
9.485293260E-1,-9.511470050E-2,-9.914062500E0,-4.755735025E-2,9.914632810E0
9.509533370E-1,-9.511470050E-2,-9.887741089E0,-2.841476910E-2,9.888239380E0
9.533780760E-1,-7.597211748E-2,-9.921240807E0,-4.755735025E-2,9.921645660E0
9.558023990E-1,-1.094716340E-1,-9.930811882E0,-4.995017126E-2,9.931540852E0
9.582272950E-1,-8.315058798E-2,-9.904491425E0,-4.277170449E-2,9.904932802E0
9.606516700E-1,-9.272187948E-2,-9.894919395E0,-4.037888348E-2,9.895436203E0
9.630762010E-1,-8.315058798E-2,-9.935597420E0,-2.602194622E-2,9.935979431E0
9.655005240E-1,-1.094716340E-1,-9.911669731E0,-4.037888348E-2,9.912356498E0
9.679249510E-1,-9.272187948E-2,-9.926026344E0,-4.755735025E-2,9.926573328E0
9.703499510E-1,-1.070788130E-1,-9.902098656E0,-3.080759197E-2,9.902725522E0
9.727748990E-1,-8.315058798E-2,-9.923633575E0,-5.712864175E-2,9.924146363E0
9.751990660E-1,-9.990034252E-2,-9.928419113E0,-4.755735025E-2,9.929035596E0
9.776239100E-1,-8.315058798E-2,-9.890133858E0,-3.320041299E-2,9.890539116E0
9.800490660E-1,-7.836493850E-2,-9.902098656E0,-3.320041299E-2,9.902464396E0
9.824739100E-1,-8.315058798E-2,-9.914062500E0,-4.037888348E-2,9.914493418E0
9.848984930E-1,-9.511470050E-2,-9.878170013E0,-4.277170449E-2,9.878720516E0
9.873224510E-1,-9.032905847E-2,-9.890133858E0,-2.841476910E-2,9.890587165E0
9.897467220E-1,-8.793623000E-2,-9.902098656E0,-2.841476910E-2,9.902529877E0
9.921704720E-1,-9.990034252E-2,-9.899705887E0,-4.277170449E-2,9.900302326E0
9.945951070E-1,-8.315058798E-2,-9.906884193E0,-4.037888348E-2,9.907315423E0
9.970195350E-1,-9.750752151E-2,-9.911669731E0,-4.277170449E-2,9.912241623E0
9.994439620E-1,-9.032905847E-2,-9.928419113E0,-2.602194622E-2,9.928864113E0
1.001868805E0,-9.511470050E-2,-9.911669731E0,-2.362912335E-2,9.912154256E0
1.004293753E0,-1.142572835E-1,-9.914062500E0,-3.559323773E-2,9.914784761E0
1.006717868E0,-8.793623000E-2,-9.930811882E0,-3.080759197E-2,9.931248991E0
1.009142764E0,-9.272187948E-2,-9.921240807E0,-3.080759197E-2,9.921721907E0
1.011567035E0,-8.554340899E-2,-9.904491425E0,-3.320041299E-2,9.904916472E0
1.013991982E0,-1.118644550E-1,-9.904491425E0,-1.884347759E-2,9.905141045E0
1.016416826E0,-9.511470050E-2,-9.902098656E0,-2.093719784E-3,9.902555679E0
1.018841097E0,-1.094716340E-1,-9.885348320E0,-9.272187948E-3,9.885958801E0
1.021265680E0,-1.190429255E-1,-9.918848038E0,-4.516452923E-2,9.919665188E0
1.023690212E0,-1.381855011E-1,-9.921240807E0,-3.320041299E-2,9.922258646E0
1.026114691E0,-1.118644550E-1,-9.892526627E0,-2.123630047E-2,9.893181879E0
1.028539535E0,-9.990034252E-2,-9.918848038E0,-3.080759197E-2,9.919398953E0
1.030963701E0,-1.070788130E-1,-9.911669731E0,-3.080759197E-2,9.912295992E0
1.033388128E0,-9.750752151E-2,-9.906884193E0,-2.602194622E-2,9.907398209E0
1.035812191E0,-1.142572835E-1,-9.904491425E0,-2.362912335E-2,9.905178617E0
1.038236618E0,-1.166501045E-1,-9.923633575E0,-2.841476910E-2,9.924359827E0
1.040660993E0,-1.238285750E-1,-9.914062500E0,-4.516452923E-2,9.914938659E0
1.043086045E0,-1.142572835E-1,-9.926026344E0,-4.277170449E-2,9.926776069E0
1.045511670E0,-1.286142170E-1,-9.961918831E0,-3.559323773E-2,9.962812619E0
1.047937139E0,-9.750752151E-2,-9.918848038E0,-2.841476910E-2,9.919368000E0
1.050362087E0,-1.286142170E-1,-9.890133858E0,-4.516452923E-2,9.891073206E0
1.052786774E0,-1.214357466E-1,-9.918848038E0,-4.755735025E-2,9.919705376E0
1.055210732E0,-1.214357466E-1,-9.916455269E0,-4.516452923E-2,9.917301628E0
1.057634691E0,-9.750752151E-2,-9.894919395E0,-4.277170449E-2,9.895492255E0
1.060059951E0,-1.046859920E-1,-9.904491425E0,-5.234299600E-2,9.905182953E0
1.062485003E0,-8.075776696E-2,-9.940383911E0,-5.234299600E-2,9.940849758E0
1.064909795E0,-1.022931710E-1,-9.911669731E0,-3.080759197E-2,9.912245450E0
1.067334118E0,-1.190429255E-1,-9.916455269E0,-4.277170449E-2,9.917262008E0
1.069758857E0,-8.554340899E-2,-9.928419113E0,-6.909275055E-2,9.929028027E0
1.072184222E0,-8.075776696E-2,-9.906884193E0,-3.559323773E-2,9.907277281E0
1.074609066E0,-9.750752151E-2,-9.899705887E0,-5.473581702E-2,9.900337387E0
1.077032920E0,-1.022931710E-1,-9.918848038E0,-3.559323773E-2,9.919439357E0
1.079456982E0,-1.190429255E-1,-9.930811882E0,-5.234299600E-2,9.931663287E0
1.081880993E0,-8.315058798E-2,-9.914062500E0,-3.559323773E-2,9.914475082E0
1.084305472E0,-1.022931710E-1,-9.887741089E0,-2.841476910E-2,9.888311035E0
1.086730264E0,-8.075776696E-2,-9.916455269E0,-5.473581702E-2,9.916935158E0
1.089154899E0,-1.094716340E-1,-9.904491425E0,-4.037888348E-2,9.905178690E0
1.091579430E0,-1.094716340E-1,-9.904491425E0,-4.755735025E-2,9.905210554E0
1.094004378E0,-7.357929647E-2,-9.914062500E0,-5.952146277E-2,9.914514208E0
1.096429743E0,-1.022931710E-1,-9.911669731E0,-6.909275055E-2,9.912438376E0
1.098854066E0,-7.597211748E-2,-9.902098656E0,-6.430710852E-2,9.902598899E0
1.101278649E0,-8.793623000E-2,-9.897313118E0,-4.755735025E-2,9.897818014E0
1.103703389E0,-9.032905847E-2,-9.882955551E0,-4.037888348E-2,9.883450825E0
1.106127660E0,-1.286142170E-1,-9.892526627E0,-4.277170449E-2,9.893455114E0
1.108552347E0,-9.511470050E-2,-9.909276962E0,-4.755735025E-2,9.909847548E0
1.110977399E0,-1.070788130E-1,-9.897313118E0,-7.387840003E-2,9.898168055E0
1.113402347E0,-1.118644550E-1,-9.904491425E0,-3.320041299E-2,9.905178762E0
1.115826722E0,-1.142572835E-1,-9.894919395E0,-4.037888348E-2,9.895661424E0
1.118251253E0,-1.046859920E-1,-9.894919395E0,-6.191428751E-2,9.895666849E0
1.120675993E0,-1.238285750E-1,-9.906884193E0,-4.755735025E-2,9.907772183E0
1.123100316E0,-1.166501045E-1,-9.899705887E0,-5.234299600E-2,9.900531485E0
1.125524326E0,-1.262213886E-1,-9.911669731E0,-4.995017126E-2,9.912599241E0
1.127948701E0,-9.750752151E-2,-9.904491425E0,-5.952146277E-2,9.905150221E0
1.130373128E0,-1.094716340E-1,-9.897313118E0,-4.995017126E-2,9.898044555E0
1.132797920E0,-1.238285750E-1,-9.906884193E0,-4.755735025E-2,9.907772183E0
1.135222347E0,-1.046859920E-1,-9.897313118E0,-5.473581702E-2,9.898018091E0
1.137646722E0,-9.032905847E-2,-9.930811882E0,-6.430710852E-2,9.931430883E0
1.140070941E0,-1.118644550E-1,-9.921240807E0,-6.909275055E-2,9.922112003E0
1.142495264E0,-9.511470050E-2,-9.892526627E0,-5.712864175E-2,9.893148819E0
1.144919430E0,-1.094716340E-1,-9.897313118E0,-4.516452923E-2,9.898021561E0
1.147343389E0,-7.836493850E-2,-9.894919395E0,-5.473581702E-2,9.895381090E0
1.149767764E0,-1.262213886E-1,-9.921240807E0,-4.037888348E-2,9.922125853E0
1.152191982E0,-1.333998591E-1,-9.894919395E0,-3.798605874E-2,9.895891486E0
1.154616357E0,-1.214357466E-1,-9.904491425E0,-4.995017126E-2,9.905361782E0
1.157039639E0,-8.793623000E-2,-9.906884193E0,-6.669992954E-2,9.907498982E0
1.159463962E0,-1.214357466E-1,-9.914062500E0,-4.516452923E-2,9.914909063E0
1.161888024E0,-1.022931710E-1,-9.894919395E0,-4.277170449E-2,9.895540569E0
1.164311514E0,-1.118644550E-1,-9.909276962E0,-4.277170449E-2,9.910000655E0
1.166735055E0,-1.070788130E-1,-9.906884193E0,-4.277170449E-2,9.907555183E0
1.169159170E0,-9.990034252E-2,-9.892526627E0,-6.430710852E-2,9.893240043E0
1.171582764E0,-1.046859920E-1,-9.902098656E0,-5.952146277E-2,9.902830896E0
1.174006566E0,-8.793623000E-2,-9.897313118E0,-7.627122104E-2,9.897997628E0
1.176429899E0,-9.032905847E-2,-9.906884193E0,-5.234299600E-2,9.907434257E0
1.178853441E0,-1.046859920E-1,-9.892526627E0,-7.866404206E-2,9.893393262E0
1.181277451E0,-6.879365444E-2,-9.885348320E0,-6.430710852E-2,9.885796851E0
1.183701462E0,-8.315058798E-2,-9.882955551E0,-3.798605874E-2,9.883378339E0
1.186126045E0,-1.094716340E-1,-9.890133858E0,-6.191428751E-2,9.890933482E0
1.188550003E0,-1.094716340E-1,-9.904491425E0,-5.952146277E-2,9.905275222E0
1.190974691E0,-7.357929647E-2,-9.890133858E0,-6.430710852E-2,9.890616616E0
1.193398962E0,-9.990034252E-2,-9.892526627E0,-6.909275055E-2,9.893272307E0
1.195823232E0,-8.793623000E-2,-9.911669731E0,-5.234299600E-2,9.912198012E0
1.198246462E0,-1.118644550E-1,-9.899705887E0,-4.516452923E-2,9.900440906E0
1.200670212E0,-9.990034252E-2,-9.930811882E0,-4.995017126E-2,9.931439963E0
1.203094691E0,-1.094716340E-1,-9.921240807E0,-3.559323773E-2,9.921908590E0
1.205519326E0,-1.094716340E-1,-9.921240807E0,-3.798605874E-2,9.921917462E0
1.207943649E0,-9.511470050E-2,-9.911669731E0,-4.516452923E-2,9.912228987E0
1.210368180E0,-7.836493850E-2,-9.911669731E0,-4.995017126E-2,9.912105374E0
1.212792295E0,-1.094716340E-1,-9.899705887E0,-2.123630047E-2,9.900333917E0
1.215216045E0,-8.793623000E-2,-9.914062500E0,-3.559323773E-2,9.914516373E0
1.217640368E0,-9.990034252E-2,-9.909276962E0,-3.559323773E-2,9.909844442E0
1.220064222E0,-8.075776696E-2,-9.918848038E0,-6.669992954E-2,9.919401045E0
1.222489170E0,-1.022931710E-1,-9.899705887E0,-4.755735025E-2,9.900348592E0
1.224913389E0,-6.640082598E-2,-9.918848038E0,-2.602194622E-2,9.919104426E0
1.227338128E0,-6.640082598E-2,-9.899705887E0,-4.516452923E-2,9.900031593E0
1.229762347E0,-1.405783296E-1,-9.902098656E0,-4.277170449E-2,9.903188854E0
1.232186045E0,-1.142572835E-1,-9.933204651E0,-4.037888348E-2,9.933943820E0
1.234610680E0,-1.094716340E-1,-9.916455269E0,-3.798605874E-2,9.917132251E0
1.237034899E0,-1.118644550E-1,-9.885348320E0,-4.995017126E-2,9.886107428E0
1.239459587E0,-9.511470050E-2,-9.906884193E0,-2.602194622E-2,9.907374948E0
1.241883649E0,-1.166501045E-1,-9.923633575E0,-4.755735025E-2,9.924433097E0
1.244307660E0,-1.166501045E-1,-9.914062500E0,-4.277170449E-2,9.914840993E0
1.246731930E0,-1.022931710E-1,-9.914062500E0,-4.755735025E-2,9.914704274E0
1.249156253E0,-9.750752151E-2,-9.906884193E0,-3.559323773E-2,9.907427972E0
1.251580628E0,-7.597211748E-2,-9.923633575E0,-4.995017126E-2,9.924050087E0
1.254005107E0,-8.793623000E-2,-9.916455269E0,-6.191428751E-2,9.917038432E0
1.256429430E0,-1.046859920E-1,-9.899705887E0,-4.755735025E-2,9.900373604E0
1.258854066E0,-9.272187948E-2,-9.914062500E0,-5.473581702E-2,9.914647175E0
1.261278441E0,-9.272187948E-2,-9.899705887E0,-5.473581702E-2,9.900291410E0
1.263702868E0,-9.990034252E-2,-9.906884193E0,-4.755735025E-2,9.907502016E0
1.266126514E0,-9.272187948E-2,-9.890133858E0,-3.080759197E-2,9.890616471E0
1.268550420E0,-1.094716340E-1,-9.902098656E0,-4.995017126E-2,9.902829739E0
1.270974378E0,-9.511470050E-2,-9.875777245E0,-3.798605874E-2,9.876308315E0
1.273398910E0,-1.190429255E-1,-9.911669731E0,-6.191428751E-2,9.912577942E0
1.275823337E0,-9.272187948E-2,-9.906884193E0,-5.234299600E-2,9.907456362E0
1.278247660E0,-9.272187948E-2,-9.906884193E0,-5.712864175E-2,9.907482801E0
1.280672555E0,-8.315058798E-2,-9.880562782E0,-6.669992954E-2,9.881137778E0
1.283097087E0,-1.214357466E-1,-9.892526627E0,-6.191428751E-2,9.893465676E0
1.285521670E0,-1.046859920E-1,-9.894919395E0,-6.191428751E-2,9.895666849E0
1.287945680E0,-1.070788130E-1,-9.899705887E0,-5.473581702E-2,9.900436280E0
1.290370160E0,-8.793623000E-2,-9.897313118E0,-5.234299600E-2,9.897842165E0
1.292794899E0,-1.238285750E-1,-9.899705887E0,-4.995017126E-2,9.900606304E0
1.295219587E0,-9.750752151E-2,-9.923633575E0,-5.234299600E-2,9.924250644E0
1.297643910E0,-1.094716340E-1,-9.914062500E0,-5.234299600E-2,9.914805045E0
1.300068128E0,-9.750752151E-2,-9.930811882E0,-7.866404206E-2,9.931602106E0
1.302492972E0,-8.554340899E-2,-9.902098656E0,-5.712864175E-2,9.902632940E0
1.304917607E0,-8.793623000E-2,-9.890133858E0,-3.320041299E-2,9.890580507E0
1.307341462E0,-9.750752151E-2,-9.909276962E0,-4.516452923E-2,9.909859609E0
1.309765576E0,-8.315058798E-2,-9.899705887E0,-7.148557901E-2,9.900313170E0
1.312189326E0,-1.166501045E-1,-9.923633575E0,-3.080759197E-2,9.924366967E0
1.314612816E0,-9.272187948E-2,-9.921240807E0,-9.272187948E-3,9.921678410E0
1.317036045E0,-9.032905847E-2,-9.904491425E0,-6.191428751E-2,9.905096824E0
1.319459639E0,-9.990034252E-2,-9.918848038E0,-5.234299600E-2,9.919489214E0
1.321883128E0,-9.272187948E-2,-9.918848038E0,-3.798605874E-2,9.919354146E0
1.324306982E0,-8.554340899E-2,-9.921240807E0,-5.473581702E-2,9.921760571E0
1.326730628E0,-7.836493850E-2,-9.916455269E0,-6.191428751E-2,9.916958180E0
1.329154795E0,-9.272187948E-2,-9.906884193E0,-4.755735025E-2,9.907432234E0
1.331579430E0,-1.022931710E-1,-9.894919395E0,-3.320041299E-2,9.895503828E0
1.334003857E0,-9.990034252E-2,-9.882955551E0,-6.191428751E-2,9.883654379E0
1.336427920E0,-9.750752151E-2,-9.890133858E0,-9.780662507E-2,9.891098098E0
1.338852555E0,-1.118644550E-1,-9.911669731E0,-6.879365072E-3,9.912303357E0
1.341277139E0,-1.214357466E-1,-9.890133858E0,-9.062815458E-2,9.891294548E0
1.343701305E0,-1.118644550E-1,-9.882955551E0,-6.909275055E-2,9.883830122E0
1.346124847E0,-1.381855011E-1,-9.909276962E0,-3.798605874E-2,9.910313218E0
1.348548805E0,-1.238285750E-1,-9.894919395E0,-4.037888348E-2,9.895776564E0
1.350973545E0,-9.750752151E-2,-9.911669731E0,-5.234299600E-2,9.912287545E0
1.353397868E0,-1.166501045E-1,-9.894919395E0,-2.841476910E-2,9.895647755E0
1.355821149E0,-9.750752151E-2,-9.918848038E0,-4.516452923E-2,9.919430122E0
1.358245055E0,-1.046859920E-1,-9.890133858E0,-2.362912335E-2,9.890716112E0
1.360669482E0,-1.022931710E-1,-9.894919395E0,-1.884347759E-2,9.895466074E0
1.363094482E0,-1.190429255E-1,-9.916455269E0,-4.277170449E-2,9.917262008E0
1.365519170E0,-9.032905847E-2,-9.916455269E0,-2.362912335E-2,9.916894815E0
1.367943180E0,-6.640082598E-2,-9.935597420E0,-6.879365072E-3,9.935821681E0
1.370367087E0,-1.070788130E-1,-9.911669731E0,-2.123630047E-2,9.912270866E0
1.372791722E0,-1.214357466E-1,-9.916455269E0,-9.272187948E-3,9.917203119E0
1.375216357E0,-1.070788130E-1,-9.904491425E0,-2.362912335E-2,9.905098414E0
1.377641566E0,-1.022931710E-1,-9.909276962E0,-4.995017126E-2,9.909930819E0
1.380066462E0,-1.094716340E-1,-9.930811882E0,-3.080759197E-2,9.931463023E0
1.382490941E0,-9.990034252E-2,-9.926026344E0,-7.148557901E-2,9.926786452E0
1.384915680E0,-9.272187948E-2,-9.911669731E0,-6.430710852E-2,9.912312021E0
1.387340160E0,-7.836493850E-2,-9.894919395E0,-4.755735025E-2,9.895343986E0
1.389764587E0,-9.990034252E-2,-9.880562782E0,-5.234299600E-2,9.881206443E0
1.392189430E0,-8.793623000E-2,-9.892526627E0,-4.277170449E-2,9.893009919E0
1.394613597E0,-9.272187948E-2,-9.902098656E0,-4.755735025E-2,9.902646961E0
1.397037607E0,-9.990034252E-2,-9.873384476E0,-4.277170449E-2,9.873982505E0
1.399461826E0,-9.511470050E-2,-9.902098656E0,-5.712864175E-2,9.902720246E0
1.401886982E0,-9.990034252E-2,-9.890133858E0,-4.516452923E-2,9.890741511E0
1.404310785E0,-8.793623000E-2,-9.892526627E0,-4.037888348E-2,9.892999863E0
1.406735472E0,-1.022931710E-1,-9.897313118E0,-2.841476910E-2,9.897882513E0
1.409159170E0,-1.094716340E-1,-9.904491425E0,-2.602194622E-2,9.905130568E0
1.411583962E0,-1.022931710E-1,-9.904491425E0,-5.234299600E-2,9.905157952E0
1.414008701E0,-8.793623000E-2,-9.902098656E0,-3.559323773E-2,9.902553077E0
1.416432607E0,-9.511470050E-2,-9.914062500E0,-4.755735025E-2,9.914632810E0
1.418856826E0,-9.990034252E-2,-9.909276962E0,-2.602194622E-2,9.909814687E0
1.421281462E0,-7.836493850E-2,-9.892526627E0,-4.037888348E-2,9.892919416E0
1.423705993E0,-9.990034252E-2,-9.892526627E0,-4.755735025E-2,9.893145346E0
1.426130316E0,-7.836493850E-2,-9.890133858E0,-4.755735025E-2,9.890558654E0
1.428554170E0,-8.554340899E-2,-9.914062500E0,-4.037888348E-2,9.914513774E0
1.430979118E0,-1.070788130E-1,-9.899705887E0,-5.952146277E-2,9.900463894E0
1.433403024E0,-1.046859920E-1,-9.902098656E0,-3.320041299E-2,9.902707671E0
1.435828128E0,-1.166501045E-1,-9.916455269E0,-3.798605874E-2,9.917214089E0
1.438252295E0,-1.070788130E-1,-9.921240807E0,-4.037888348E-2,9.921900799E0
1.440676566E0,-8.075776696E-2,-9.904491425E0,-4.516452923E-2,9.904923626E0
1.443100941E0,-9.272187948E-2,-9.894919395E0,-3.080759197E-2,9.895401775E0
1.445525368E0,-9.750752151E-2,-9.914062500E0,-3.559323773E-2,9.914605885E0
1.447949326E0,-9.990034252E-2,-9.921240807E0,-4.516452923E-2,9.921846555E0
1.450373076E0,-1.070788130E-1,-9.923633575E0,-5.473581702E-2,9.924362207E0
1.452797399E0,-9.990034252E-2,-9.899705887E0,-3.320041299E-2,9.900265602E0
1.455221149E0,-1.166501045E-1,-9.921240807E0,-5.712864175E-2,9.922091013E0
1.457645837E0,-1.214357466E-1,-9.914062500E0,-3.320041299E-2,9.914861782E0
1.460070212E0,-1.142572835E-1,-9.894919395E0,-1.884347759E-2,9.895596983E0
1.462494691E0,-1.070788130E-1,-9.899705887E0,-5.234299600E-2,9.900423340E0
1.464918180E0,-1.094716340E-1,-9.902098656E0,-2.841476910E-2,9.902744530E0
1.467342347E0,-1.214357466E-1,-9.899705887E0,-4.037888348E-2,9.900533003E0
1.469766878E0,-9.750752151E-2,-9.899705887E0,-4.037888348E-2,9.900268421E0
1.472190732E0,-8.075776696E-2,-9.916455269E0,-4.037888348E-2,9.916866308E0
1.474613962E0,-9.032905847E-2,-9.909276962E0,-4.037888348E-2,9.909770921E0
1.477037347E0,-7.836493850E-2,-9.902098656E0,-4.516452923E-2,9.902511736E0
1.479461097E0,-1.357926875E-1,-9.906884193E0,-2.841476910E-2,9.907855544E0
1.481885576E0,-9.032905847E-2,-9.911669731E0,-4.755735025E-2,9.912195413E0
1.484310055E0,-8.075776696E-2,-9.904491425E0,-3.559323773E-2,9.904884607E0
1.486734274E0,-1.022931710E-1,-9.904491425E0,-3.320041299E-2,9.905075292E0
1.489158493E0,-1.118644550E-1,-9.926026344E0,-4.037888348E-2,9.926738795E0
1.491583128E0,-9.272187948E-2,-9.899705887E0,-2.841476910E-2,9.900180877E0
1.494006982E0,-1.166501045E-1,-9.906884193E0,-3.559323773E-2,9.907634861E0
1.496431045E0,-7.357929647E-2,-9.921240807E0,-4.516452923E-2,9.921616445E0
1.498855160E0,-9.511470050E-2,-9.892526627E0,-4.037888348E-2,9.893066275E0
1.501279639E0,-8.793623000E-2,-9.914062500E0,-3.080759197E-2,9.914500348E0
1.503704482E0,-9.272187948E-2,-9.897313118E0,-5.712864175E-2,9.897912304E0
1.506129743E0,-9.032905847E-2,-9.899705887E0,-5.234299600E-2,9.900256349E0
1.508554222E0,-9.511470050E-2,-9.911669731E0,-5.712864175E-2,9.912290721E0
1.510979066E0,-8.554340899E-2,-9.904491425E0,-5.952146277E-2,9.905039670E0
1.513403545E0,-9.511470050E-2,-9.926026344E0,-3.320041299E-2,9.926537567E0
1.515827607E0,-1.166501045E-1,-9.909276962E0,-5.473581702E-2,9.910114690E0
1.518251566E0,-9.750752151E-2,-9.921240807E0,-5.234299600E-2,9.921858024E0
1.520675680E0,-9.272187948E-2,-9.894919395E0,-5.473581702E-2,9.895505202E0
1.523099587E0,-1.046859920E-1,-9.906884193E0,-3.798605874E-2,9.907510107E0
1.525524691E0,-7.836493850E-2,-9.911669731E0,-4.755735025E-2,9.912093604E0
1.527949795E0,-9.511470050E-2,-9.909276962E0,-1.645065658E-2,9.909747088E0
1.530374639E0,-1.118644550E-1,-9.911669731E0,-5.234299600E-2,9.912439170E0
1.532798857E0,-1.094716340E-1,-9.902098656E0,-3.559323773E-2,9.902767730E0
1.535223805E0,-1.118644550E-1,-9.911669731E0,-4.037888348E-2,9.912383213E0
1.537648285E0,-1.070788130E-1,-9.892526627E0,-5.712864175E-2,9.893271077E0
1.540072555E0,-1.310070455E-1,-9.902098656E0,-3.320041299E-2,9.903020898E0
1.542497087E0,-1.046859920E-1,-9.899705887E0,-2.841476910E-2,9.900300157E0
1.544921410E0,-9.750752151E-2,-9.897313118E0,-4.755735025E-2,9.897907677E0
1.547345785E0,-1.190429255E-1,-9.918848038E0,-3.559323773E-2,9.919626227E0
1.549770420E0,-9.272187948E-2,-9.914062500E0,-4.037888348E-2,9.914578309E0
1.552194847E0,-8.315058798E-2,-9.921240807E0,-4.277170449E-2,9.921681439E0
1.554619430E0,-1.286142170E-1,-9.897313118E0,-4.277170449E-2,9.898241156E0
1.557044326E0,-9.511470050E-2,-9.916455269E0,-4.037888348E-2,9.916993615E0
1.559468285E0,-7.836493850E-2,-9.887741089E0,-4.995017126E-2,9.888177786E0
1.561892503E0,-1.190429255E-1,-9.899705887E0,-4.755735025E-2,9.900535822E0
1.564316878E0,-9.272187948E-2,-9.909276962E0,-3.080759197E-2,9.909758643E0
1.566740680E0,-1.190429255E-1,-9.930811882E0,-4.516452923E-2,9.931628048E0
1.569165160E0,-1.022931710E-1,-9.906884193E0,-4.516452923E-2,9.907515236E0
1.571589691E0,-1.046859920E-1,-9.880562782E0,-4.516452923E-2,9.881220567E0
1.574014587E0,-9.032905847E-2,-9.904491425E0,-4.755735025E-2,9.905017487E0
1.576438701E0,-1.094716340E-1,-9.902098656E0,-5.712864175E-2,9.902868549E0
1.578863076E0,-1.022931710E-1,-9.933204651E0,-4.037888348E-2,9.933813416E0
1.581287555E0,-9.032905847E-2,-9.921240807E0,-4.277170449E-2,9.921744196E0
1.583712503E0,-9.990034252E-2,-9.899705887E0,-4.755735025E-2,9.900324158E0
1.586137295E0,-9.511470050E-2,-9.906884193E0,-6.191428751E-2,9.907534234E0
1.588561618E0,-1.070788130E-1,-9.890133858E0,-5.712864175E-2,9.890878489E0
1.590985889E0,-9.990034252E-2,-9.868598938E0,-4.755735025E-2,9.869219158E0
1.593409326E0,-9.032905847E-2,-9.899705887E0,-4.037888348E-2,9.900200323E0
1.595833545E0,-8.315058798E-2,-9.918848038E0,-4.516452923E-2,9.919299383E0
1.598258076E0,-8.793623000E-2,-9.906884193E0,-3.559323773E-2,9.907338395E0
1.600682712E0,-9.032905847E-2,-9.897313118E0,-2.841476910E-2,9.897766096E0
1.603107295E0,-8.793623000E-2,-9.916455269E0,-3.798605874E-2,9.916917909E0
1.605531774E0,-8.315058798E-2,-9.911669731E0,-2.841476910E-2,9.912059235E0
1.607956618E0,-1.094716340E-1,-9.909276962E0,-6.191428751E-2,9.910075042E0
1.610381045E0,-1.046859920E-1,-9.916455269E0,-2.602194622E-2,9.917041968E0
1.612805055E0,-8.793623000E-2,-9.899705887E0,-4.755735025E-2,9.900210661E0
1.615229326E0,-9.032905847E-2,-9.930811882E0,-3.798605874E-2,9.931295329E0
1.617653128E0,-7.357929647E-2,-9.918848038E0,-3.559323773E-2,9.919184805E0
1.620077451E0,-8.075776696E-2,-9.928419113E0,-3.559323773E-2,9.928811348E0
1.622501722E0,-8.075776696E-2,-9.921240807E0,-4.755735025E-2,9.921683459E0
1.624925524E0,-7.836493850E-2,-9.918848038E0,-2.602194622E-2,9.919191731E0
1.627350316E0,-9.750752151E-2,-9.911669731E0,-3.080759197E-2,9.912197218E0
1.629774795E0,-1.190429255E-1,-9.914062500E0,-6.191428751E-2,9.914970492E0
1.632199482E0,-9.272187948E-2,-9.926026344E0,-2.123630047E-2,9.926482122E0
1.634624430E0,-9.272187948E-2,-9.916455269E0,-3.320041299E-2,9.916944323E0
1.637048597E0,-9.750752151E-2,-9.890133858E0,-3.798605874E-2,9.890687457E0
1.639472399E0,-1.070788130E-1,-9.928419113E0,-2.362912335E-2,9.929024640E0
1.641896930E0,-1.022931710E-1,-9.930811882E0,-3.080759197E-2,9.931386491E0
1.644321462E0,-1.190429255E-1,-9.894919395E0,-3.559323773E-2,9.895699467E0
1.646745785E0,-1.166501045E-1,-9.899705887E0,-3.798605874E-2,9.900465991E0
1.649170420E0,-1.238285750E-1,-9.909276962E0,-3.080759197E-2,9.910098513E0
1.651595368E0,-1.118644550E-1,-9.902098656E0,-4.995017126E-2,9.902856480E0
1.654020055E0,-1.429711580E-1,-9.930811882E0,-3.798605874E-2,9.931913629E0
1.656444222E0,-1.214357466E-1,-9.882955551E0,-2.602194622E-2,9.883735843E0
1.658868076E0,-1.166501045E-1,-9.921240807E0,-3.080759197E-2,9.921974375E0
1.661292660E0,-9.750752151E-2,-9.890133858E0,-5.952146277E-2,9.890793610E0
1.663717399E0,-9.032905847E-2,-9.921240807E0,-4.995017126E-2,9.921777739E0
1.666141982E0,-9.511470050E-2,-9.909276962E0,-2.841476910E-2,9.909774171E0
1.668566514E0,-1.094716340E-1,-9.914062500E0,-4.995017126E-2,9.914792701E0
1.670991462E0,-1.094716340E-1,-9.902098656E0,-4.995017126E-2,9.902829739E0
1.673415576E0,-9.990034252E-2,-9.923633575E0,-3.559323773E-2,9.924200235E0
1.675840680E0,-1.094716340E-1,-9.902098656E0,-4.277170449E-2,9.902796133E0
1.678264899E0,-1.046859920E-1,-9.914062500E0,-3.798605874E-2,9.914687960E0
1.680689066E0,-9.990034252E-2,-9.916455269E0,-4.755735025E-2,9.917072495E0
1.683113649E0,-9.272187948E-2,-9.904491425E0,-6.909275055E-2,9.905166406E0
1.685537347E0,-1.022931710E-1,-9.926026344E0,-5.234299600E-2,9.926691426E0
1.687962139E0,-1.046859920E-1,-9.923633575E0,-3.559323773E-2,9.924249562E0
1.690387660E0,-1.046859920E-1,-9.904491425E0,-4.516452923E-2,9.905147620E0
1.692812399E0,-9.990034252E-2,-9.902098656E0,-3.559323773E-2,9.902666547E0
1.695236514E0,-1.214357466E-1,-9.904491425E0,-3.559323773E-2,9.905299788E0
1.697661149E0,-9.511470050E-2,-9.902098656E0,-4.755735025E-2,9.902669655E0
1.700086097E0,-9.990034252E-2,-9.921240807E0,-4.037888348E-2,9.921825924E0
1.702510576E0,-9.511470050E-2,-9.916455269E0,-4.037888348E-2,9.916993615E0
1.704935160E0,-9.511470050E-2,-9.911669731E0,-3.559323773E-2,9.912189997E0
1.707359274E0,-1.046859920E-1,-9.906884193E0,-4.037888348E-2,9.907519570E0
1.709784014E0,-8.315058798E-2,-9.902098656E0,-3.320041299E-2,9.902503425E0
1.712208857E0,-8.315058798E-2,-9.916455269E0,-3.798605874E-2,9.916876628E0
1.714633128E0,-8.315058798E-2,-9.933204651E0,-3.798605874E-2,9.933625300E0
1.717057087E0,-1.094716340E-1,-9.899705887E0,-4.277170449E-2,9.900403532E0
1.719481253E0,-8.554340899E-2,-9.906884193E0,-3.080759197E-2,9.907301409E0
1.721905785E0,-9.272187948E-2,-9.926026344E0,-3.080759197E-2,9.926507213E0
1.724330472E0,-1.094716340E-1,-9.914062500E0,-5.234299600E-2,9.914805045E0
1.726755160E0,-1.166501045E-1,-9.902098656E0,-3.559323773E-2,9.902849686E0
1.729179014E0,-1.238285750E-1,-9.911669731E0,-3.559323773E-2,9.912507112E0
1.731603285E0,-7.357929647E-2,-9.894919395E0,-4.755735025E-2,9.895307244E0
1.734028128E0,-9.750752151E-2,-9.909276962E0,-2.841476910E-2,9.909797426E0
1.736452555E0,-9.990034252E-2,-9.887741089E0,-4.277170449E-2,9.888338250E0
1.738877243E0,-1.142572835E-1,-9.897313118E0,-4.516452923E-2,9.898075647E0
1.741301566E0,-1.166501045E-1,-9.911669731E0,-3.559323773E-2,9.912420037E0
1.743725680E0,-1.046859920E-1,-9.899705887E0,-4.037888348E-2,9.900341724E0
1.746150732E0,-9.511470050E-2,-9.926026344E0,-4.995017126E-2,9.926607719E0
1.748575889E0,-8.793623000E-2,-9.897313118E0,-4.755735025E-2,9.897818014E0
1.751000420E0,-8.554340899E-2,-9.909276962E0,-2.841476910E-2,9.909686927E0
1.753424535E0,-9.511470050E-2,-9.897313118E0,-2.841476910E-2,9.897810928E0
1.755848649E0,-1.118644550E-1,-9.911669731E0,-2.602194622E-2,9.912335126E0
1.758273649E0,-1.046859920E-1,-9.906884193E0,-4.516452923E-2,9.907540230E0
1.760698076E0,-7.597211748E-2,-9.880562782E0,-3.798605874E-2,9.880927871E0
1.763122191E0,-1.142572835E-1,-9.911669731E0,-4.995017126E-2,9.912454116E0
1.765546045E0,-1.262213886E-1,-9.923633575E0,-2.602194622E-2,9.924470380E0
1.767969951E0,-1.333998591E-1,-9.904491425E0,-4.995017126E-2,9.905515682E0
1.770394222E0,-9.272187948E-2,-9.911669731E0,-1.884347759E-2,9.912121331E0
1.772817920E0,-1.190429255E-1,-9.899705887E0,-5.712864175E-2,9.900586424E0
1.775242607E0,-1.070788130E-1,-9.902098656E0,-4.277170449E-2,9.902769970E0
1.777666305E0,-1.190429255E-1,-9.897313118E0,-3.798605874E-2,9.898101895E0
1.780090785E0,-1.022931710E-1,-9.918848038E0,-6.669992954E-2,9.919599748E0
1.782514847E0,-9.990034252E-2,-9.914062500E0,-3.798605874E-2,9.914638585E0
1.784939847E0,-9.272187948E-2,-9.911669731E0,-4.516452923E-2,9.912206315E0
1.787364951E0,-1.070788130E-1,-9.921240807E0,-2.602194622E-2,9.921852758E0
1.789788962E0,-7.836493850E-2,-9.914062500E0,-2.602194622E-2,9.914406359E0
1.792213753E0,-9.272187948E-2,-9.904491425E0,-2.602194622E-2,9.904959610E0
1.794637764E0,-6.640082598E-2,-9.909276962E0,-5.234299600E-2,9.909637671E0
1.797062243E0,-9.272187948E-2,-9.878170013E0,-4.516452923E-2,9.878708417E0
1.799486878E0,-1.046859920E-1,-9.921240807E0,-3.798605874E-2,9.921865814E0
1.801911566E0,-8.554340899E-2,-9.916455269E0,-4.037888348E-2,9.916906434E0
1.804336045E0,-9.272187948E-2,-9.899705887E0,-4.995017126E-2,9.900266108E0
1.806761097E0,-1.070788130E-1,-9.906884193E0,-1.166501082E-2,9.907469726E0
1.809185785E0,-1.118644550E-1,-9.890133858E0,-2.602194622E-2,9.890800702E0
1.811610316E0,-7.357929647E-2,-9.906884193E0,-3.320041299E-2,9.907213059E0
1.814034691E0,-9.990034252E-2,-9.911669731E0,-3.080759197E-2,9.912221045E0
1.816459222E0,-9.511470050E-2,-9.926026344E0,-3.798605874E-2,9.926554726E0
1.818884378E0,-1.190429255E-1,-9.902098656E0,-3.798605874E-2,9.902887051E0
1.821308389E0,-1.070788130E-1,-9.928419113E0,-4.037888348E-2,9.929078629E0
1.823733441E0,-8.075776696E-2,-9.890133858E0,-3.320041299E-2,9.890519289E0
1.826157555E0,-8.315058798E-2,-9.940383911E0,-2.362912335E-2,9.940759763E0
1.828581826E0,-8.793623000E-2,-9.911669731E0,-2.362912335E-2,9.912087973E0
1.831005472E0,-1.094716340E-1,-9.897313118E0,-3.320041299E-2,9.897974200E0
1.833430264E0,-9.750752151E-2,-9.897313118E0,-2.362912335E-2,9.897821629E0
1.835854899E0,-8.554340899E-2,-9.921240807E0,-3.320041299E-2,9.921665137E0
1.838279899E0,-8.793623000E-2,-9.902098656E0,-3.559323773E-2,9.902553077E0
1.840704639E0,-9.032905847E-2,-9.890133858E0,-3.559323773E-2,9.890610393E0
1.843129014E0,-8.315058798E-2,-9.914062500E0,-4.755735025E-2,9.914525252E0
1.845552920E0,-8.075776696E-2,-9.897313118E0,-3.798605874E-2,9.897715479E0
1.847977139E0,-1.046859920E-1,-9.909276962E0,-3.080759197E-2,9.909877809E0
1.850401982E0,-9.750752151E-2,-9.914062500E0,-3.320041299E-2,9.914597583E0
1.852827035E0,-9.990034252E-2,-9.911669731E0,-4.516452923E-2,9.912276064E0
1.855251618E0,-8.554340899E-2,-9.921240807E0,-2.841476910E-2,9.921650277E0
1.857676097E0,-9.990034252E-2,-9.892526627E0,-4.995017126E-2,9.893157138E0
1.860100680E0,-9.990034252E-2,-9.873384476E0,-2.123630047E-2,9.873912703E0
1.862525264E0,-8.554340899E-2,-9.885348320E0,-3.798605874E-2,9.885791421E0
1.864949951E0,-9.511470050E-2,-9.911669731E0,-4.277170449E-2,9.912218374E0
1.867375055E0,-9.750752151E-2,-9.902098656E0,-4.277170449E-2,9.902671100E0
1.869800055E0,-8.793623000E-2,-9.890133858E0,-5.234299600E-2,9.890663289E0
1.872224639E0,-1.166501045E-1,-9.894919395E0,-4.277170449E-2,9.895699395E0
1.874649066E0,-9.990034252E-2,-9.904491425E0,-2.602194622E-2,9.905029409E0
1.877074795E0,-9.272187948E-2,-9.904491425E0,-1.884347759E-2,9.904943352E0
1.879499691E0,-9.032905847E-2,-9.894919395E0,-3.559323773E-2,9.895395700E0
1.881924535E0,-1.070788130E-1,-9.911669731E0,-4.277170449E-2,9.912340397E0
1.884349014E0,-9.511470050E-2,-9.890133858E0,-3.320041299E-2,9.890646935E0
1.886773285E0,-1.142572835E-1,-9.914062500E0,-3.559323773E-2,9.914784761E0
1.889198285E0,-9.272187948E-2,-9.937990189E0,-3.320041299E-2,9.938478183E0
1.891622920E0,-1.046859920E-1,-9.921240807E0,-3.559323773E-2,9.921856942E0
1.894047087E0,-7.836493850E-2,-9.897313118E0,-2.362912335E-2,9.897651558E0
1.896471462E0,-9.750752151E-2,-9.899705887E0,-3.080759197E-2,9.900234011E0
1.898896149E0,-8.075776696E-2,-9.918848038E0,-2.362912335E-2,9.919204935E0
1.901320107E0,-8.793623000E-2,-9.894919395E0,-3.798605874E-2,9.895383043E0
1.903744014E0,-1.022931710E-1,-9.926026344E0,-6.879365072E-3,9.926555808E0
1.906168128E0,-1.022931710E-1,-9.923633575E0,-3.080759197E-2,9.924208600E0
1.908591774E0,-9.272187948E-2,-9.902098656E0,-3.798605874E-2,9.902605620E0
1.911016045E0,-8.793623000E-2,-9.894919395E0,-2.841476910E-2,9.895350930E0
1.913440993E0,-8.075776696E-2,-9.902098656E0,-4.516452923E-2,9.902530961E0
1.915865576E0,-1.094716340E-1,-9.906884193E0,-3.798605874E-2,9.907561829E0
1.918290628E0,-8.315058798E-2,-9.892526627E0,-3.798605874E-2,9.892949005E0
1.920714951E0,-1.142572835E-1,-9.887741089E0,-4.277170449E-2,9.888493717E0
1.923138962E0,-9.990034252E-2,-9.894919395E0,-2.841476910E-2,9.895464482E0
1.925563597E0,-8.554340899E-2,-9.906884193E0,-4.037888348E-2,9.907335795E0
1.927988128E0,-8.315058798E-2,-9.904491425E0,-4.995017126E-2,9.904966402E0
1.930412191E0,-7.836493850E-2,-9.940383911E0,-4.516452923E-2,9.940795401E0
1.932836201E0,-9.990034252E-2,-9.914062500E0,-4.277170449E-2,9.914658075E0
1.935260628E0,-9.990034252E-2,-9.914062500E0,-2.841476910E-2,9.914606534E0
1.937684639E0,-9.032905847E-2,-9.904491425E0,-1.405783277E-2,9.904913293E0
1.940108597E0,-8.793623000E-2,-9.909276962E0,-1.884347759E-2,9.909685049E0
1.942533180E0,-9.511470050E-2,-9.914062500E0,-4.277170449E-2,9.914611010E0
1.944957868E0,-9.272187948E-2,-9.892526627E0,-3.798605874E-2,9.893034082E0
1.947382712E0,-9.511470050E-2,-9.902098656E0,-4.037888348E-2,9.902637782E0
1.949806930E0,-8.075776696E-2,-9.897313118E0,-5.234299600E-2,9.897780992E0
1.952231045E0,-7.597211748E-2,-9.902098656E0,-3.559323773E-2,9.902454061E0
1.954655628E0,-1.022931710E-1,-9.906884193E0,-4.037888348E-2,9.907494576E0
1.957079482E0,-9.511470050E-2,-9.911669731E0,-3.559323773E-2,9.912189997E0
1.959503805E0,-1.190429255E-1,-9.930811882E0,-4.995017126E-2,9.931650964E0
1.961928753E0,-1.118644550E-1,-9.906884193E0,-2.841476910E-2,9.907556484E0
1.964353545E0,-1.310070455E-1,-9.909276962E0,-3.559323773E-2,9.910206841E0
1.966777972E0,-1.094716340E-1,-9.902098656E0,-3.798605874E-2,9.902776619E0
1.969202347E0,-1.046859920E-1,-9.914062500E0,-6.879365072E-3,9.914617579E0
1.971626357E0,-1.118644550E-1,-9.911669731E0,-2.841476910E-2,9.912341697E0
1.974050524E0,-8.075776696E-2,-9.906884193E0,-4.755735025E-2,9.907327487E0
1.976474222E0,-9.511470050E-2,-9.914062500E0,-4.037888348E-2,9.914600976E0
1.978898180E0,-9.032905847E-2,-9.923633575E0,-6.909275055E-2,9.924285188E0
1.981321670E0,-1.142572835E-1,-9.902098656E0,-3.320041299E-2,9.902813478E0
1.983746410E0,-1.262213886E-1,-9.894919395E0,-2.362912335E-2,9.895752625E0
1.986170264E0,-1.070788130E-1,-9.899705887E0,-2.362912335E-2,9.900313169E0
1.988593910E0,-1.190429255E-1,-9.897313118E0,-3.559323773E-2,9.898093001E0
1.991018389E0,-9.750752151E-2,-9.904491425E0,-4.755735025E-2,9.905085552E0
1.993442816E0,-1.046859920E-1,-9.930811882E0,-3.080759197E-2,9.931411425E0
1.995868076E0,-8.075776696E-2,-9.918848038E0,-2.362912335E-2,9.919204935E0
1.998292555E0,-9.990034252E-2,-9.916455269E0,-3.798605874E-2,9.917031215E0
2.000717607E0,-1.142572835E-1,-9.916455269E0,-3.798605874E-2,9.917186232E0
2.003142764E0,-8.315058798E-2,-9.906884193E0,-3.320041299E-2,9.907288767E0
2.005567399E0,-8.315058798E-2,-9.911669731E0,-4.516452923E-2,9.912121403E0
2.007991878E0,-1.142572835E-1,-9.904491425E0,-3.320041299E-2,9.905206074E0
2.010416201E0,-1.046859920E-1,-9.890133858E0,-4.755735025E-2,9.890802221E0
2.012840941E0,-9.990034252E-2,-9.923633575E0,-6.909275055E-2,9.924376919E0
2.015265368E0,-8.075776696E-2,-9.892526627E0,-5.234299600E-2,9.892994727E0
2.017689587E0,-9.511470050E-2,-9.906884193E0,-3.559323773E-2,9.907404711E0
2.020114066E0,-9.750752151E-2,-9.904491425E0,-3.320041299E-2,9.905027025E0
2.022538285E0,-9.750752151E-2,-9.921240807E0,-2.362912335E-2,9.921748092E0
2.024962295E0,-8.554340899E-2,-9.909276962E0,-6.191428751E-2,9.909839604E0
2.027386774E0,-9.511470050E-2,-9.897313118E0,-4.516452923E-2,9.897873186E0
2.029811722E0,-1.070788130E-1,-9.892526627E0,-4.516452923E-2,9.893209225E0
2.032237243E0,-7.597211748E-2,-9.899705887E0,-3.798605874E-2,9.900070270E0
2.034661826E0,-9.511470050E-2,-9.918848038E0,-5.952146277E-2,9.919482648E0
2.037086253E0,-7.836493850E-2,-9.911669731E0,-4.516452923E-2,9.912082413E0
2.039510732E0,-9.032905847E-2,-9.902098656E0,-2.602194622E-2,9.902544838E0
2.041935160E0,-1.046859920E-1,-9.930811882E0,-4.755735025E-2,9.931477508E0
2.044360003E0,-5.922235921E-2,-9.906884193E0,-5.473581702E-2,9.907212409E0
2.046784951E0,-1.022931710E-1,-9.897313118E0,-2.841476910E-2,9.897882513E0
2.049209482E0,-1.142572835E-1,-9.909276962E0,-4.516452923E-2,9.910038571E0
2.051634118E0,-1.070788130E-1,-9.921240807E0,-6.430710852E-2,9.922027032E0
2.054058285E0,-8.554340899E-2,-9.926026344E0,-5.473581702E-2,9.926545858E0
2.056482920E0,-1.022931710E-1,-9.902098656E0,-4.995017126E-2,9.902752986E0
2.058906930E0,-1.022931710E-1,-9.923633575E0,-3.798605874E-2,9.924233480E0
2.061331357E0,-9.990034252E-2,-9.906884193E0,-4.755735025E-2,9.907502016E0
2.063756149E0,-1.022931710E-1,-9.899705887E0,-3.559323773E-2,9.900298350E0
2.066180785E0,-1.142572835E-1,-9.906884193E0,-3.320041299E-2,9.907598671E0
2.068605160E0,-9.990034252E-2,-9.902098656E0,-4.037888348E-2,9.902684905E0
2.071029795E0,-1.142572835E-1,-9.914062500E0,-2.841476910E-2,9.914761590E0
2.073454378E0,-1.190429255E-1,-9.906884193E0,-3.559323773E-2,9.907663323E0
2.075879170E0,-9.750752151E-2,-9.923633575E0,-3.798605874E-2,9.924185306E0
2.078303701E0,-9.990034252E-2,-9.921240807E0,-2.841476910E-2,9.921784447E0
2.080728076E0,-1.070788130E-1,-9.911669731E0,-3.320041299E-2,9.912303718E0
2.083152816E0,-1.070788130E-1,-9.885348320E0,-4.037888348E-2,9.886010709E0
2.085577191E0,-1.094716340E-1,-9.914062500E0,-3.559323773E-2,9.914730766E0
2.088001878E0,-1.118644550E-1,-9.904491425E0,-3.798605874E-2,9.905195958E0
2.090426462E0,-1.046859920E-1,-9.885348320E0,-4.277170449E-2,9.885995144E0
2.092850993E0,-1.046859920E-1,-9.928419113E0,-3.559323773E-2,9.929034803E0
2.095275628E0,-1.046859920E-1,-9.914062500E0,-5.952146277E-2,9.914793856E0
2.097700003E0,-1.094716340E-1,-9.909276962E0,-4.516452923E-2,9.909984550E0
2.100124795E0,-7.836493850E-2,-9.887741089E0,-2.362912335E-2,9.888079856E0
2.102549743E0,-1.094716340E-1,-9.890133858E0,-3.559323773E-2,9.890803741E0
2.104974014E0,-1.022931710E-1,-9.909276962E0,-5.234299600E-2,9.909943168E0
2.107397868E0,-1.022931710E-1,-9.914062500E0,-3.798605874E-2,9.914662984E0
2.109821514E0,-1.046859920E-1,-9.930811882E0,-4.277170449E-2,9.931455745E0
2.112246253E0,-9.032905847E-2,-9.878170013E0,-3.320041299E-2,9.878638794E0
2.114670993E0,-9.032905847E-2,-9.899705887E0,-4.516452923E-2,9.900220999E0
2.117096097E0,-1.070788130E-1,-9.916455269E0,-5.473581702E-2,9.917184428E0
2.119520837E0,-8.793623000E-2,-9.918848038E0,-3.798605874E-2,9.919310567E0
2.121945003E0,-9.750752151E-2,-9.933204651E0,-4.277170449E-2,9.933775303E0
2.124369222E0,-1.190429255E-1,-9.928419113E0,-4.277170449E-2,9.929224880E0
2.126793337E0,-1.094716340E-1,-9.902098656E0,-4.755735025E-2,9.902817959E0
2.129217660E0,-1.022931710E-1,-9.902098656E0,-4.995017126E-2,9.902752986E0
2.131642087E0,-1.094716340E-1,-9.887741089E0,-2.841476910E-2,9.888387901E0
2.134067035E0,-1.214357466E-1,-9.911669731E0,-2.362912335E-2,9.912441770E0
2.136491253E0,-1.046859920E-1,-9.909276962E0,-5.234299600E-2,9.909968156E0
2.138915576E0,-1.022931710E-1,-9.916455269E0,-5.234299600E-2,9.917120993E0
2.141340316E0,-9.990034252E-2,-9.892526627E0,-2.362912335E-2,9.893059257E0
2.143764743E0,-9.032905847E-2,-9.906884193E0,-5.712864175E-2,9.907460696E0
2.146189014E0,-9.750752151E-2,-9.902098656E0,-4.516452923E-2,9.902681725E0
2.148613857E0,-8.315058798E-2,-9.909276962E0,-4.516452923E-2,9.909728744E0
2.151038441E0,-1.166501045E-1,-9.902098656E0,-5.473581702E-2,9.902936991E0
2.153463805E0,-1.094716340E-1,-9.902098656E0,-4.277170449E-2,9.902796133E0
2.155888076E0,-9.272187948E-2,-9.909276962E0,-5.952146277E-2,9.909889508E0
2.158312712E0,-9.990034252E-2,-9.921240807E0,-6.879365072E-3,9.921746144E0
2.160737139E0,-9.511470050E-2,-9.892526627E0,-3.559323773E-2,9.893047900E0
2.163161930E0,-1.046859920E-1,-9.914062500E0,-3.320041299E-2,9.914670780E0
2.165586357E0,-9.272187948E-2,-9.914062500E0,-5.712864175E-2,9.914660674E0
2.168010628E0,-9.032905847E-2,-9.914062500E0,-2.602194622E-2,9.914508144E0
2.170435055E0,-9.032905847E-2,-9.899705887E0,-2.841476910E-2,9.900158755E0
2.172859639E0,-1.070788130E-1,-9.906884193E0,-3.320041299E-2,9.907518487E0
2.175284326E0,-1.118644550E-1,-9.894919395E0,-4.037888348E-2,9.895634085E0
2.177708910E0,-9.990034252E-2,-9.911669731E0,-4.516452923E-2,9.912276064E0
2.180134014E0,-9.990034252E-2,-9.911669731E0,-5.234299600E-2,9.912311372E0
2.182558597E0,-1.118644550E-1,-9.909276962E0,-1.884347759E-2,9.909926269E0
2.184983232E0,-8.315058798E-2,-9.926026344E0,-4.037888348E-2,9.926456743E0
2.187408389E0,-1.022931710E-1,-9.911669731E0,-5.473581702E-2,9.912348701E0
2.189833076E0,-9.511470050E-2,-9.897313118E0,-1.645065658E-2,9.897783812E0
2.192257451E0,-1.142572835E-1,-9.904491425E0,-4.516452923E-2,9.905253401E0
2.194681722E0,-9.750752151E-2,-9.909276962E0,-4.277170449E-2,9.909848992E0
2.197105889E0,-9.511470050E-2,-9.923633575E0,-4.037888348E-2,9.924171532E0
2.199530212E0,-7.836493850E-2,-9.918848038E0,-4.277170449E-2,9.919249814E0
2.201955160E0,-9.990034252E-2,-9.902098656E0,-3.320041299E-2,9.902658236E0
2.204379326E0,-8.075776696E-2,-9.909276962E0,-3.080759197E-2,9.909653921E0
2.206804118E0,-1.142572835E-1,-9.928419113E0,-4.037888348E-2,9.929158638E0
2.209228493E0,-1.094716340E-1,-9.904491425E0,-3.080759197E-2,9.905144296E0
2.211653076E0,-1.333998591E-1,-9.894919395E0,-4.995017126E-2,9.895944643E0
2.214077347E0,-1.070788130E-1,-9.902098656E0,-3.798605874E-2,9.902750456E0
2.216501826E0,-9.272187948E-2,-9.909276962E0,-3.080759197E-2,9.909758643E0
2.218926201E0,-9.511470050E-2,-9.899705887E0,-4.277170449E-2,9.900255192E0
2.221351045E0,-1.142572835E-1,-9.894919395E0,-1.405783277E-2,9.895589027E0
2.223775472E0,-1.070788130E-1,-9.909276962E0,-3.080759197E-2,9.909903375E0
2.226199430E0,-9.511470050E-2,-9.904491425E0,-2.602194622E-2,9.904982298E0
2.228623857E0,-8.315058798E-2,-9.914062500E0,-2.602194622E-2,9.914445341E0
2.231048597E0,-8.554340899E-2,-9.909276962E0,-2.362912335E-2,9.909674360E0
2.233473285E0,-7.836493850E-2,-9.928419113E0,-2.123630047E-2,9.928751086E0
2.235897399E0,-8.793623000E-2,-9.921240807E0,-2.841476910E-2,9.921671196E0
2.238321462E0,-9.511470050E-2,-9.904491425E0,-5.952146277E-2,9.905126955E0
2.240745993E0,-9.750752151E-2,-9.897313118E0,-3.798605874E-2,9.897866316E0
2.243170420E0,-9.511470050E-2,-9.904491425E0,-4.277170449E-2,9.905040465E0
2.245594274E0,-9.750752151E-2,-9.897313118E0,-3.559323773E-2,9.897857422E0
2.248018441E0,-1.094716340E-1,-9.911669731E0,-2.362912335E-2,9.912302418E0
2.250442503E0,-1.022931710E-1,-9.906884193E0,-4.516452923E-2,9.907515236E0
2.252866774E0,-8.793623000E-2,-9.899705887E0,-3.559323773E-2,9.900160418E0
2.255291618E0,-9.511470050E-2,-9.906884193E0,-5.712864175E-2,9.907505484E0
2.257715576E0,-1.094716340E-1,-9.892526627E0,-3.559323773E-2,9.893196348E0
2.260139170E0,-1.022931710E-1,-9.902098656E0,-3.320041299E-2,9.902682664E0
2.262563232E0,-9.032905847E-2,-9.914062500E0,-1.405783277E-2,9.914483961E0
2.264987503E0,-9.990034252E-2,-9.928419113E0,-2.602194622E-2,9.928955801E0
2.267411722E0,-1.118644550E-1,-9.899705887E0,-3.320041299E-2,9.900393556E0
2.269836514E0,-8.315058798E-2,-9.887741089E0,-4.277170449E-2,9.888183214E0
2.272260680E0,-9.032905847E-2,-9.894919395E0,-4.755735025E-2,9.895445967E0
2.274685576E0,-1.046859920E-1,-9.911669731E0,-4.755735025E-2,9.912336643E0
2.277110055E0,-1.022931710E-1,-9.897313118E0,-3.798605874E-2,9.897914618E0
2.279535055E0,-8.793623000E-2,-9.906884193E0,-3.320041299E-2,9.907330088E0
2.281959743E0,-9.511470050E-2,-9.904491425E0,-2.123630047E-2,9.904970882E0
2.284384378E0,-1.118644550E-1,-9.899705887E0,-2.362912335E-2,9.900366086E0
2.286809535E0,-1.190429255E-1,-9.911669731E0,-4.755735025E-2,9.912498665E0
2.289233753E0,-9.990034252E-2,-9.918848038E0,-4.277170449E-2,9.919443326E0
2.291658128E0,-7.118647546E-2,-9.894919395E0,-2.123630047E-2,9.895198246E0
2.294082920E0,-1.118644550E-1,-9.916455269E0,-2.841476910E-2,9.917126910E0
2.296507607E0,-1.094716340E-1,-9.880562782E0,-2.123630047E-2,9.881192029E0
2.298932451E0,-9.750752151E-2,-9.904491425E0,-4.516452923E-2,9.905074353E0
2.301356566E0,-1.262213886E-1,-9.923633575E0,-3.080759197E-2,9.924484082E0
2.303781201E0,-9.750752151E-2,-9.911669731E0,-4.037888348E-2,9.912231587E0
2.306205941E0,-9.511470050E-2,-9.906884193E0,-2.362912335E-2,9.907368953E0
2.308630576E0,-1.070788130E-1,-9.899705887E0,-1.166501082E-2,9.900291844E0
2.311054743E0,-1.238285750E-1,-9.916455269E0,-2.841476910E-2,9.917269080E0
2.313478597E0,-1.238285750E-1,-9.916455269E0,-4.277170449E-2,9.917320608E0
2.315902660E0,-1.262213886E-1,-9.918848038E0,-4.755735025E-2,9.919765115E0
2.318327035E0,-1.118644550E-1,-9.923633575E0,-2.602194622E-2,9.924298169E0
2.320752035E0,-9.032905847E-2,-9.894919395E0,-2.362912335E-2,9.895359898E0
2.323175889E0,-1.262213886E-1,-9.926026344E0,-2.602194622E-2,9.926862947E0
2.325599951E0,-9.272187948E-2,-9.899705887E0,-2.841476910E-2,9.900180877E0
2.328024326E0,-1.070788130E-1,-9.909276962E0,-3.080759197E-2,9.909903375E0
2.330448649E0,-1.022931710E-1,-9.894919395E0,-4.516452923E-2,9.895551201E0
2.332873753E0,-7.597211748E-2,-9.935597420E0,-4.277170449E-2,9.935979935E0
2.335298753E0,-9.032905847E-2,-9.923633575E0,-3.559323773E-2,9.924108502E0
2.337723701E0,-1.022931710E-1,-9.906884193E0,-2.841476910E-2,9.907453039E0
2.340148753E0,-9.032905847E-2,-9.906884193E0,-4.277170449E-2,9.907388313E0
2.342573962E0,-1.142572835E-1,-9.897313118E0,-6.191428751E-2,9.898166247E0
2.344998649E0,-9.990034252E-2,-9.887741089E0,-4.277170449E-2,9.888338250E0
2.347422764E0,-1.022931710E-1,-9.906884193E0,-5.712864175E-2,9.907576999E0
2.349846722E0,-9.990034252E-2,-9.914062500E0,-5.473581702E-2,9.914716907E0
2.352270785E0,-9.511470050E-2,-9.906884193E0,-5.712864175E-2,9.907505484E0
2.354695055E0,-6.879365444E-2,-9.911669731E0,-3.798605874E-2,9.911981253E0
2.357119430E0,-8.554340899E-2,-9.885348320E0,-4.755735025E-2,9.885832832E0
2.359543962E0,-8.793623000E-2,-9.890133858E0,-3.798605874E-2,9.890597729E0
2.361968180E0,-1.046859920E-1,-9.885348320E0,-4.995017126E-2,9.886028808E0
2.364393024E0,-8.315058798E-2,-9.914062500E0,-3.798605874E-2,9.914483961E0
2.366816982E0,-8.793623000E-2,-9.906884193E0,-5.712864175E-2,9.907439169E0
2.369241774E0,-7.597211748E-2,-9.899705887E0,-4.037888348E-2,9.900079740E0
2.371666149E0,-7.836493850E-2,-9.897313118E0,-3.798605874E-2,9.897696245E0
2.374090576E0,-8.315058798E-2,-9.904491425E0,-5.952146277E-2,9.905019293E0
2.376515160E0,-9.990034252E-2,-9.909276962E0,-3.559323773E-2,9.909844442E0
2.378939066E0,-1.022931710E-1,-9.897313118E0,-4.037888348E-2,9.897924091E0
2.381363545E0,-8.554340899E-2,-9.904491425E0,-4.516452923E-2,9.904963800E0
2.383787868E0,-1.046859920E-1,-9.923633575E0,-3.080759197E-2,9.924233552E0
2.386212243E0,-1.070788130E-1,-9.916455269E0,-4.755735025E-2,9.917147406E0
2.388636514E0,-9.511470050E-2,-9.916455269E0,-4.516452923E-2,9.917014255E0
2.391060107E0,-1.070788130E-1,-9.897313118E0,-3.320041299E-2,9.897948024E0
2.393484118E0,-1.190429255E-1,-9.914062500E0,-3.080759197E-2,9.914825040E0
2.395907816E0,-9.272187948E-2,-9.916455269E0,-3.798605874E-2,9.916961500E0
2.398332139E0,-9.750752151E-2,-9.906884193E0,-5.234299600E-2,9.907502305E0
2.400756618E0,-1.142572835E-1,-9.904491425E0,-4.516452923E-2,9.905253401E0
2.403181097E0,-8.554340899E-2,-9.916455269E0,-4.037888348E-2,9.916906434E0
2.405606045E0,-1.214357466E-1,-9.899705887E0,-3.320041299E-2,9.900506328E0
2.408030628E0,-1.214357466E-1,-9.902098656E0,-4.516452923E-2,9.902946242E0
2.410455107E0,-1.022931710E-1,-9.926026344E0,-4.516452923E-2,9.926656170E0
2.412879639E0,-8.075776696E-2,-9.902098656E0,-2.841476910E-2,9.902468733E0
2.415304482E0,-1.022931710E-1,-9.904491425E0,-4.516452923E-2,9.905122619E0
2.417729274E0,-1.046859920E-1,-9.918848038E0,-3.798605874E-2,9.919473196E0
2.420153962E0,-1.070788130E-1,-9.921240807E0,-3.798605874E-2,9.921891350E0
2.422578701E0,-1.286142170E-1,-9.923633575E0,-2.602194622E-2,9.924501101E0
2.425003285E0,-1.094716340E-1,-9.914062500E0,-4.037888348E-2,9.914749102E0
2.427427972E0,-9.511470050E-2,-9.904491425E0,-2.841476910E-2,9.904988874E0
2.429852503E0,-1.118644550E-1,-9.899705887E0,-3.320041299E-2,9.900393556E0
2.432277399E0,-9.272187948E-2,-9.890133858E0,-4.277170449E-2,9.890660973E0
2.434701566E0,-8.554340899E-2,-9.894919395E0,-5.473581702E-2,9.895440542E0
2.437126149E0,-9.750752151E-2,-9.906884193E0,-3.798605874E-2,9.907436857E0
2.439549378E0,-1.070788130E-1,-9.899705887E0,-3.080759197E-2,9.900332905E0
2.441973649E0,-9.272187948E-2,-9.894919395E0,-3.798605874E-2,9.895426728E0
2.444398180E0,-9.032905847E-2,-9.890133858E0,-3.320041299E-2,9.890602071E0
2.446822920E0,-1.070788130E-1,-9.902098656E0,-3.080759197E-2,9.902725522E0
2.449247035E0,-9.511470050E-2,-9.923633575E0,-2.602194622E-2,9.924123502E0
2.451670889E0,-1.166501045E-1,-9.909276962E0,-6.879365072E-3,9.909965918E0
2.454095368E0,-1.142572835E-1,-9.914062500E0,-3.080759197E-2,9.914768736E0
2.456519691E0,-9.272187948E-2,-9.909276962E0,-4.516452923E-2,9.909813676E0
2.458944066E0,-1.022931710E-1,-9.909276962E0,-2.841476910E-2,9.909845670E0
2.461368805E0,-1.046859920E-1,-9.914062500E0,-2.123630047E-2,9.914637935E0
2.463793337E0,-1.166501045E-1,-9.890133858E0,-5.473581702E-2,9.890973207E0
2.466217295E0,-7.836493850E-2,-9.892526627E0,-4.516452923E-2,9.892940107E0
2.468641566E0,-9.272187948E-2,-9.906884193E0,-5.234299600E-2,9.907456362E0
2.471065993E0,-9.750752151E-2,-9.923633575E0,-4.037888348E-2,9.924194754E0
2.473490524E0,-8.075776696E-2,-9.921240807E0,-4.995017126E-2,9.921695217E0
2.475915212E0,-1.046859920E-1,-9.906884193E0,-5.234299600E-2,9.907575554E0
2.478340107E0,-9.750752151E-2,-9.904491425E0,-2.602194622E-2,9.905005565E0
2.480764482E0,-1.190429255E-1,-9.904491425E0,-3.559323773E-2,9.905270742E0
2.483189274E0,-1.118644550E-1,-9.930811882E0,-3.798605874E-2,9.931514549E0
2.485613493E0,-1.022931710E-1,-9.904491425E0,-4.037888348E-2,9.905101954E0
2.488037764E0,-1.022931710E-1,-9.890133858E0,-3.798605874E-2,9.890735795E0
2.490462295E0,-8.554340899E-2,-9.911669731E0,-5.234299600E-2,9.912177073E0
2.492886826E0,-8.554340899E-2,-9.914062500E0,-3.320041299E-2,9.914487137E0
2.495310107E0,-9.511470050E-2,-9.909276962E0,-4.995017126E-2,9.909859320E0
2.497734691E0,-9.032905847E-2,-9.906884193E0,-3.559323773E-2,9.907359923E0
2.500159014E0,-7.357929647E-2,-9.911669731E0,-4.755735025E-2,9.912056924E0
2.502583285E0,-9.272187948E-2,-9.914062500E0,-5.234299600E-2,9.914634254E0
2.505007503E0,-1.238285750E-1,-9.899705887E0,-4.995017126E-2,9.900606304E0
2.507431305E0,-9.990034252E-2,-9.926026344E0,-3.559323773E-2,9.926592867E0
2.509856201E0,-1.022931710E-1,-9.921240807E0,-4.037888348E-2,9.921850306E0
2.512280628E0,-1.070788130E-1,-9.882955551E0,-3.320041299E-2,9.883591380E0
2.514705212E0,-8.315058798E-2,-9.902098656E0,-3.320041299E-2,9.902503425E0
2.517129326E0,-1.118644550E-1,-9.906884193E0,-3.320041299E-2,9.907571365E0
2.519553441E0,-1.046859920E-1,-9.909276962E0,-2.602194622E-2,9.909864087E0
2.521977503E0,-7.597211748E-2,-9.899705887E0,-2.602194622E-2,9.900031593E0
2.524401514E0,-9.272187948E-2,-9.914062500E0,-4.277170449E-2,9.914588343E0
2.526825212E0,-7.118647546E-2,-9.930811882E0,-3.559323773E-2,9.931130803E0
2.529248805E0,-9.750752151E-2,-9.921240807E0,-3.559323773E-2,9.921783798E0
2.531672764E0,-7.836493850E-2,-9.902098656E0,-5.234299600E-2,9.902547078E0
2.534095941E0,-1.022931710E-1,-9.916455269E0,-4.995017126E-2,9.917108652E0
2.536519795E0,-1.022931710E-1,-9.921240807E0,-4.277170449E-2,9.921860332E0
2.538944014E0,-9.750752151E-2,-9.899705887E0,-3.798605874E-2,9.900258951E0
2.541367972E0,-9.750752151E-2,-9.928419113E0,-4.037888348E-2,9.928980021E0
2.543792451E0,-7.836493850E-2,-9.899705887E0,-5.473581702E-2,9.900167358E0
2.546216410E0,-1.118644550E-1,-9.921240807E0,-5.712864175E-2,9.922035904E0
2.548640732E0,-1.118644550E-1,-9.916455269E0,-3.798605874E-2,9.917158953E0
2.551064951E0,-8.793623000E-2,-9.911669731E0,-4.277170449E-2,9.912152090E0
2.553489222E0,-8.793623000E-2,-9.926026344E0,-3.798605874E-2,9.926488539E0
2.555913180E0,-1.190429255E-1,-9.914062500E0,-1.645065658E-2,9.914790825E0
2.558337347E0,-1.022931710E-1,-9.897313118E0,-4.755735025E-2,9.897955978E0
2.560761566E0,-9.272187948E-2,-9.899705887E0,-5.473581702E-2,9.900291410E0
2.563185055E0,-8.075776696E-2,-9.894919395E0,-4.516452923E-2,9.895352015E0
2.565609326E0,-1.142572835E-1,-9.918848038E0,-2.841476910E-2,9.919546790E0
2.568033180E0,-1.118644550E-1,-9.928419113E0,-4.995017126E-2,9.929174929E0
2.570457295E0,-8.075776696E-2,-9.904491425E0,-3.320041299E-2,9.904876297E0
2.572882035E0,-8.554340899E-2,-9.899705887E0,-3.080759197E-2,9.900123405E0
2.575306305E0,-9.272187948E-2,-9.906884193E0,-2.362912335E-2,9.907346270E0
2.577730107E0,-8.075776696E-2,-9.926026344E0,-3.320041299E-2,9.926410382E0
2.580155003E0,-1.238285750E-1,-9.909276962E0,-5.473581702E-2,9.910201786E0
2.582579118E0,-8.315058798E-2,-9.923633575E0,-3.798605874E-2,9.924054630E0
2.585003128E0,-1.022931710E-1,-9.911669731E0,-3.320041299E-2,9.912253176E0
2.587427399E0,-6.161518395E-2,-9.899705887E0,-3.559323773E-2,9.899961614E0
2.589851357E0,-7.597211748E-2,-9.909276962E0,-4.277170449E-2,9.909660494E0
2.592275316E0,-1.094716340E-1,-9.899705887E0,-3.320041299E-2,9.900366809E0
2.594699587E0,-1.357926875E-1,-9.890133858E0,-3.559323773E-2,9.891130080E0
2.597123493E0,-8.554340899E-2,-9.918848038E0,-4.277170449E-2,9.919309124E0
2.599546826E0,-9.990034252E-2,-9.923633575E0,-5.473581702E-2,9.924287351E0
2.601971045E0,-9.272187948E-2,-9.902098656E0,-2.602194622E-2,9.902566954E0
2.604395368E0,-8.554340899E-2,-9.897313118E0,-3.320041299E-2,9.897738474E0
2.606819639E0,-1.070788130E-1,-9.894919395E0,-3.080759197E-2,9.895546717E0
2.609243805E0,-9.750752151E-2,-9.885348320E0,-4.995017126E-2,9.885955399E0
2.611667764E0,-1.094716340E-1,-9.902098656E0,-2.123630047E-2,9.902726534E0
2.614092555E0,-9.511470050E-2,-9.892526627E0,-3.320041299E-2,9.893039580E0
2.616516930E0,-9.511470050E-2,-9.878170013E0,-2.841476910E-2,9.878668788E0
2.618941410E0,-9.272187948E-2,-9.899705887E0,-4.277170449E-2,9.900232493E0
2.621365628E0,-8.793623000E-2,-9.930811882E0,-4.755735025E-2,9.931315075E0
2.623789691E0,-1.070788130E-1,-9.916455269E0,-3.559323773E-2,9.917097249E0
2.626214430E0,-8.793623000E-2,-9.887741089E0,-3.798605874E-2,9.888205073E0
2.628639274E0,-8.793623000E-2,-9.885348320E0,-4.037888348E-2,9.885821900E0
2.631063962E0,-1.094716340E-1,-9.914062500E0,-2.123630047E-2,9.914689621E0
2.633487816E0,-1.046859920E-1,-9.897313118E0,-4.037888348E-2,9.897949109E0
2.635912087E0,-1.190429255E-1,-9.945169449E0,-5.473581702E-2,9.946032505E0
2.638336878E0,-1.166501045E-1,-9.897313118E0,-4.995017126E-2,9.898126551E0
2.640761774E0,-1.094716340E-1,-9.923633575E0,-4.516452923E-2,9.924340140E0
2.643185941E0,-9.032905847E-2,-9.897313118E0,-2.841476910E-2,9.897766096E0
2.645610055E0,-1.022931710E-1,-9.904491425E0,-4.277170449E-2,9.905111998E0
2.648034274E0,-1.262213886E-1,-9.923633575E0,-3.798605874E-2,9.924508961E0
2.650458545E0,-9.032905847E-2,-9.923633575E0,-1.405783277E-2,9.924054630E0
2.652882764E0,-9.511470050E-2,-9.892526627E0,-3.320041299E-2,9.893039580E0
2.655306722E0,-1.046859920E-1,-9.902098656E0,-3.559323773E-2,9.902715982E0
2.657730472E0,-9.272187948E-2,-9.926026344E0,-4.037888348E-2,9.926541532E0
2.660153910E0,-9.511470050E-2,-9.916455269E0,-3.798605874E-2,9.916984161E0
2.662578180E0,-1.046859920E-1,-9.918848038E0,-6.669992954E-2,9.919624712E0
2.665001514E0,-1.046859920E-1,-9.902098656E0,-5.234299600E-2,9.902790351E0
2.667425212E0,-9.990034252E-2,-9.899705887E0,-4.755735025E-2,9.900324158E0
2.669849587E0,-9.032905847E-2,-9.902098656E0,-4.755735025E-2,9.902624845E0
2.672274066E0,-9.990034252E-2,-9.914062500E0,-2.602194622E-2,9.914599965E0
2.674698441E0,-9.750752151E-2,-9.937990189E0,-4.516452923E-2,9.938571152E0
2.677122764E0,-9.511470050E-2,-9.926026344E0,-4.037888348E-2,9.926564171E0
2.679546982E0,-9.750752151E-2,-9.916455269E0,-3.798605874E-2,9.917007399E0
2.681971514E0,-1.214357466E-1,-9.887741089E0,-4.995017126E-2,9.888612921E0
2.684395993E0,-1.070788130E-1,-9.899705887E0,-3.320041299E-2,9.900340640E0
2.686820472E0,-8.315058798E-2,-9.885348320E0,-3.080759197E-2,9.885746028E0
2.689245003E0,-1.022931710E-1,-9.904491425E0,-3.320041299E-2,9.905075292E0
2.691669378E0,-1.118644550E-1,-9.897313118E0,-3.320041299E-2,9.898000954E0
2.694093753E0,-9.750752151E-2,-9.928419113E0,-5.234299600E-2,9.929035884E0
2.696518024E0,-9.750752151E-2,-9.902098656E0,-4.995017126E-2,9.902704707E0
2.698941930E0,-1.022931710E-1,-9.890133858E0,-3.798605874E-2,9.890735795E0
2.701366357E0,-7.597211748E-2,-9.914062500E0,-4.516452923E-2,9.914456458E0
2.703790785E0,-1.357926875E-1,-9.906884193E0,-5.712864175E-2,9.907979499E0
2.706215212E0,-1.118644550E-1,-9.921240807E0,-5.473581702E-2,9.922022415E0
2.708640264E0,-1.046859920E-1,-9.921240807E0,-3.320041299E-2,9.921848647E0
2.711064847E0,-1.094716340E-1,-9.926026344E0,-4.277170449E-2,9.926722140E0
2.713489743E0,-8.554340899E-2,-9.899705887E0,-3.080759197E-2,9.900123405E0
2.715914274E0,-7.357929647E-2,-9.916455269E0,-2.841476910E-2,9.916768950E0
2.718338753E0,-1.118644550E-1,-9.897313118E0,-3.320041299E-2,9.898000954E0
2.720763805E0,-1.286142170E-1,-9.918848038E0,-2.123630047E-2,9.919704582E0
2.723188337E0,-9.990034252E-2,-9.890133858E0,-3.798605874E-2,9.890711337E0
2.725612816E0,-1.166501045E-1,-9.892526627E0,-5.234299600E-2,9.893352824E0
2.728037139E0,-1.262213886E-1,-9.918848038E0,-3.320041299E-2,9.919706674E0
2.730460993E0,-1.214357466E-1,-9.918848038E0,-3.798605874E-2,9.919664106E0
2.732885055E0,-1.094716340E-1,-9.914062500E0,-2.841476910E-2,9.914707595E0
2.735308389E0,-1.022931710E-1,-9.935597420E0,-5.234299600E-2,9.936261861E0
2.737732712E0,-9.511470050E-2,-9.914062500E0,-4.995017126E-2,9.914644577E0
2.740157816E0,-1.166501045E-1,-9.899705887E0,-3.559323773E-2,9.900457099E0
2.742581930E0,-1.214357466E-1,-9.921240807E0,-2.602194622E-2,9.922018087E0
2.745005993E0,-8.793623000E-2,-9.890133858E0,-3.320041299E-2,9.890580507E0
2.747430160E0,-8.793623000E-2,-9.906884193E0,-5.712864175E-2,9.907439169E0
2.749854326E0,-1.022931710E-1,-9.918848038E0,-3.080759197E-2,9.919423340E0
2.752279274E0,-9.032905847E-2,-9.911669731E0,-1.645065658E-2,9.912094976E0
2.754704014E0,-1.262213886E-1,-9.904491425E0,-3.320041299E-2,9.905351306E0
2.757128649E0,-1.070788130E-1,-9.892526627E0,-4.516452923E-2,9.893209225E0
2.759552816E0,-1.070788130E-1,-9.904491425E0,-3.320041299E-2,9.905125871E0
2.761977087E0,-1.190429255E-1,-9.892526627E0,-9.272187948E-3,9.893247204E0
2.764401097E0,-1.262213886E-1,-9.894919395E0,-3.559323773E-2,9.895788425E0
2.766825732E0,-1.190429255E-1,-9.918848038E0,-3.320041299E-2,9.919617930E0
2.769250316E0,-1.070788130E-1,-9.916455269E0,-4.755735025E-2,9.917147406E0
2.771674899E0,-9.272187948E-2,-9.918848038E0,-3.559323773E-2,9.919345272E0
2.774099222E0,-1.046859920E-1,-9.904491425E0,-3.320041299E-2,9.905100292E0
2.776523649E0,-9.272187948E-2,-9.933204651E0,-4.755735025E-2,9.933751239E0
2.778947764E0,-7.118647546E-2,-9.909276962E0,-6.430710852E-2,9.909741310E0
2.781371982E0,-6.161518395E-2,-9.892526627E0,-4.277170449E-2,9.892810971E0
2.783796566E0,-8.315058798E-2,-9.882955551E0,-3.798605874E-2,9.883378339E0
2.786221045E0,-1.022931710E-1,-9.887741089E0,-3.080759197E-2,9.888318201E0
2.788645160E0,-8.554340899E-2,-9.918848038E0,-6.430710852E-2,9.919425360E0
2.791068910E0,-8.793623000E-2,-9.909276962E0,-4.755735025E-2,9.909781249E0
2.793493701E0,-1.046859920E-1,-9.909276962E0,-4.277170449E-2,9.909922224E0
2.795918232E0,-9.990034252E-2,-9.890133858E0,-3.798605874E-2,9.890711337E0
2.798343180E0,-1.022931710E-1,-9.906884193E0,-2.362912335E-2,9.907440469E0
2.800767503E0,-1.070788130E-1,-9.887741089E0,-4.277170449E-2,9.888413378E0
2.803191670E0,-8.315058798E-2,-9.899705887E0,-3.080759197E-2,9.900103018E0
2.805615837E0,-1.094716340E-1,-9.897313118E0,-4.755735025E-2,9.898032769E0
2.808040524E0,-1.310070455E-1,-9.892526627E0,-5.712864175E-2,9.893558995E0
2.810464691E0,-9.750752151E-2,-9.899705887E0,-4.995017126E-2,9.900312085E0
2.812888910E0,-1.022931710E-1,-9.914062500E0,-4.995017126E-2,9.914716041E0
2.815313441E0,-1.094716340E-1,-9.902098656E0,-2.602194622E-2,9.902737953E0
2.817737660E0,-1.142572835E-1,-9.906884193E0,-2.602194622E-2,9.907577216E0
2.820161826E0,-9.990034252E-2,-9.930811882E0,-4.516452923E-2,9.931417046E0
2.822586305E0,-9.272187948E-2,-9.894919395E0,-3.798605874E-2,9.895426728E0
2.825010837E0,-8.793623000E-2,-9.906884193E0,-2.362912335E-2,9.907302637E0
2.827435212E0,-1.070788130E-1,-9.928419113E0,-4.037888348E-2,9.929078629E0
2.829859795E0,-6.879365444E-2,-9.906884193E0,-5.473581702E-2,9.907274247E0
2.832284639E0,-1.094716340E-1,-9.923633575E0,-4.755735025E-2,9.924351318E0
2.834708910E0,-9.511470050E-2,-9.909276962E0,-4.755735025E-2,9.909847548E0
2.837133493E0,-1.238285750E-1,-9.909276962E0,-4.995017126E-2,9.910176510E0
2.839557920E0,-9.990034252E-2,-9.906884193E0,-5.712864175E-2,9.907552583E0
2.841981722E0,-9.272187948E-2,-9.906884193E0,-2.841476910E-2,9.907358839E0
2.844406774E0,-9.990034252E-2,-9.904491425E0,-3.559323773E-2,9.905059179E0
2.846831410E0,-1.070788130E-1,-9.921240807E0,-2.362912335E-2,9.921846771E0
2.849256045E0,-1.262213886E-1,-9.914062500E0,-4.037888348E-2,9.914948187E0
2.851680472E0,-7.597211748E-2,-9.904491425E0,-2.602194622E-2,9.904816974E0
2.854104951E0,-1.022931710E-1,-9.914062500E0,-3.559323773E-2,9.914654105E0
2.856529430E0,-1.142572835E-1,-9.904491425E0,-3.559323773E-2,9.905214384E0
2.858953441E0,-9.990034252E-2,-9.899705887E0,-4.037888348E-2,9.900292277E0
2.861378232E0,-9.032905847E-2,-9.918848038E0,-3.798605874E-2,9.919332068E0
2.863802503E0,-9.272187948E-2,-9.918848038E0,-2.841476910E-2,9.919322111E0
2.866226722E0,-1.166501045E-1,-9.918848038E0,-4.516452923E-2,9.919636761E0
2.868650941E0,-1.166501045E-1,-9.894919395E0,-5.952146277E-2,9.895785966E0
2.871075316E0,-1.142572835E-1,-9.904491425E0,-4.277170449E-2,9.905242780E0
2.873499639E0,-1.190429255E-1,-9.918848038E0,-4.516452923E-2,9.919665188E0
2.875924587E0,-8.315058798E-2,-9.928419113E0,-4.037888348E-2,9.928849408E0
2.878350003E0,-1.046859920E-1,-9.911669731E0,-2.841476910E-2,9.912263284E0
2.880774795E0,-1.094716340E-1,-9.926026344E0,-4.755735025E-2,9.926743914E0
2.883199066E0,-9.032905847E-2,-9.906884193E0,-4.516452923E-2,9.907398932E0
2.885622868E0,-1.046859920E-1,-9.911669731E0,-3.080759197E-2,9.912270432E0
2.888047295E0,-1.046859920E-1,-9.916455269E0,-2.602194622E-2,9.917041968E0
2.890471566E0,-8.315058798E-2,-9.906884193E0,-3.080759197E-2,9.907281037E0
2.892896514E0,-7.357929647E-2,-9.911669731E0,-5.473581702E-2,9.912093966E0
2.895320576E0,-1.094716340E-1,-9.892526627E0,-3.559323773E-2,9.893196348E0
2.897745212E0,-9.032905847E-2,-9.909276962E0,-3.559323773E-2,9.909752577E0
2.900169222E0,-1.022931710E-1,-9.911669731E0,-2.602194622E-2,9.912231731E0
2.902593285E0,-6.400800496E-2,-9.902098656E0,-2.602194622E-2,9.902339721E0
2.905016670E0,-9.750752151E-2,-9.892526627E0,-2.841476910E-2,9.893047972E0
2.907440837E0,-8.075776696E-2,-9.899705887E0,-2.362912335E-2,9.900063474E0
2.909865055E0,-9.272187948E-2,-9.904491425E0,-2.841476910E-2,9.904966185E0
2.912290212E0,-1.022931710E-1,-9.904491425E0,-3.798605874E-2,9.905092489E0
2.914714847E0,-1.118644550E-1,-9.909276962E0,-2.602194622E-2,9.909942518E0
2.917139170E0,-8.554340899E-2,-9.894919395E0,-3.559323773E-2,9.895353172E0
2.919564170E0,-9.511470050E-2,-9.916455269E0,-2.841476910E-2,9.916952118E0
2.921988701E0,-8.554340899E-2,-9.916455269E0,-3.320041299E-2,9.916879804E0
2.924413128E0,-8.793623000E-2,-9.921240807E0,-2.841476910E-2,9.921671196E0
2.926837972E0,-9.511470050E-2,-9.928419113E0,-2.841476910E-2,9.928915363E0
2.929262972E0,-8.315058798E-2,-9.923633575E0,-2.362912335E-2,9.924010061E0
2.931687347E0,-9.272187948E-2,-9.897313118E0,-2.123630047E-2,9.897770218E0
2.934111774E0,-9.032905847E-2,-9.909276962E0,-4.516452923E-2,9.909791576E0
2.936535941E0,-6.879365444E-2,-9.904491425E0,-4.995017126E-2,9.904856282E0
2.938960055E0,-8.554340899E-2,-9.923633575E0,-4.037888348E-2,9.924084415E0
2.941384535E0,-9.272187948E-2,-9.902098656E0,-3.559323773E-2,9.902596731E0
2.943809378E0,-9.032905847E-2,-9.926026344E0,-2.123630047E-2,9.926460059E0
2.946234222E0,-1.022931710E-1,-9.914062500E0,-3.798605874E-2,9.914662984E0
2.948658805E0,-1.070788130E-1,-9.894919395E0,-4.037888348E-2,9.895581144E0
2.951082764E0,-1.070788130E-1,-9.918848038E0,-3.559323773E-2,9.919489863E0
2.953507451E0,-1.070788130E-1,-9.911669731E0,-3.320041299E-2,9.912303718E0
2.955932191E0,-1.046859920E-1,-9.933204651E0,-2.123630047E-2,9.933778977E0
2.958356410E0,-1.142572835E-1,-9.892526627E0,-4.277170449E-2,9.893278890E0
2.960780628E0,-1.094716340E-1,-9.930811882E0,-4.755735025E-2,9.931529106E0
2.963204639E0,-1.070788130E-1,-9.909276962E0,-3.320041299E-2,9.909911102E0
2.965629899E0,-1.142572835E-1,-9.906884193E0,-4.277170449E-2,9.907635367E0
2.968054847E0,-1.022931710E-1,-9.914062500E0,-2.602194622E-2,9.914624364E0
2.970479482E0,-1.070788130E-1,-9.885348320E0,-3.798605874E-2,9.886001225E0
2.972903910E0,-1.094716340E-1,-9.914062500E0,-2.362912335E-2,9.914695035E0
2.975329274E0,-1.022931710E-1,-9.909276962E0,-3.798605874E-2,9.909877736E0
2.977754118E0,-1.070788130E-1,-9.926026344E0,-4.516452923E-2,9.926706639E0
2.980178701E0,-1.046859920E-1,-9.880562782E0,-3.798605874E-2,9.881190363E0
2.982602503E0,-1.142572835E-1,-9.890133858E0,-4.995017126E-2,9.890919951E0
2.985026410E0,-8.793623000E-2,-9.923633575E0,-5.473581702E-2,9.924174128E0
2.987450993E0,-9.750752151E-2,-9.916455269E0,-4.516452923E-2,9.917037494E0
2.989875837E0,-8.315058798E-2,-9.911669731E0,-4.037888348E-2,9.912100753E0
2.992300368E0,-1.070788130E-1,-9.921240807E0,-3.559323773E-2,9.921882477E0
2.994724326E0,-9.272187948E-2,-9.904491425E0,-4.755735025E-2,9.905039597E0
2.997148232E0,-1.214357466E-1,-9.909276962E0,-3.559323773E-2,9.910084936E0
2.999572191E0,-9.272187948E-2,-9.902098656E0,-5.473581702E-2,9.902684037E0
3.001996618E0,-9.990034252E-2,-9.918848038E0,-4.277170449E-2,9.919443326E0
3.004421149E0,-9.511470050E-2,-9.909276962E0,-3.080759197E-2,9.909781321E0
3.006845316E0,-1.022931710E-1,-9.897313118E0,-3.798605874E-2,9.897914618E0
3.009269639E0,-9.032905847E-2,-9.904491425E0,-4.277170449E-2,9.904995666E0
3.011693753E0,-9.990034252E-2,-9.873384476E0,-5.473581702E-2,9.874041578E0
3.014118180E0,-1.214357466E-1,-9.906884193E0,-4.277170449E-2,9.907720751E0
3.016542243E0,-9.032905847E-2,-9.897313118E0,-3.320041299E-2,9.897780992E0
3.018966722E0,-9.990034252E-2,-9.897313118E0,-3.798605874E-2,9.897890178E0
3.021390680E0,-9.990034252E-2,-9.914062500E0,-3.798605874E-2,9.914638585E0
3.023815107E0,-9.032905847E-2,-9.906884193E0,-4.037888348E-2,9.907378272E0
3.026239430E0,-9.032905847E-2,-9.906884193E0,-3.559323773E-2,9.907359923E0
3.028663805E0,-9.750752151E-2,-9.904491425E0,-3.320041299E-2,9.905027025E0
3.031088493E0,-8.315058798E-2,-9.911669731E0,-5.712864175E-2,9.912183138E0
3.033512972E0,-9.032905847E-2,-9.899705887E0,-3.798605874E-2,9.900190853E0
3.035937139E0,-1.238285750E-1,-9.906884193E0,-2.602194622E-2,9.907692218E0
3.038362816E0,-9.272187948E-2,-9.902098656E0,-2.123630047E-2,9.902555535E0
3.040787764E0,-9.032905847E-2,-9.918848038E0,-4.755735025E-2,9.919373339E0
3.043212295E0,-1.166501045E-1,-9.897313118E0,-3.559323773E-2,9.898064512E0
3.045637243E0,-1.142572835E-1,-9.902098656E0,-2.841476910E-2,9.902798590E0
3.048061566E0,-8.554340899E-2,-9.902098656E0,-4.755735025E-2,9.902582348E0
3.050486201E0,-9.272187948E-2,-9.894919395E0,-4.037888348E-2,9.895436203E0
3.052910420E0,-1.142572835E-1,-9.897313118E0,-4.755735025E-2,9.898086855E0
3.055335107E0,-1.118644550E-1,-9.909276962E0,-4.277170449E-2,9.910000655E0
3.057759691E0,-8.315058798E-2,-9.892526627E0,-3.320041299E-2,9.892931787E0
3.060183805E0,-1.166501045E-1,-9.904491425E0,-4.277170449E-2,9.905270670E0
3.062608441E0,-9.511470050E-2,-9.897313118E0,-4.277170449E-2,9.897862556E0
3.065033232E0,-8.315058798E-2,-9.918848038E0,-5.234299600E-2,9.919334665E0
3.067457503E0,-8.315058798E-2,-9.906884193E0,-3.320041299E-2,9.907288767E0
3.069882503E0,-9.990034252E-2,-9.935597420E0,-4.516452923E-2,9.936202293E0
3.072306826E0,-1.142572835E-1,-9.906884193E0,-6.191428751E-2,9.907736499E0
3.074731566E0,-1.022931710E-1,-9.921240807E0,-3.559323773E-2,9.921831984E0
3.077155889E0,-1.142572835E-1,-9.935597420E0,-3.559323773E-2,9.936318116E0
3.079581097E0,-1.046859920E-1,-9.921240807E0,-5.473581702E-2,9.921944079E0
3.082005941E0,-9.032905847E-2,-9.909276962E0,-5.473581702E-2,9.909839820E0
3.084430785E0,-8.554340899E-2,-9.899705887E0,-3.798605874E-2,9.900148345E0
3.086855055E0,-1.094716340E-1,-9.906884193E0,-4.516452923E-2,9.907591952E0
3.089278857E0,-9.750752151E-2,-9.897313118E0,-2.123630047E-2,9.897816206E0
3.091704118E0,-1.166501045E-1,-9.904491425E0,-4.755735025E-2,9.905292491E0
3.094128753E0,-1.238285750E-1,-9.909276962E0,-2.841476910E-2,9.910091363E0
3.096553128E0,-9.032905847E-2,-9.923633575E0,-2.123630047E-2,9.924067395E0
3.098977607E0,-9.272187948E-2,-9.940383911E0,-4.277170449E-2,9.940908362E0
3.101401462E0,-1.046859920E-1,-9.899705887E0,-3.320041299E-2,9.900315049E0
3.103825680E0,-9.990034252E-2,-9.911669731E0,-1.405783277E-2,9.912183138E0
3.106250264E0,-1.070788130E-1,-9.928419113E0,-3.080759197E-2,9.929044318E0
3.108674639E0,-6.640082598E-2,-9.918848038E0,-4.277170449E-2,9.919162509E0
3.111098857E0,-1.142572835E-1,-9.935597420E0,-2.841476910E-2,9.936294994E0
3.113523076E0,-8.075776696E-2,-9.897313118E0,-2.841476910E-2,9.897683374E0
3.115947347E0,-9.032905847E-2,-9.909276962E0,-3.320041299E-2,9.909744271E0
3.118372035E0,-1.166501045E-1,-9.918848038E0,-3.320041299E-2,9.919589503E0
3.120796357E0,-9.272187948E-2,-9.928419113E0,-3.080759197E-2,9.928899866E0
3.123221305E0,-1.046859920E-1,-9.909276962E0,-4.516452923E-2,9.909932841E0
3.125645993E0,-1.022931710E-1,-9.930811882E0,-3.320041299E-2,9.931394202E0
3.128071462E0,-1.142572835E-1,-9.937990189E0,-3.798605874E-2,9.938719568E0
3.130496670E0,-1.022931710E-1,-9.906884193E0,-3.559323773E-2,9.907476227E0
3.132921410E0,-1.166501045E-1,-9.911669731E0,-4.995017126E-2,9.912481986E0
3.135345889E0,-1.070788130E-1,-9.906884193E0,-4.037888348E-2,9.907545142E0
3.137770785E0,-1.118644550E-1,-9.902098656E0,-3.798605874E-2,9.902803360E0
3.140195055E0,-1.070788130E-1,-9.923633575E0,-5.473581702E-2,9.924362207E0
3.142619899E0,-1.022931710E-1,-9.914062500E0,-4.037888348E-2,9.914672440E0
3.145045003E0,-8.793623000E-2,-9.909276962E0,-4.277170449E-2,9.909759438E0
3.147469326E0,-1.286142170E-1,-9.909276962E0,-4.037888348E-2,9.910193842E0
3.149894587E0,-1.118644550E-1,-9.909276962E0,-4.995017126E-2,9.910034238E0
3.152319274E0,-9.750752151E-2,-9.902098656E0,-3.080759197E-2,9.902626652E0
3.154744014E0,-9.750752151E-2,-9.887741089E0,-6.191428751E-2,9.888415694E0
3.157168337E0,-1.166501045E-1,-9.906884193E0,-4.516452923E-2,9.907673869E0
3.159592660E0,-1.286142170E-1,-9.918848038E0,-2.362912335E-2,9.919709993E0
3.162016930E0,-9.990034252E-2,-9.921240807E0,-3.320041299E-2,9.921799307E0
3.164441826E0,-1.142572835E-1,-9.911669731E0,-4.277170449E-2,9.912420542E0
3.166866410E0,-9.511470050E-2,-9.904491425E0,-3.798605874E-2,9.905020955E0
3.169291045E0,-1.070788130E-1,-9.899705887E0,-4.037888348E-2,9.900367315E0
3.171716514E0,-1.046859920E-1,-9.914062500E0,-4.516452923E-2,9.914718062E0
3.174141462E0,-1.022931710E-1,-9.875777245E0,-4.037888348E-2,9.876389549E0
3.176565472E0,-1.022931710E-1,-9.897313118E0,-3.320041299E-2,9.897897409E0
3.178989691E0,-9.990034252E-2,-9.899705887E0,-3.798605874E-2,9.900282807E0
3.181414430E0,-1.166501045E-1,-9.928419113E0,-4.516452923E-2,9.929207077E0
3.183839066E0,-1.118644550E-1,-9.906884193E0,-4.516452923E-2,9.907618680E0
3.186263753E0,-1.190429255E-1,-9.904491425E0,-4.995017126E-2,9.905332736E0
3.188688493E0,-9.511470050E-2,-9.923633575E0,-5.712864175E-2,9.924253817E0
3.191113545E0,-1.190429255E-1,-9.904491425E0,-3.080759197E-2,9.905254702E0
3.193537972E0,-1.046859920E-1,-9.904491425E0,-3.320041299E-2,9.905100292E0
3.195962607E0,-1.022931710E-1,-9.904491425E0,-4.755735025E-2,9.905133819E0
3.198387087E0,-1.142572835E-1,-9.918848038E0,-3.798605874E-2,9.919578825E0
3.200811930E0,-1.190429255E-1,-9.902098656E0,-3.798605874E-2,9.902887051E0
3.203236774E0,-9.990034252E-2,-9.911669731E0,-2.841476910E-2,9.912213897E0
3.205661253E0,-1.022931710E-1,-9.887741089E0,-2.841476910E-2,9.888311035E0
3.208085524E0,-1.094716340E-1,-9.890133858E0,-4.037888348E-2,9.890822120E0
3.210510264E0,-1.022931710E-1,-9.880562782E0,-3.080759197E-2,9.881140314E0
3.212934899E0,-1.070788130E-1,-9.897313118E0,-5.712864175E-2,9.898057209E0
3.215359222E0,-1.022931710E-1,-9.916455269E0,-4.755735025E-2,9.917096888E0
3.217783285E0,-1.046859920E-1,-9.892526627E0,-4.995017126E-2,9.893206620E0
3.220207191E0,-9.272187948E-2,-9.892526627E0,-3.559323773E-2,9.893025184E0
3.222631774E0,-8.793623000E-2,-9.923633575E0,-5.234299600E-2,9.924161219E0
3.225056514E0,-9.990034252E-2,-9.902098656E0,-4.516452923E-2,9.902705575E0
3.227481045E0,-1.238285750E-1,-9.894919395E0,-3.320041299E-2,9.895749877E0
3.229905941E0,-1.022931710E-1,-9.916455269E0,-1.405783277E-2,9.916992821E0
3.232330993E0,-8.554340899E-2,-9.892526627E0,-4.995017126E-2,9.893022579E0
3.234756097E0,-1.070788130E-1,-9.921240807E0,-4.995017126E-2,9.921944368E0
3.237180941E0,-7.836493850E-2,-9.897313118E0,-3.798605874E-2,9.897696245E0
3.239606149E0,-9.272187948E-2,-9.890133858E0,-2.362912335E-2,9.890596716E0
3.242030993E0,-1.022931710E-1,-9.914062500E0,-2.123630047E-2,9.914612959E0
3.244455628E0,-8.793623000E-2,-9.899705887E0,-9.272187948E-3,9.900100777E0
3.246880160E0,-9.032905847E-2,-9.914062500E0,-1.645065658E-2,9.914487643E0
3.249304274E0,-1.166501045E-1,-9.928419113E0,-3.320041299E-2,9.929159864E0
3.251729014E0,-7.836493850E-2,-9.926026344E0,-3.798605874E-2,9.926408363E0
3.254153962E0,-9.990034252E-2,-9.906884193E0,-4.277170449E-2,9.907480200E0
3.256578857E0,-1.022931710E-1,-9.890133858E0,-3.080759197E-2,9.890710830E0
3.259004326E0,-1.046859920E-1,-9.911669731E0,-4.516452923E-2,9.912325451E0
3.261428805E0,-8.793623000E-2,-9.921240807E0,-4.277170449E-2,9.921722700E0
3.263853649E0,-9.990034252E-2,-9.921240807E0,-3.798605874E-2,9.921816475E0
3.266277920E0,-1.166501045E-1,-9.928419113E0,-4.037888348E-2,9.929186462E0
3.268702660E0,-1.070788130E-1,-9.928419113E0,-3.320041299E-2,9.929052031E0
3.271127451E0,-9.511470050E-2,-9.911669731E0,-3.798605874E-2,9.912198878E0
3.273551566E0,-1.214357466E-1,-9.918848038E0,-2.602194622E-2,9.919625506E0
3.275975628E0,-9.990034252E-2,-9.899705887E0,-3.320041299E-2,9.900265602E0
3.278400264E0,-1.046859920E-1,-9.916455269E0,-3.798605874E-2,9.917080578E0
3.280824587E0,-1.046859920E-1,-9.911669731E0,-4.755735025E-2,9.912336643E0
3.283248545E0,-1.022931710E-1,-9.906884193E0,-3.320041299E-2,9.907467920E0
3.285673024E0,-9.511470050E-2,-9.887741089E0,-3.080759197E-2,9.888246546E0
3.288097399E0,-9.272187948E-2,-9.906884193E0,-2.602194622E-2,9.907352265E0
3.290521930E0,-9.511470050E-2,-9.911669731E0,-3.798605874E-2,9.912198878E0
3.292946878E0,-1.118644550E-1,-9.914062500E0,-4.037888348E-2,9.914775810E0
3.295371045E0,-8.793623000E-2,-9.894919395E0,-4.516452923E-2,9.895413203E0
3.297795524E0,-1.094716340E-1,-9.911669731E0,-3.798605874E-2,9.912347040E0
3.300219951E0,-1.118644550E-1,-9.921240807E0,-2.362912335E-2,9.921899573E0
3.302644535E0,-9.990034252E-2,-9.890133858E0,-4.277170449E-2,9.890730874E0
3.305069014E0,-9.990034252E-2,-9.904491425E0,-4.037888348E-2,9.905077532E0
3.307492660E0,-1.046859920E-1,-9.899705887E0,-2.602194622E-2,9.900293579E0
3.309917295E0,-1.166501045E-1,-9.914062500E0,-3.320041299E-2,9.914804323E0
3.312341462E0,-1.190429255E-1,-9.904491425E0,-2.602194622E-2,9.905240973E0
3.314765055E0,-1.094716340E-1,-9.923633575E0,-4.277170449E-2,9.924329539E0
3.317190472E0,-9.272187948E-2,-9.904491425E0,-3.320041299E-2,9.904981070E0
3.319614691E0,-1.070788130E-1,-9.902098656E0,-3.320041299E-2,9.902733255E0
3.322039378E0,-1.142572835E-1,-9.914062500E0,-4.995017126E-2,9.914846696E0
3.324463597E0,-7.836493850E-2,-9.909276962E0,-3.559323773E-2,9.909650743E0
3.326888232E0,-1.070788130E-1,-9.911669731E0,-3.798605874E-2,9.912320902E0
3.329312243E0,-8.793623000E-2,-9.918848038E0,-4.995017126E-2,9.919363598E0
3.331736149E0,-1.142572835E-1,-9.911669731E0,-3.320041299E-2,9.912383863E0
3.334159899E0,-1.214357466E-1,-9.928419113E0,-5.473581702E-2,9.929312601E0
3.336584118E0,-1.046859920E-1,-9.918848038E0,-2.841476910E-2,9.919441161E0
3.339007712E0,-9.032905847E-2,-9.914062500E0,-3.559323773E-2,9.914537885E0
3.341432347E0,-8.793623000E-2,-9.904491425E0,-5.473581702E-2,9.905033022E0
3.343856930E0,-7.597211748E-2,-9.911669731E0,-2.841476910E-2,9.912001615E0
3.346281462E0,-7.597211748E-2,-9.911669731E0,-3.320041299E-2,9.912016490E0
3.348705993E0,-9.272187948E-2,-9.904491425E0,-1.645065658E-2,9.904939089E0
3.351130472E0,-6.879365444E-2,-9.909276962E0,-6.430710852E-2,9.909724410E0
3.353554639E0,-1.118644550E-1,-9.909276962E0,-4.037888348E-2,9.909990617E0
3.355979535E0,-9.990034252E-2,-9.928419113E0,-5.234299600E-2,9.929059671E0
3.358404066E0,-1.070788130E-1,-9.906884193E0,-4.755735025E-2,9.907576999E0
3.360828805E0,-9.750752151E-2,-9.890133858E0,-2.602194622E-2,9.890648744E0
3.363253128E0,-1.118644550E-1,-9.897313118E0,-4.755735025E-2,9.898059523E0
3.365677764E0,-1.070788130E-1,-9.911669731E0,-4.516452923E-2,9.912351011E0
3.368102243E0,-8.315058798E-2,-9.909276962E0,-4.277170449E-2,9.909718127E0
3.370526566E0,-1.022931710E-1,-9.921240807E0,-3.559323773E-2,9.921831984E0
3.372950889E0,-9.272187948E-2,-9.933204651E0,-5.473581702E-2,9.933788200E0
3.375375785E0,-9.511470050E-2,-9.923633575E0,-5.234299600E-2,9.924227423E0
3.377800264E0,-1.166501045E-1,-9.911669731E0,-4.277170449E-2,9.912448412E0
3.380225107E0,-1.094716340E-1,-9.902098656E0,-4.277170449E-2,9.902796133E0
3.382649482E0,-8.554340899E-2,-9.909276962E0,-4.037888348E-2,9.909728455E0
3.385074326E0,-1.094716340E-1,-9.918848038E0,-5.234299600E-2,9.919590225E0
3.387498441E0,-1.022931710E-1,-9.911669731E0,-2.362912335E-2,9.912225738E0
3.389922972E0,-1.118644550E-1,-9.902098656E0,-4.516452923E-2,9.902833497E0
3.392348180E0,-1.070788130E-1,-9.926026344E0,-3.080759197E-2,9.926651700E0
3.394772972E0,-9.272187948E-2,-9.914062500E0,-3.320041299E-2,9.914551673E0
3.397197920E0,-7.836493850E-2,-9.902098656E0,-3.798605874E-2,9.902481598E0
3.399623128E0,-1.142572835E-1,-9.921240807E0,-3.320041299E-2,9.921954250E0
3.402047868E0,-1.070788130E-1,-9.902098656E0,-3.080759197E-2,9.902725522E0
3.404472035E0,-9.032905847E-2,-9.904491425E0,-2.123630047E-2,9.904926082E0
3.406896566E0,-9.032905847E-2,-9.918848038E0,-4.037888348E-2,9.919341520E0
3.409321045E0,-9.272187948E-2,-9.911669731E0,-1.884347759E-2,9.912121331E0
3.411745837E0,-8.554340899E-2,-9.933204651E0,-4.037888348E-2,9.933655056E0
3.414170160E0,-8.315058798E-2,-9.899705887E0,-5.952146277E-2,9.900234011E0
3.416594587E0,-1.022931710E-1,-9.890133858E0,-4.277170449E-2,9.890755332E0
3.419019222E0,-9.511470050E-2,-9.916455269E0,-5.712864175E-2,9.917075960E0
3.421443024E0,-8.793623000E-2,-9.892526627E0,-3.798605874E-2,9.892990386E0
3.423867139E0,-1.070788130E-1,-9.909276962E0,-3.798605874E-2,9.909928291E0
3.426291357E0,-9.750752151E-2,-9.885348320E0,-4.037888348E-2,9.885911672E0
3.428716201E0,-1.142572835E-1,-9.892526627E0,-2.362912335E-2,9.893214650E0
3.431140837E0,-1.070788130E-1,-9.873384476E0,-4.516452923E-2,9.874068397E0
3.433565420E0,-9.990034252E-2,-9.916455269E0,-3.798605874E-2,9.917031215E0
3.435989482E0,-9.990034252E-2,-9.921240807E0,-4.755735025E-2,9.921857735E0
3.438414378E0,-1.262213886E-1,-9.926026344E0,-5.712864175E-2,9.926993226E0
3.440838805E0,-8.793623000E-2,-9.897313118E0,-4.755735025E-2,9.897818014E0
3.443263128E0,-9.990034252E-2,-9.909276962E0,-4.995017126E-2,9.909906408E0
3.445687243E0,-9.750752151E-2,-9.916455269E0,-5.473581702E-2,9.917085702E0
3.448111930E0,-9.511470050E-2,-9.897313118E0,-2.602194622E-2,9.897804348E0
3.450535576E0,-1.214357466E-1,-9.918848038E0,-4.755735025E-2,9.919705376E0
3.452959691E0,-8.075776696E-2,-9.918848038E0,-5.952146277E-2,9.919355373E0
3.455383545E0,-9.750752151E-2,-9.890133858E0,-4.995017126E-2,9.890740643E0
3.457808232E0,-8.793623000E-2,-9.899705887E0,-4.037888348E-2,9.900178780E0
3.460233076E0,-1.118644550E-1,-9.892526627E0,-4.037888348E-2,9.893241489E0
3.462657243E0,-1.142572835E-1,-9.942776680E0,-3.559323773E-2,9.943496855E0
3.465081566E0,-1.022931710E-1,-9.928419113E0,-5.234299600E-2,9.929084035E0
3.467506045E0,-1.070788130E-1,-9.887741089E0,-2.841476910E-2,9.888361700E0
3.469930680E0,-8.554340899E-2,-9.909276962E0,-3.080759197E-2,9.909694077E0
3.472355941E0,-1.022931710E-1,-9.921240807E0,-2.841476910E-2,9.921808829E0
3.474780837E0,-9.032905847E-2,-9.916455269E0,-2.841476910E-2,9.916907373E0
3.477204639E0,-1.094716340E-1,-9.899705887E0,-3.798605874E-2,9.900384014E0
3.479628962E0,-9.511470050E-2,-9.911669731E0,-4.755735025E-2,9.912240179E0
3.482053024E0,-8.554340899E-2,-9.894919395E0,-3.320041299E-2,9.895344854E0
3.484477243E0,-8.793623000E-2,-9.909276962E0,-2.602194622E-2,9.909701299E0
3.486901930E0,-1.022931710E-1,-9.904491425E0,-2.602194622E-2,9.905053832E0
3.489326618E0,-9.511470050E-2,-9.904491425E0,-4.755735025E-2,9.905062286E0
3.491751410E0,-1.142572835E-1,-9.935597420E0,-4.516452923E-2,9.936357011E0
3.494175732E0,-1.022931710E-1,-9.897313118E0,-3.798605874E-2,9.897914618E0
3.496600003E0,-7.597211748E-2,-9.916455269E0,-4.516452923E-2,9.916849131E0
3.499024326E0,-1.238285750E-1,-9.914062500E0,-5.473581702E-2,9.914986877E0
3.501447972E0,-1.238285750E-1,-9.911669731E0,-4.277170449E-2,9.912535488E0
3.503872139E0,-8.075776696E-2,-9.921240807E0,-5.952146277E-2,9.921748020E0
3.506295785E0,-1.094716340E-1,-9.904491425E0,-5.473581702E-2,9.905247621E0
3.508719639E0,-1.070788130E-1,-9.894919395E0,-5.952146277E-2,9.895677770E0
3.511143337E0,-1.118644550E-1,-9.899705887E0,-4.755735025E-2,9.900452111E0
3.513567712E0,-1.118644550E-1,-9.904491425E0,-3.080759197E-2,9.905171030E0
3.515993024E0,-8.075776696E-2,-9.904491425E0,-4.995017126E-2,9.904946603E0
3.518417660E0,-8.554340899E-2,-9.911669731E0,-3.559323773E-2,9.912102775E0
3.520841774E0,-9.511470050E-2,-9.911669731E0,-3.559323773E-2,9.912189997E0
3.523265055E0,-8.793623000E-2,-9.928419113E0,-4.277170449E-2,9.928900658E0
3.525689014E0,-1.022931710E-1,-9.911669731E0,-5.473581702E-2,9.912348701E0
3.528114014E0,-9.272187948E-2,-9.902098656E0,-5.712864175E-2,9.902697552E0
3.530538857E0,-9.990034252E-2,-9.904491425E0,-4.755735025E-2,9.905109397E0
3.532963441E0,-1.022931710E-1,-9.887741089E0,-4.277170449E-2,9.888362713E0
3.535387139E0,-1.190429255E-1,-9.902098656E0,-3.559323773E-2,9.902878162E0
3.537811253E0,-1.046859920E-1,-9.904491425E0,-4.995017126E-2,9.905170597E0
3.540235889E0,-1.046859920E-1,-9.921240807E0,-4.277170449E-2,9.921885290E0
3.542659691E0,-8.793623000E-2,-9.916455269E0,-3.798605874E-2,9.916917909E0
3.545084066E0,-9.511470050E-2,-9.902098656E0,-5.712864175E-2,9.902720246E0
3.547508805E0,-8.793623000E-2,-9.906884193E0,-3.559323773E-2,9.907338395E0
3.549932868E0,-1.070788130E-1,-9.918848038E0,-4.755735025E-2,9.919540008E0
3.552357555E0,-8.554340899E-2,-9.921240807E0,-3.320041299E-2,9.921665137E0
3.554782451E0,-1.190429255E-1,-9.902098656E0,-3.798605874E-2,9.902887051E0
3.557206618E0,-9.750752151E-2,-9.887741089E0,-4.037888348E-2,9.888304304E0
3.559631357E0,-8.075776696E-2,-9.911669731E0,-3.559323773E-2,9.912062629E0
3.562056045E0,-9.990034252E-2,-9.892526627E0,-2.602194622E-2,9.893065262E0
3.564480264E0,-9.272187948E-2,-9.885348320E0,-4.516452923E-2,9.885886333E0
3.566903910E0,-6.400800496E-2,-9.894919395E0,-3.559323773E-2,9.895190435E0
3.569327920E0,-9.750752151E-2,-9.882955551E0,-4.037888348E-2,9.883519039E0
3.571752295E0,-1.118644550E-1,-9.902098656E0,-4.755735025E-2,9.902844700E0
3.574176514E0,-9.511470050E-2,-9.909276962E0,-4.995017126E-2,9.909859320E0
3.576601357E0,-1.118644550E-1,-9.911669731E0,-4.277170449E-2,9.912393250E0
3.579026410E0,-1.046859920E-1,-9.904491425E0,-5.234299600E-2,9.905182953E0
3.581451878E0,-8.554340899E-2,-9.911669731E0,-5.952146277E-2,9.912217579E0
3.583875941E0,-9.272187948E-2,-9.918848038E0,-6.191428751E-2,9.919474639E0
3.586300420E0,-1.070788130E-1,-9.902098656E0,-2.123630047E-2,9.902700371E0
3.588724899E0,-9.272187948E-2,-9.911669731E0,-3.080759197E-2,9.912151296E0
3.591149326E0,-1.022931710E-1,-9.909276962E0,-3.320041299E-2,9.909860548E0
3.593574222E0,-1.046859920E-1,-9.890133858E0,-4.037888348E-2,9.890770310E0
3.595998962E0,-9.032905847E-2,-9.918848038E0,-5.473581702E-2,9.919410353E0
3.598423910E0,-1.046859920E-1,-9.933204651E0,-2.841476910E-2,9.933796917E0
3.600848805E0,-1.166501045E-1,-9.930811882E0,-4.037888348E-2,9.931579046E0
3.603274378E0,-1.070788130E-1,-9.902098656E0,-3.320041299E-2,9.902733255E0
3.605699691E0,-1.118644550E-1,-9.923633575E0,-3.798605874E-2,9.924336750E0
3.608124639E0,-1.142572835E-1,-9.899705887E0,-4.037888348E-2,9.900447557E0
3.610550055E0,-9.272187948E-2,-9.911669731E0,-4.755735025E-2,9.912217507E0
3.612974847E0,-1.022931710E-1,-9.904491425E0,-4.037888348E-2,9.905101954E0
3.615399222E0,-1.070788130E-1,-9.906884193E0,-4.755735025E-2,9.907576999E0
3.617823805E0,-1.238285750E-1,-9.890133858E0,-4.037888348E-2,9.890991441E0
3.620248232E0,-1.094716340E-1,-9.906884193E0,-2.841476910E-2,9.907529756E0
3.622672087E0,-1.166501045E-1,-9.911669731E0,-3.080759197E-2,9.912404008E0
3.625096566E0,-1.357926875E-1,-9.942776680E0,-4.755735025E-2,9.943817650E0
3.627520785E0,-9.511470050E-2,-9.909276962E0,-4.037888348E-2,9.909815698E0
3.629945003E0,-9.990034252E-2,-9.906884193E0,-3.080759197E-2,9.907435774E0
3.632369587E0,-9.750752151E-2,-9.894919395E0,-3.320041299E-2,9.895455514E0
3.634795003E0,-9.750752151E-2,-9.906884193E0,-5.712864175E-2,9.907528744E0
3.637219587E0,-8.554340899E-2,-9.894919395E0,-2.602194622E-2,9.895323373E0
3.639644691E0,-9.750752151E-2,-9.916455269E0,-4.277170449E-2,9.917026885E0
3.642070264E0,-9.750752151E-2,-9.926026344E0,-2.123630047E-2,9.926527977E0
3.644495628E0,-8.793623000E-2,-9.892526627E0,-2.123630047E-2,9.892940251E0
3.646920055E0,-9.750752151E-2,-9.914062500E0,-2.362912335E-2,9.914570152E0
3.649344378E0,-9.990034252E-2,-9.916455269E0,-5.712864175E-2,9.917123013E0
3.651768649E0,-1.070788130E-1,-9.918848038E0,-4.277170449E-2,9.919518218E0
3.654193285E0,-1.118644550E-1,-9.897313118E0,-4.277170449E-2,9.898037686E0
3.656617087E0,-1.286142170E-1,-9.918848038E0,-2.841476910E-2,9.919722547E0
3.659040889E0,-6.640082598E-2,-9.909276962E0,-5.234299600E-2,9.909637671E0
3.661465055E0,-1.022931710E-1,-9.904491425E0,-3.559323773E-2,9.905083601E0
3.663890160E0,-1.333998591E-1,-9.916455269E0,-5.234299600E-2,9.917490631E0
3.666315003E0,-1.190429255E-1,-9.894919395E0,-4.516452923E-2,9.895738522E0
3.668739326E0,-9.032905847E-2,-9.914062500E0,-3.320041299E-2,9.914529583E0
3.671164170E0,-1.022931710E-1,-9.935597420E0,-4.277170449E-2,9.936216050E0
3.673588024E0,-9.990034252E-2,-9.902098656E0,-4.516452923E-2,9.902705575E0
3.676012295E0,-9.032905847E-2,-9.914062500E0,-3.080759197E-2,9.914521859E0
3.678437087E0,-1.022931710E-1,-9.892526627E0,-3.080759197E-2,9.893103459E0
3.680861410E0,-9.272187948E-2,-9.906884193E0,-4.037888348E-2,9.907400377E0
3.683285785E0,-1.333998591E-1,-9.904491425E0,-4.277170449E-2,9.905482084E0
3.685710160E0,-1.070788130E-1,-9.902098656E0,-5.952146277E-2,9.902856480E0
3.688134274E0,-9.990034252E-2,-9.882955551E0,-4.995017126E-2,9.883586673E0
3.690559066E0,-9.750752151E-2,-9.887741089E0,-5.234299600E-2,9.888360397E0
3.692983857E0,-9.511470050E-2,-9.894919395E0,-4.516452923E-2,9.895479598E0
3.695408389E0,-9.750752151E-2,-9.916455269E0,-3.320041299E-2,9.916990223E0
3.697833180E0,-8.315058798E-2,-9.928419113E0,-2.362912335E-2,9.928795417E0
3.700257607E0,-9.032905847E-2,-9.894919395E0,-5.952146277E-2,9.895510699E0
3.702681566E0,-8.554340899E-2,-9.897313118E0,-4.277170449E-2,9.897775207E0
3.705105785E0,-9.511470050E-2,-9.904491425E0,-4.995017126E-2,9.905074064E0
3.707530680E0,-1.142572835E-1,-9.923633575E0,-3.320041299E-2,9.924346847E0
3.709955055E0,-1.070788130E-1,-9.911669731E0,-2.602194622E-2,9.912282274E0
3.712379743E0,-9.032905847E-2,-9.902098656E0,-4.037888348E-2,9.902592973E0
3.714804378E0,-1.262213886E-1,-9.923633575E0,-3.798605874E-2,9.924508961E0
3.717228024E0,-9.990034252E-2,-9.904491425E0,-2.841476910E-2,9.905035985E0
3.719652712E0,-1.142572835E-1,-9.909276962E0,-1.884347759E-2,9.909953568E0
3.722076618E0,-9.511470050E-2,-9.914062500E0,-4.755735025E-2,9.914632810E0
3.724500420E0,-1.118644550E-1,-9.899705887E0,-4.277170449E-2,9.900430280E0
3.726924847E0,-7.836493850E-2,-9.923633575E0,-3.798605874E-2,9.924015686E0
3.729348493E0,-5.443671346E-2,-9.894919395E0,-3.798605874E-2,9.895142047E0
3.731773024E0,-1.118644550E-1,-9.906884193E0,-3.080759197E-2,9.907563635E0
3.734197451E0,-1.022931710E-1,-9.897313118E0,-3.798605874E-2,9.897914618E0
3.736622035E0,-9.272187948E-2,-9.904491425E0,-3.798605874E-2,9.904998267E0
3.739047139E0,-1.070788130E-1,-9.906884193E0,-5.473581702E-2,9.907614057E0
3.741471514E0,-9.272187948E-2,-9.906884193E0,-1.884347759E-2,9.907336012E0
3.743894899E0,-8.075776696E-2,-9.921240807E0,-3.798605874E-2,9.921642198E0
3.746319014E0,-9.032905847E-2,-9.906884193E0,-3.798605874E-2,9.907368808E0
3.748743545E0,-9.990034252E-2,-9.897313118E0,-3.080759197E-2,9.897865232E0
3.751167399E0,-1.070788130E-1,-9.911669731E0,-5.473581702E-2,9.912399242E0
3.753591253E0,-1.094716340E-1,-9.904491425E0,-7.387840003E-2,9.905371898E0
3.756015264E0,-9.272187948E-2,-9.904491425E0,-5.952146277E-2,9.905104267E0
3.758439430E0,-8.554340899E-2,-9.916455269E0,-4.755735025E-2,9.916938261E0
3.760863128E0,-1.022931710E-1,-9.923633575E0,-3.080759197E-2,9.924208600E0
3.763287087E0,-1.022931710E-1,-9.914062500E0,-3.559323773E-2,9.914654105E0
3.765710576E0,-9.272187948E-2,-9.918848038E0,-6.191428751E-2,9.919474639E0
3.768134170E0,-1.094716340E-1,-9.911669731E0,-5.234299600E-2,9.912412455E0
3.770558180E0,-9.511470050E-2,-9.926026344E0,-2.602194622E-2,9.926516153E0
3.772982503E0,-1.166501045E-1,-9.918848038E0,-2.841476910E-2,9.919574640E0
3.775406722E0,-9.990034252E-2,-9.909276962E0,-2.841476910E-2,9.909821259E0
3.777831045E0,-9.990034252E-2,-9.914062500E0,-3.798605874E-2,9.914638585E0
3.780255003E0,-1.166501045E-1,-9.894919395E0,-4.277170449E-2,9.895699395E0
3.782680003E0,-1.046859920E-1,-9.904491425E0,-4.516452923E-2,9.905147620E0
3.785104482E0,-9.750752151E-2,-9.926026344E0,-3.559323773E-2,9.926569074E0
3.787528857E0,-1.381855011E-1,-9.916455269E0,-2.602194622E-2,9.917452166E0
3.789953180E0,-1.022931710E-1,-9.890133858E0,-4.755735025E-2,9.890777185E0
3.792377451E0,-1.070788130E-1,-9.899705887E0,-6.430710852E-2,9.900493822E0
3.794801774E0,-9.272187948E-2,-9.916455269E0,-3.798605874E-2,9.916961500E0
3.797226045E0,-8.554340899E-2,-9.887741089E0,-6.191428751E-2,9.888304956E0
3.799650368E0,-7.836493850E-2,-9.921240807E0,-4.516452923E-2,9.921653090E0
3.802074691E0,-1.118644550E-1,-9.926026344E0,-2.362912335E-2,9.926684793E0
3.804499326E0,-8.793623000E-2,-9.904491425E0,-4.037888348E-2,9.904964089E0
3.806924326E0,-9.032905847E-2,-9.906884193E0,-4.037888348E-2,9.907378272E0
3.809348701E0,-8.793623000E-2,-9.892526627E0,-6.191428751E-2,9.893111200E0
3.811773649E0,-1.166501045E-1,-9.914062500E0,-3.320041299E-2,9.914804323E0
3.814197712E0,-1.118644550E-1,-9.897313118E0,-3.320041299E-2,9.898000954E0
3.816621618E0,-1.070788130E-1,-9.930811882E0,-4.037888348E-2,9.931471239E0
3.819045576E0,-1.142572835E-1,-9.885348320E0,-4.516452923E-2,9.886111772E0
3.821469899E0,-1.118644550E-1,-9.916455269E0,-4.516452923E-2,9.917189047E0
3.823893441E0,-1.022931710E-1,-9.911669731E0,-4.277170449E-2,9.912289855E0
3.826317555E0,-1.142572835E-1,-9.923633575E0,-4.995017126E-2,9.924417015E0
3.828741514E0,-9.272187948E-2,-9.899705887E0,-4.755735025E-2,9.900254325E0
3.831166566E0,-1.118644550E-1,-9.928419113E0,-3.320041299E-2,9.929104794E0
3.833591097E0,-9.750752151E-2,-9.918848038E0,-2.841476910E-2,9.919368000E0
3.836015316E0,-1.094716340E-1,-9.916455269E0,-5.234299600E-2,9.917197635E0
3.838440316E0,-1.118644550E-1,-9.909276962E0,-5.234299600E-2,9.910046587E0
3.840864795E0,-9.750752151E-2,-9.899705887E0,-4.037888348E-2,9.900268421E0
3.843288962E0,-1.118644550E-1,-9.914062500E0,-3.798605874E-2,9.914766354E0
3.845713649E0,-9.990034252E-2,-9.899705887E0,-3.559323773E-2,9.900273916E0
3.848137764E0,-8.793623000E-2,-9.899705887E0,-3.320041299E-2,9.900152105E0
3.850562139E0,-9.032905847E-2,-9.926026344E0,-2.362912335E-2,9.926465467E0
3.852986305E0,-1.166501045E-1,-9.904491425E0,-4.277170449E-2,9.905270670E0
3.855411305E0,-1.022931710E-1,-9.918848038E0,-5.473581702E-2,9.919526516E0
3.857835785E0,-9.511470050E-2,-9.935597420E0,-2.841476910E-2,9.936093311E0
3.860259535E0,-9.511470050E-2,-9.904491425E0,-2.362912335E-2,9.904976301E0
3.862683857E0,-7.357929647E-2,-9.902098656E0,-2.602194622E-2,9.902406215E0
3.865108857E0,-9.750752151E-2,-9.899705887E0,-3.798605874E-2,9.900258951E0
3.867533337E0,-8.315058798E-2,-9.906884193E0,-2.841476910E-2,9.907273885E0
3.869957972E0,-1.046859920E-1,-9.899705887E0,-3.320041299E-2,9.900315049E0
3.872382191E0,-8.793623000E-2,-9.909276962E0,-2.841476910E-2,9.909707871E0
3.874806305E0,-8.075776696E-2,-9.897313118E0,-3.080759197E-2,9.897690533E0
3.877230316E0,-9.272187948E-2,-9.882955551E0,-4.037888348E-2,9.883472984E0
3.879654639E0,-1.022931710E-1,-9.916455269E0,-2.362912335E-2,9.917011008E0
3.882078910E0,-1.022931710E-1,-9.911669731E0,-3.320041299E-2,9.912253176E0
