"Time (s)","Gyroscope x (rad/s)","Gyroscope y (rad/s)","Gyroscope z (rad/s)","Absolute (rad/s)"
6.744583500E-2,1.221694518E-3,-1.527118147E-3,2.061609412E-3,2.841629937E-3
6.987166900E-2,6.108472589E-4,3.054236295E-4,-2.214321401E-3,2.317247771E-3
7.229745000E-2,0.000000000E0,-3.054236295E-4,3.894151188E-3,3.906110223E-3
7.472328300E-2,0.000000000E0,-1.527118147E-3,-2.825168660E-3,3.211489965E-3
7.714906500E-2,-6.108472589E-4,-3.054236295E-4,2.061609412E-3,2.171785287E-3
7.957489800E-2,1.221694518E-3,-9.162708884E-4,-2.214321401E-3,2.689852989E-3
8.200067900E-2,0.000000000E0,-2.137965523E-3,2.061609412E-3,2.970038711E-3
8.442651300E-2,6.108472589E-4,1.527118147E-3,2.061609412E-3,2.637320150E-3
8.685229400E-2,1.221694518E-3,-2.137965523E-3,2.290677221E-4,2.473035805E-3
8.927812700E-2,-6.108472589E-4,-1.527118147E-3,8.399150101E-4,1.846803031E-3
9.170396000E-2,1.832541777E-3,-9.162708884E-4,-1.603474026E-3,2.601709180E-3
9.412974200E-2,1.221694518E-3,-9.162708884E-4,1.450762269E-3,2.106371524E-3
9.655557500E-2,1.221694518E-3,9.162708884E-4,-9.926267667E-4,1.821372486E-3
9.898135600E-2,1.832541777E-3,-3.054236295E-4,2.061609412E-3,2.775198430E-3
1.014071900E-1,1.832541777E-3,-1.527118147E-3,-1.603474026E-3,2.874270020E-3
1.038329710E-1,6.108472589E-4,9.162708884E-4,1.450762269E-3,1.821372525E-3
1.062588040E-1,1.221694518E-3,-3.054236295E-4,-9.926267667E-4,1.603474037E-3
1.086845850E-1,-6.108472589E-4,3.054236295E-4,2.290677221E-4,7.203401894E-4
1.111104190E-1,-1.221694518E-3,3.054236295E-4,2.290677221E-4,1.279958245E-3
1.135362520E-1,6.108472589E-4,-9.162708884E-4,-3.817795368E-4,1.165522342E-3
1.159620330E-1,6.108472589E-4,3.054236295E-4,2.061609412E-3,2.171785287E-3
1.183878670E-1,0.000000000E0,-9.162708884E-4,-2.214321401E-3,2.396408064E-3
1.208136480E-1,-6.108472589E-4,-1.527118147E-3,2.290677221E-4,1.660631275E-3
1.232394810E-1,0.000000000E0,-1.527118147E-3,-1.603474026E-3,2.214321293E-3
1.256652630E-1,-6.108472589E-4,-9.162708884E-4,8.399150101E-4,1.384970736E-3
1.280910960E-1,0.000000000E0,-3.054236295E-4,-9.926267667E-4,1.038552594E-3
1.305169290E-1,1.221694518E-3,-9.162708884E-4,8.399150101E-4,1.742856007E-3
1.329427100E-1,2.443389036E-3,-9.162708884E-4,8.399150101E-4,2.741379132E-3
1.353685440E-1,1.221694518E-3,-3.054236295E-4,-3.817795368E-4,1.315893880E-3
1.377943250E-1,0.000000000E0,9.162708884E-4,1.450762269E-3,1.715885632E-3
1.402201580E-1,1.832541777E-3,3.054236295E-4,-9.926267667E-4,2.106371490E-3
1.426459400E-1,-6.108472589E-4,3.054236295E-4,-3.817795368E-4,7.824152235E-4
1.450717730E-1,6.108472589E-4,-2.137965523E-3,-9.926267667E-4,2.435023377E-3
1.474975540E-1,-6.108472589E-4,-1.527118147E-3,1.450762269E-3,2.193156486E-3
1.499233880E-1,-6.108472589E-4,-3.054236295E-4,-9.926267667E-4,1.204875871E-3
1.523492210E-1,6.108472589E-4,-3.054236295E-4,8.399150101E-4,1.082531843E-3
1.547750020E-1,0.000000000E0,-3.054236295E-4,8.399150101E-4,8.937230095E-4
1.572008350E-1,6.108472589E-4,-9.162708884E-4,-3.817795368E-4,1.165522342E-3
1.596266170E-1,2.443389036E-3,-9.162708884E-4,2.290677221E-4,2.619575222E-3
1.620524500E-1,0.000000000E0,-3.054236295E-4,2.290677221E-4,3.817795368E-4
1.644782310E-1,-6.108472589E-4,-9.162708884E-4,-9.926267667E-4,1.482563527E-3
1.669040650E-1,-6.108472589E-4,3.054236295E-4,-1.603474026E-3,1.742855966E-3
1.693298980E-1,0.000000000E0,-9.162708884E-4,-3.817795368E-4,9.926267958E-4
1.717556790E-1,1.221694518E-3,-9.162708884E-4,-9.926267667E-4,1.821372486E-3
1.741815130E-1,1.221694518E-3,3.054236295E-4,8.399150101E-4,1.513696903E-3
1.766072940E-1,1.221694518E-3,-3.054236295E-4,-9.926267667E-4,1.603474037E-3
1.790331270E-1,1.221694518E-3,3.054236295E-4,2.290677221E-4,1.279958245E-3
1.814589080E-1,1.221694518E-3,-9.162708884E-4,-3.817795368E-4,1.574117356E-3
1.838847420E-1,-6.108472589E-4,9.162708884E-4,8.399150101E-4,1.384970736E-3
1.863105750E-1,2.443389036E-3,-9.162708884E-4,1.450762269E-3,2.985701506E-3
1.887363560E-1,1.221694518E-3,3.054236295E-4,-3.817795368E-4,1.315893880E-3
1.911621900E-1,0.000000000E0,-1.527118147E-3,2.290677221E-4,1.544202661E-3
1.935879710E-1,0.000000000E0,3.054236295E-4,-3.817795368E-4,4.889163611E-4
1.960138040E-1,-6.108472589E-4,3.054236295E-4,8.399150101E-4,1.082531843E-3
1.984395850E-1,1.221694518E-3,-9.162708884E-4,-3.817795368E-4,1.574117356E-3
2.008654190E-1,6.108472589E-4,-9.162708884E-4,2.290677221E-4,1.124792752E-3
2.032912000E-1,6.108472589E-4,-9.162708884E-4,-9.926267667E-4,1.482563527E-3
2.057170330E-1,6.108472589E-4,3.054236295E-4,8.399150101E-4,1.082531843E-3
2.081428670E-1,0.000000000E0,-9.162708884E-4,-3.817795368E-4,9.926267958E-4
2.105686480E-1,0.000000000E0,-3.054236295E-4,-3.817795368E-4,4.889163611E-4
2.129944810E-1,0.000000000E0,-9.162708884E-4,-1.603474026E-3,1.846802992E-3
2.154202630E-1,6.108472589E-4,9.162708884E-4,-1.603474026E-3,1.945203245E-3
2.178460960E-1,1.221694518E-3,3.054236295E-4,-3.817795368E-4,1.315893880E-3
2.202719290E-1,-1.221694518E-3,3.054236295E-4,2.290677221E-4,1.279958245E-3
2.226977100E-1,6.108472589E-4,-9.162708884E-4,1.450762269E-3,1.821372525E-3
2.251235440E-1,1.832541777E-3,3.054236295E-4,2.290677221E-4,1.871888079E-3
2.275493250E-1,1.832541777E-3,-3.054236295E-4,-9.926267667E-4,2.106371490E-3
2.299751580E-1,6.108472589E-4,-3.054236295E-4,-3.817795368E-4,7.824152235E-4
2.324009400E-1,6.108472589E-4,3.054236295E-4,-9.926267667E-4,1.204875871E-3
2.348267730E-1,1.221694518E-3,-9.162708884E-4,-9.926267667E-4,1.821372486E-3
2.372525540E-1,1.221694518E-3,-3.054236295E-4,-9.926267667E-4,1.603474037E-3
2.396783880E-1,1.221694518E-3,3.054236295E-4,-9.926267667E-4,1.603474037E-3
2.421042210E-1,6.108472589E-4,-9.162708884E-4,2.290677221E-4,1.124792752E-3
2.445300020E-1,6.108472589E-4,-9.162708884E-4,-9.926267667E-4,1.482563527E-3
2.469558350E-1,6.108472589E-4,3.054236295E-4,-1.603474026E-3,1.742855966E-3
2.493816170E-1,2.443389036E-3,3.054236295E-4,-3.817795368E-4,2.491824470E-3
2.518074500E-1,1.221694518E-3,1.527118147E-3,-3.817795368E-4,1.992581980E-3
2.542332310E-1,-1.221694518E-3,-3.054236295E-4,-9.926267667E-4,1.603474037E-3
2.566590650E-1,6.108472589E-4,3.054236295E-4,-3.817795368E-4,7.824152235E-4
2.590848980E-1,0.000000000E0,-3.054236295E-4,-9.926267667E-4,1.038552594E-3
2.615106790E-1,0.000000000E0,-1.527118147E-3,-3.817795368E-4,1.574117356E-3
2.639365130E-1,6.108472589E-4,-1.527118147E-3,-3.817795368E-4,1.688484476E-3
2.663622940E-1,0.000000000E0,-9.162708884E-4,8.399150101E-4,1.242984137E-3
2.687881270E-1,1.221694518E-3,-1.527118147E-3,-9.926267667E-4,2.193156453E-3
2.712139080E-1,0.000000000E0,-3.054236295E-4,-9.926267667E-4,1.038552594E-3
2.736397420E-1,-6.108472589E-4,3.054236295E-4,2.290677221E-4,7.203401894E-4
2.760655750E-1,0.000000000E0,3.054236295E-4,2.290677221E-4,3.817795368E-4
2.784913560E-1,0.000000000E0,1.527118147E-3,2.290677221E-4,1.544202661E-3
2.809171900E-1,6.108472589E-4,-3.054236295E-4,-3.817795368E-4,7.824152235E-4
2.833429710E-1,1.221694518E-3,-9.162708884E-4,2.290677221E-4,1.544202661E-3
2.857688040E-1,1.221694518E-3,-9.162708884E-4,-3.817795368E-4,1.574117356E-3
2.881946380E-1,6.108472589E-4,-3.054236295E-4,-3.817795368E-4,7.824152235E-4
2.906204190E-1,6.108472589E-4,-3.054236295E-4,-2.214321401E-3,2.317247771E-3
2.930462520E-1,0.000000000E0,-3.054236295E-4,-9.926267667E-4,1.038552594E-3
2.954720330E-1,6.108472589E-4,-3.054236295E-4,-9.926267667E-4,1.204875871E-3
2.978978670E-1,0.000000000E0,-3.054236295E-4,-1.603474026E-3,1.632302835E-3
3.003236480E-1,6.108472589E-4,-9.162708884E-4,-3.817795368E-4,1.165522342E-3
3.027494810E-1,0.000000000E0,3.054236295E-4,-3.817795368E-4,4.889163611E-4
3.051752630E-1,1.221694518E-3,-1.527118147E-3,-9.926267667E-4,2.193156453E-3
3.076010960E-1,6.108472589E-4,-9.162708884E-4,2.290677221E-4,1.124792752E-3
3.100269290E-1,1.832541777E-3,-3.054236295E-4,-9.926267667E-4,2.106371490E-3
3.124527100E-1,6.108472589E-4,3.054236295E-4,-1.603474026E-3,1.742855966E-3
3.148785440E-1,6.108472589E-4,-3.054236295E-4,-9.926267667E-4,1.204875871E-3
3.173043250E-1,6.108472589E-4,-3.054236295E-4,-9.926267667E-4,1.204875871E-3
3.197301580E-1,6.108472589E-4,-9.162708884E-4,2.290677221E-4,1.124792752E-3
3.221559400E-1,6.108472589E-4,-9.162708884E-4,8.399150101E-4,1.384970736E-3
3.245817730E-1,1.221694518E-3,-2.137965523E-3,1.450762269E-3,2.857996717E-3
3.270076060E-1,-6.108472589E-4,-3.054236295E-4,2.290677221E-4,7.203401894E-4
3.294333880E-1,0.000000000E0,-3.054236295E-4,2.290677221E-4,3.817795368E-4
3.318592210E-1,1.221694518E-3,-2.137965523E-3,2.290677221E-4,2.473035805E-3
3.342850020E-1,6.108472589E-4,-9.162708884E-4,2.290677221E-4,1.124792752E-3
3.367108350E-1,0.000000000E0,-3.054236295E-4,2.061609412E-3,2.084110592E-3
3.391366690E-1,0.000000000E0,-3.054236295E-4,-3.817795368E-4,4.889163611E-4
3.415624500E-1,1.221694518E-3,-3.054236295E-4,2.290677221E-4,1.279958245E-3
3.439882830E-1,1.832541777E-3,-1.527118147E-3,8.399150101E-4,2.528983279E-3
3.464140650E-1,6.108472589E-4,-9.162708884E-4,8.399150101E-4,1.384970736E-3
3.488398980E-1,6.108472589E-4,-3.054236295E-4,-9.926267667E-4,1.204875871E-3
3.512656790E-1,1.221694518E-3,-3.054236295E-4,-1.603474026E-3,2.038859985E-3
3.536915130E-1,6.108472589E-4,-3.054236295E-4,-9.926267667E-4,1.204875871E-3
3.561173460E-1,1.832541777E-3,-3.054236295E-4,2.290677221E-4,1.871888079E-3
3.585431270E-1,1.221694518E-3,-3.054236295E-4,-9.926267667E-4,1.603474037E-3
3.609689600E-1,6.108472589E-4,-3.054236295E-4,-9.926267667E-4,1.204875871E-3
3.633947420E-1,0.000000000E0,3.054236295E-4,2.290677221E-4,3.817795368E-4
3.658205750E-1,0.000000000E0,3.054236295E-4,-9.926267667E-4,1.038552594E-3
3.682463560E-1,1.832541777E-3,-3.054236295E-4,-3.817795368E-4,1.896641393E-3
3.706721900E-1,0.000000000E0,-3.054236295E-4,2.290677221E-4,3.817795368E-4
3.730980230E-1,1.221694518E-3,3.054236295E-4,-3.817795368E-4,1.315893880E-3
3.755238040E-1,6.108472589E-4,-2.137965523E-3,-3.817795368E-4,2.256055532E-3
3.779496380E-1,6.108472589E-4,-2.137965523E-3,-3.817795368E-4,2.256055532E-3
3.803754190E-1,1.221694518E-3,3.054236295E-4,-3.817795368E-4,1.315893880E-3
3.828012520E-1,0.000000000E0,-3.054236295E-4,-9.926267667E-4,1.038552594E-3
3.852270330E-1,6.108472589E-4,-1.527118147E-3,-9.926267667E-4,1.921075768E-3
3.876528670E-1,6.108472589E-4,-1.527118147E-3,-9.926267667E-4,1.921075768E-3
3.900787000E-1,6.108472589E-4,9.162708884E-4,2.290677221E-4,1.124792752E-3
3.925044810E-1,6.108472589E-4,-3.054236295E-4,-1.603474026E-3,1.742855966E-3
3.949303150E-1,1.221694518E-3,-3.054236295E-4,-1.603474026E-3,2.038859985E-3
3.973560960E-1,1.221694518E-3,3.054236295E-4,-1.603474026E-3,2.038859985E-3
3.997819290E-1,2.443389036E-3,-9.162708884E-4,-3.817795368E-4,2.637320219E-3
4.022077100E-1,1.832541777E-3,-9.162708884E-4,-9.926267667E-4,2.276635588E-3
4.046335440E-1,1.221694518E-3,-1.527118147E-3,-3.817795368E-4,1.992581980E-3
4.070593770E-1,1.221694518E-3,-3.054236295E-4,-9.926267667E-4,1.603474037E-3
4.094851580E-1,6.108472589E-4,-9.162708884E-4,2.290677221E-4,1.124792752E-3
4.119109920E-1,6.108472589E-4,-3.054236295E-4,1.450762269E-3,1.603474081E-3
4.143367730E-1,1.221694518E-3,-9.162708884E-4,2.290677221E-4,1.544202661E-3
4.167626060E-1,1.832541777E-3,-3.054236295E-4,-3.817795368E-4,1.896641393E-3
4.191884400E-1,-6.108472589E-4,9.162708884E-4,-3.817795368E-4,1.165522342E-3
4.216142210E-1,1.221694518E-3,-9.162708884E-4,2.290677221E-4,1.544202661E-3
4.240400540E-1,1.832541777E-3,-3.054236295E-4,1.450762269E-3,2.357160181E-3
4.264658350E-1,6.108472589E-4,3.054236295E-4,-3.817795368E-4,7.824152235E-4
4.288916690E-1,1.221694518E-3,-3.054236295E-4,2.290677221E-4,1.279958245E-3
4.313174500E-1,6.108472589E-4,3.054236295E-4,8.399150101E-4,1.082531843E-3
4.337432830E-1,6.108472589E-4,-3.054236295E-4,8.399150101E-4,1.082531843E-3
4.361691170E-1,1.832541777E-3,3.054236295E-4,-3.817795368E-4,1.896641393E-3
4.385948980E-1,0.000000000E0,9.162708884E-4,2.290677221E-4,9.444704136E-4
4.410207310E-1,6.108472589E-4,3.054236295E-4,-9.926267667E-4,1.204875871E-3
4.434465130E-1,6.108472589E-4,-9.162708884E-4,2.290677221E-4,1.124792752E-3
4.458723460E-1,1.221694518E-3,-3.054236295E-4,-9.926267667E-4,1.603474037E-3
4.482981790E-1,1.221694518E-3,-1.527118147E-3,-9.926267667E-4,2.193156453E-3
4.507239600E-1,1.221694518E-3,-9.162708884E-4,-1.603474026E-3,2.214321293E-3
4.531497940E-1,6.108472589E-4,-3.054236295E-4,-9.926267667E-4,1.204875871E-3
4.555755750E-1,1.221694518E-3,3.054236295E-4,1.450762269E-3,1.921075805E-3
4.580014080E-1,1.221694518E-3,3.054236295E-4,1.450762269E-3,1.921075805E-3
4.604272420E-1,6.108472589E-4,-1.527118147E-3,8.399150101E-4,1.846803031E-3
4.628530230E-1,0.000000000E0,-9.162708884E-4,2.290677221E-4,9.444704136E-4
4.652788560E-1,1.832541777E-3,-9.162708884E-4,-9.926267667E-4,2.276635588E-3
4.677046380E-1,1.221694518E-3,3.054236295E-4,2.290677221E-4,1.279958245E-3
4.701304710E-1,1.832541777E-3,9.162708884E-4,-3.817795368E-4,2.084110678E-3
4.725562520E-1,1.221694518E-3,-3.054236295E-4,-9.926267667E-4,1.603474037E-3
4.749820850E-1,1.221694518E-3,-1.527118147E-3,-3.817795368E-4,1.992581980E-3
4.774079190E-1,6.108472589E-4,-9.162708884E-4,8.399150101E-4,1.384970736E-3
4.798337000E-1,1.832541777E-3,-1.527118147E-3,2.290677221E-4,2.396407983E-3
4.822595330E-1,3.054236295E-3,-3.054236295E-4,-3.817795368E-4,3.093121167E-3
4.846853150E-1,3.665083554E-3,-9.162708884E-4,-9.926267667E-4,3.906110302E-3
4.871111480E-1,0.000000000E0,3.054236295E-4,2.290677221E-4,3.817795368E-4
4.895369810E-1,6.108472589E-4,-9.162708884E-4,2.290677221E-4,1.124792752E-3
4.919627630E-1,-6.108472589E-4,-9.162708884E-4,8.399150101E-4,1.384970736E-3
4.943885960E-1,1.221694518E-3,-3.054236295E-4,-9.926267667E-4,1.603474037E-3
4.968143770E-1,0.000000000E0,-3.054236295E-4,-2.214321401E-3,2.235285856E-3
4.992402100E-1,6.108472589E-4,3.054236295E-4,-9.926267667E-4,1.204875871E-3
5.016660440E-1,-6.108472589E-4,3.054236295E-4,-3.817795368E-4,7.824152235E-4
5.040918250E-1,0.000000000E0,-3.054236295E-4,-3.817795368E-4,4.889163611E-4
5.065176580E-1,6.108472589E-4,-1.527118147E-3,-9.926267667E-4,1.921075768E-3
5.089434400E-1,1.221694518E-3,-2.137965523E-3,-1.603474026E-3,2.938462697E-3
5.113692730E-1,1.221694518E-3,-2.137965523E-3,-3.817795368E-4,2.491824570E-3
5.137950540E-1,6.108472589E-4,-1.527118147E-3,-1.603474026E-3,2.297031380E-3
5.162208880E-1,6.108472589E-4,3.054236295E-4,2.290677221E-4,7.203401894E-4
5.186466690E-1,6.108472589E-4,-9.162708884E-4,-3.817795368E-4,1.165522342E-3
5.210725020E-1,1.221694518E-3,3.054236295E-4,2.290677221E-4,1.279958245E-3
5.234983350E-1,0.000000000E0,-3.054236295E-4,2.290677221E-4,3.817795368E-4
5.259241170E-1,-6.108472589E-4,-9.162708884E-4,8.399150101E-4,1.384970736E-3
5.283499500E-1,6.108472589E-4,-3.054236295E-4,8.399150101E-4,1.082531843E-3
5.307757830E-1,6.108472589E-4,-1.527118147E-3,8.399150101E-4,1.846803031E-3
5.332015650E-1,0.000000000E0,-1.527118147E-3,2.290677221E-4,1.544202661E-3
5.356273980E-1,1.221694518E-3,-3.054236295E-4,-1.603474026E-3,2.038859985E-3
5.380531790E-1,6.108472589E-4,-3.054236295E-4,-1.603474026E-3,1.742855966E-3
5.404790130E-1,0.000000000E0,3.054236295E-4,2.290677221E-4,3.817795368E-4
5.429047940E-1,1.221694518E-3,-1.527118147E-3,-3.817795368E-4,1.992581980E-3
5.453306270E-1,6.108472589E-4,-3.054236295E-4,-3.817795368E-4,7.824152235E-4
5.477564600E-1,0.000000000E0,-3.054236295E-4,-1.603474026E-3,1.632302835E-3
5.501822420E-1,0.000000000E0,-1.527118147E-3,-3.817795368E-4,1.574117356E-3
5.526080750E-1,6.108472589E-4,-9.162708884E-4,8.399150101E-4,1.384970736E-3
5.550338560E-1,1.221694518E-3,-3.054236295E-4,2.290677221E-4,1.279958245E-3
5.574596900E-1,0.000000000E0,3.054236295E-4,-9.926267667E-4,1.038552594E-3
5.598855230E-1,1.221694518E-3,3.054236295E-4,-1.603474026E-3,2.038859985E-3
5.623113040E-1,0.000000000E0,9.162708884E-4,-3.817795368E-4,9.926267958E-4
5.647371380E-1,1.832541777E-3,1.527118147E-3,-3.817795368E-4,2.415792792E-3
5.671629190E-1,1.221694518E-3,-3.054236295E-4,2.290677221E-4,1.279958245E-3
5.695887520E-1,0.000000000E0,-3.054236295E-4,2.290677221E-4,3.817795368E-4
5.720145330E-1,6.108472589E-4,3.054236295E-4,8.399150101E-4,1.082531843E-3
5.744403670E-1,6.108472589E-4,3.054236295E-4,-1.603474026E-3,1.742855966E-3
5.768662000E-1,6.108472589E-4,-3.054236295E-4,-3.817795368E-4,7.824152235E-4
5.792919810E-1,6.108472589E-4,3.054236295E-4,-3.817795368E-4,7.824152235E-4
5.817178150E-1,6.108472589E-4,3.054236295E-4,-9.926267667E-4,1.204875871E-3
5.841436480E-1,0.000000000E0,3.054236295E-4,-9.926267667E-4,1.038552594E-3
5.865694290E-1,6.108472589E-4,-3.054236295E-4,-3.817795368E-4,7.824152235E-4
5.889952630E-1,1.221694518E-3,9.162708884E-4,2.290677221E-4,1.544202661E-3
5.914210440E-1,-1.221694518E-3,3.054236295E-4,2.290677221E-4,1.279958245E-3
5.938468770E-1,0.000000000E0,-3.054236295E-4,-9.926267667E-4,1.038552594E-3
5.962726580E-1,1.221694518E-3,-1.527118147E-3,8.399150101E-4,2.128399529E-3
5.986984920E-1,6.108472589E-4,-3.054236295E-4,-3.817795368E-4,7.824152235E-4
6.011243250E-1,0.000000000E0,-9.162708884E-4,8.399150101E-4,1.242984137E-3
6.035501060E-1,1.832541777E-3,-1.527118147E-3,-1.603474026E-3,2.874270020E-3
6.059759400E-1,-1.221694518E-3,-3.054236295E-4,8.399150101E-4,1.513696903E-3
6.084017210E-1,1.221694518E-3,3.054236295E-4,-3.817795368E-4,1.315893880E-3
6.108275540E-1,1.221694518E-3,-1.527118147E-3,-1.603474026E-3,2.528983251E-3
6.132533350E-1,0.000000000E0,-1.527118147E-3,-9.926267667E-4,1.821372486E-3
6.156791690E-1,-1.221694518E-3,-2.748812549E-3,-3.817795368E-4,3.032204402E-3
6.181050020E-1,1.221694518E-3,-9.162708884E-4,2.290677221E-4,1.544202661E-3
6.205307830E-1,6.108472589E-4,-3.054236295E-4,2.290677221E-4,7.203401894E-4
6.229566170E-1,6.108472589E-4,-3.054236295E-4,-9.926267667E-4,1.204875871E-3
6.253823980E-1,6.108472589E-4,-9.162708884E-4,2.290677221E-4,1.124792752E-3
6.278082310E-1,-6.108472589E-4,-9.162708884E-4,8.399150101E-4,1.384970736E-3
6.302340650E-1,-1.221694518E-3,-9.162708884E-4,-9.926267667E-4,1.821372486E-3
6.326598460E-1,1.221694518E-3,-3.054236295E-4,8.399150101E-4,1.513696903E-3
6.350856790E-1,0.000000000E0,-3.054236295E-4,2.290677221E-4,3.817795368E-4
6.375114600E-1,0.000000000E0,-3.054236295E-4,1.450762269E-3,1.482563575E-3
6.399372940E-1,1.832541777E-3,-1.527118147E-3,-1.603474026E-3,2.874270020E-3
6.423631270E-1,0.000000000E0,-2.137965523E-3,-9.926267667E-4,2.357160256E-3
6.447889080E-1,0.000000000E0,-3.054236295E-4,2.290677221E-4,3.817795368E-4
6.472147420E-1,0.000000000E0,-1.527118147E-3,-3.817795368E-4,1.574117356E-3
6.496405230E-1,6.108472589E-4,-1.527118147E-3,-1.603474026E-3,2.297031380E-3
6.520663560E-1,6.108472589E-4,-1.527118147E-3,-3.817795368E-4,1.688484476E-3
6.544921900E-1,6.108472589E-4,-9.162708884E-4,-9.926267667E-4,1.482563527E-3
6.569179710E-1,1.221694518E-3,-3.054236295E-4,-1.603474026E-3,2.038859985E-3
6.593438040E-1,1.221694518E-3,-1.527118147E-3,8.399150101E-4,2.128399529E-3
6.617695850E-1,6.108472589E-4,-3.054236295E-4,1.450762269E-3,1.603474081E-3
6.641954190E-1,1.221694518E-3,-3.054236295E-4,-3.817795368E-4,1.315893880E-3
6.666212000E-1,0.000000000E0,-3.054236295E-4,-1.603474026E-3,1.632302835E-3
6.690470330E-1,6.108472589E-4,-3.054236295E-4,2.290677221E-4,7.203401894E-4
6.714728670E-1,6.108472589E-4,-9.162708884E-4,-9.926267667E-4,1.482563527E-3
6.738986480E-1,1.221694518E-3,-1.527118147E-3,-2.214321401E-3,2.954292910E-3
6.763244810E-1,1.832541777E-3,3.054236295E-4,-2.214321401E-3,2.890451907E-3
6.787503150E-1,1.832541777E-3,-3.054236295E-4,-3.817795368E-4,1.896641393E-3
6.811760960E-1,6.108472589E-4,-3.054236295E-4,-3.817795368E-4,7.824152235E-4
6.836019290E-1,1.832541777E-3,-9.162708884E-4,2.061609412E-3,2.906543492E-3
6.860277100E-1,6.108472589E-4,-9.162708884E-4,-9.926267667E-4,1.482563527E-3
6.884535440E-1,6.108472589E-4,-9.162708884E-4,2.290677221E-4,1.124792752E-3
6.908793250E-1,6.108472589E-4,-9.162708884E-4,2.290677221E-4,1.124792752E-3
6.933051580E-1,6.108472589E-4,-3.054236295E-4,8.399150101E-4,1.082531843E-3
6.957309920E-1,6.108472589E-4,3.054236295E-4,-3.817795368E-4,7.824152235E-4
6.981567730E-1,1.832541777E-3,-3.054236295E-4,8.399150101E-4,2.038860020E-3
7.005826060E-1,0.000000000E0,-3.054236295E-4,-2.214321401E-3,2.235285856E-3
7.030083880E-1,1.221694518E-3,3.054236295E-4,-3.817795368E-4,1.315893880E-3
7.054342210E-1,1.221694518E-3,-3.054236295E-4,2.290677221E-4,1.279958245E-3
7.078600540E-1,0.000000000E0,-3.054236295E-4,-3.817795368E-4,4.889163611E-4
7.102858350E-1,1.221694518E-3,3.054236295E-4,-9.926267667E-4,1.603474037E-3
7.127116690E-1,0.000000000E0,3.054236295E-4,-9.926267667E-4,1.038552594E-3
7.151374500E-1,1.832541777E-3,-3.054236295E-4,-3.817795368E-4,1.896641393E-3
7.175632830E-1,1.221694518E-3,-1.527118147E-3,-3.817795368E-4,1.992581980E-3
7.199891170E-1,6.108472589E-4,3.054236295E-4,2.290677221E-4,7.203401894E-4
7.224148980E-1,0.000000000E0,-9.162708884E-4,8.399150101E-4,1.242984137E-3
7.248407310E-1,1.832541777E-3,-1.527118147E-3,-3.817795368E-4,2.415792792E-3
7.272665130E-1,1.221694518E-3,-2.137965523E-3,2.290677221E-4,2.473035805E-3
7.296923460E-1,6.108472589E-4,-9.162708884E-4,-3.817795368E-4,1.165522342E-3
7.321181790E-1,1.832541777E-3,-3.054236295E-4,1.450762269E-3,2.357160181E-3
7.345439600E-1,0.000000000E0,-9.162708884E-4,2.290677221E-4,9.444704136E-4
7.369697940E-1,0.000000000E0,3.054236295E-4,-9.926267667E-4,1.038552594E-3
7.393955750E-1,0.000000000E0,-3.054236295E-4,-9.926267667E-4,1.038552594E-3
7.418214080E-1,6.108472589E-4,-9.162708884E-4,2.290677221E-4,1.124792752E-3
7.442472420E-1,0.000000000E0,-1.527118147E-3,-1.603474026E-3,2.214321293E-3
7.466730230E-1,1.221694518E-3,-9.162708884E-4,-1.603474026E-3,2.214321293E-3
7.490988560E-1,1.221694518E-3,-3.054236295E-4,-3.817795368E-4,1.315893880E-3
7.515246380E-1,1.832541777E-3,-2.137965523E-3,2.290677221E-4,2.825168661E-3
7.539504710E-1,6.108472589E-4,-9.162708884E-4,-9.926267667E-4,1.482563527E-3
7.563763040E-1,6.108472589E-4,-3.054236295E-4,-1.603474026E-3,1.742855966E-3
7.588020850E-1,1.832541777E-3,-9.162708884E-4,-1.603474026E-3,2.601709180E-3
7.612279190E-1,0.000000000E0,9.162708884E-4,-3.817795368E-4,9.926267958E-4
7.636537000E-1,1.221694518E-3,3.054236295E-4,8.399150101E-4,1.513696903E-3
7.660795330E-1,6.108472589E-4,3.054236295E-4,-3.817795368E-4,7.824152235E-4
7.685053670E-1,1.221694518E-3,-3.054236295E-4,-3.817795368E-4,1.315893880E-3
7.709311480E-1,6.108472589E-4,-3.054236295E-4,-3.817795368E-4,7.824152235E-4
7.733569810E-1,1.832541777E-3,-3.054236295E-4,-9.926267667E-4,2.106371490E-3
7.757827630E-1,0.000000000E0,9.162708884E-4,-3.817795368E-4,9.926267958E-4
7.782085960E-1,-6.108472589E-4,-9.162708884E-4,-3.817795368E-4,1.165522342E-3
7.806344290E-1,6.108472589E-4,-2.137965523E-3,-3.817795368E-4,2.256055532E-3
7.830602100E-1,6.108472589E-4,-3.054236295E-4,-3.817795368E-4,7.824152235E-4
7.854860440E-1,6.108472589E-4,-3.054236295E-4,2.290677221E-4,7.203401894E-4
7.879118250E-1,-6.108472589E-4,9.162708884E-4,2.290677221E-4,1.124792752E-3
7.903376580E-1,0.000000000E0,3.054236295E-4,8.399150101E-4,8.937230095E-4
7.927634400E-1,6.108472589E-4,-9.162708884E-4,-3.817795368E-4,1.165522342E-3
7.951892730E-1,0.000000000E0,-1.527118147E-3,-3.817795368E-4,1.574117356E-3
7.976151060E-1,6.108472589E-4,-3.054236295E-4,-9.926267667E-4,1.204875871E-3
8.000408880E-1,6.108472589E-4,-9.162708884E-4,8.399150101E-4,1.384970736E-3
8.024667210E-1,6.108472589E-4,-9.162708884E-4,-9.926267667E-4,1.482563527E-3
8.048925020E-1,0.000000000E0,3.054236295E-4,-9.926267667E-4,1.038552594E-3
8.073183350E-1,0.000000000E0,-3.054236295E-4,-2.214321401E-3,2.235285856E-3
8.097441690E-1,1.832541777E-3,-9.162708884E-4,-9.926267667E-4,2.276635588E-3
8.121699500E-1,1.221694518E-3,-3.054236295E-4,-3.817795368E-4,1.315893880E-3
8.145957830E-1,0.000000000E0,-9.162708884E-4,-9.926267667E-4,1.350873880E-3
8.170215650E-1,-1.221694518E-3,3.054236295E-4,2.290677221E-4,1.279958245E-3
8.194473980E-1,-6.108472589E-4,9.162708884E-4,-1.603474026E-3,1.945203245E-3
8.218732310E-1,6.108472589E-4,1.527118147E-3,-3.817795368E-4,1.688484476E-3
8.242990130E-1,-1.221694518E-3,-1.527118147E-3,-3.817795368E-4,1.992581980E-3
8.267248460E-1,0.000000000E0,-9.162708884E-4,-3.817795368E-4,9.926267958E-4
8.291506270E-1,0.000000000E0,3.054236295E-4,-3.817795368E-4,4.889163611E-4
8.315764600E-1,1.832541777E-3,-9.162708884E-4,-1.603474026E-3,2.601709180E-3
8.340022940E-1,1.832541777E-3,-3.054236295E-4,-1.603474026E-3,2.454103076E-3
8.364280750E-1,0.000000000E0,-1.527118147E-3,-3.817795368E-4,1.574117356E-3
8.388539080E-1,1.832541777E-3,-9.162708884E-4,1.450762269E-3,2.510472638E-3
8.412796900E-1,1.221694518E-3,-9.162708884E-4,-1.603474026E-3,2.214321293E-3
8.437055230E-1,6.108472589E-4,3.054236295E-4,-1.603474026E-3,1.742855966E-3
8.461313560E-1,1.832541777E-3,-1.527118147E-3,-1.603474026E-3,2.874270020E-3
8.485571380E-1,1.221694518E-3,-1.527118147E-3,-3.817795368E-4,1.992581980E-3
8.509829710E-1,1.832541777E-3,3.054236295E-4,-1.603474026E-3,2.454103076E-3
8.534087520E-1,1.221694518E-3,9.162708884E-4,-1.603474026E-3,2.214321293E-3
8.558345850E-1,-1.221694518E-3,-1.527118147E-3,8.399150101E-4,2.128399529E-3
8.582604190E-1,6.108472589E-4,9.162708884E-4,8.399150101E-4,1.384970736E-3
8.606862000E-1,0.000000000E0,-3.054236295E-4,-3.817795368E-4,4.889163611E-4
8.631120330E-1,-6.108472589E-4,-3.054236295E-4,2.290677221E-4,7.203401894E-4
8.655378150E-1,-6.108472589E-4,-9.162708884E-4,-9.926267667E-4,1.482563527E-3
8.679636480E-1,-6.108472589E-4,-3.054236295E-4,-9.926267667E-4,1.204875871E-3
8.703894810E-1,6.108472589E-4,-1.527118147E-3,-3.817795368E-4,1.688484476E-3
8.728152630E-1,6.108472589E-4,-3.054236295E-4,-3.817795368E-4,7.824152235E-4
8.752410960E-1,0.000000000E0,-9.162708884E-4,-1.603474026E-3,1.846802992E-3
8.776669290E-1,0.000000000E0,-9.162708884E-4,-9.926267667E-4,1.350873880E-3
8.800927100E-1,1.832541777E-3,-9.162708884E-4,-3.817795368E-4,2.084110678E-3
8.825185440E-1,1.221694518E-3,3.054236295E-4,8.399150101E-4,1.513696903E-3
8.849443250E-1,2.443389036E-3,-9.162708884E-4,2.290677221E-4,2.619575222E-3
8.873701580E-1,6.108472589E-4,-3.054236295E-4,2.290677221E-4,7.203401894E-4
8.897959920E-1,6.108472589E-4,-3.054236295E-4,-9.926267667E-4,1.204875871E-3
8.922217730E-1,-6.108472589E-4,-9.162708884E-4,-9.926267667E-4,1.482563527E-3
8.946476060E-1,1.221694518E-3,-3.054236295E-4,-3.817795368E-4,1.315893880E-3
8.970733880E-1,-1.832541777E-3,3.054236295E-4,-3.817795368E-4,1.896641393E-3
8.994992210E-1,-6.108472589E-4,-9.162708884E-4,2.290677221E-4,1.124792752E-3
9.019250020E-1,6.108472589E-4,-3.054236295E-4,2.290677221E-4,7.203401894E-4
9.043508350E-1,6.108472589E-4,-3.054236295E-4,2.290677221E-4,7.203401894E-4
9.067766690E-1,0.000000000E0,-1.527118147E-3,8.399150101E-4,1.742856007E-3
9.092024500E-1,1.832541777E-3,3.054236295E-4,2.290677221E-4,1.871888079E-3
9.116282830E-1,1.221694518E-3,-1.527118147E-3,2.290677221E-4,1.969035132E-3
9.140540650E-1,0.000000000E0,-3.054236295E-4,-3.817795368E-4,4.889163611E-4
9.164798980E-1,6.108472589E-4,-3.054236295E-4,2.290677221E-4,7.203401894E-4
9.189057310E-1,6.108472589E-4,9.162708884E-4,-3.817795368E-4,1.165522342E-3
9.213315130E-1,-6.108472589E-4,9.162708884E-4,-3.817795368E-4,1.165522342E-3
9.237573460E-1,0.000000000E0,3.054236295E-4,2.290677221E-4,3.817795368E-4
9.261831270E-1,6.108472589E-4,-3.054236295E-4,-3.817795368E-4,7.824152235E-4
9.286089600E-1,1.221694518E-3,-3.054236295E-4,-3.817795368E-4,1.315893880E-3
9.310347940E-1,1.221694518E-3,-3.054236295E-4,-3.817795368E-4,1.315893880E-3
9.334605750E-1,6.108472589E-4,-1.527118147E-3,-1.603474026E-3,2.297031380E-3
9.358864080E-1,6.108472589E-4,3.054236295E-4,-3.817795368E-4,7.824152235E-4
9.383121900E-1,6.108472589E-4,-9.162708884E-4,2.290677221E-4,1.124792752E-3
9.407380230E-1,6.108472589E-4,-1.527118147E-3,-3.817795368E-4,1.688484476E-3
9.431638560E-1,-6.108472589E-4,-9.162708884E-4,-9.926267667E-4,1.482563527E-3
9.455896380E-1,0.000000000E0,-9.162708884E-4,-1.603474026E-3,1.846802992E-3
9.480154710E-1,-6.108472589E-4,-9.162708884E-4,8.399150101E-4,1.384970736E-3
9.504412520E-1,1.832541777E-3,-3.054236295E-4,2.290677221E-4,1.871888079E-3
9.528670850E-1,-6.108472589E-4,-9.162708884E-4,8.399150101E-4,1.384970736E-3
9.552929190E-1,0.000000000E0,3.054236295E-4,2.290677221E-4,3.817795368E-4
9.577187000E-1,1.221694518E-3,-3.054236295E-4,-9.926267667E-4,1.603474037E-3
9.601445330E-1,6.108472589E-4,-9.162708884E-4,-3.817795368E-4,1.165522342E-3
9.625703670E-1,6.108472589E-4,-2.137965523E-3,1.450762269E-3,2.654946725E-3
9.649961480E-1,-6.108472589E-4,-1.527118147E-3,-1.603474026E-3,2.297031380E-3
9.674219810E-1,0.000000000E0,-1.527118147E-3,-3.817795368E-4,1.574117356E-3
9.698477630E-1,6.108472589E-4,9.162708884E-4,8.399150101E-4,1.384970736E-3
9.722735960E-1,6.108472589E-4,-3.054236295E-4,-9.926267667E-4,1.204875871E-3
9.746993770E-1,6.108472589E-4,3.054236295E-4,-9.926267667E-4,1.204875871E-3
9.771252100E-1,0.000000000E0,-3.054236295E-4,-9.926267667E-4,1.038552594E-3
9.795510440E-1,1.221694518E-3,3.054236295E-4,-9.926267667E-4,1.603474037E-3
9.819768250E-1,6.108472589E-4,-3.054236295E-4,2.290677221E-4,7.203401894E-4
9.844026580E-1,0.000000000E0,-9.162708884E-4,-3.817795368E-4,9.926267958E-4
9.868284400E-1,-6.108472589E-4,-9.162708884E-4,8.399150101E-4,1.384970736E-3
9.892542730E-1,6.108472589E-4,-3.054236295E-4,-3.817795368E-4,7.824152235E-4
9.916801060E-1,1.221694518E-3,-9.162708884E-4,8.399150101E-4,1.742856007E-3
9.941058880E-1,1.221694518E-3,-3.054236295E-4,-9.926267667E-4,1.603474037E-3
9.965317210E-1,6.108472589E-4,-3.054236295E-4,-2.214321401E-3,2.317247771E-3
9.989575540E-1,1.832541777E-3,-3.054236295E-4,2.290677221E-4,1.871888079E-3
1.001383335E0,1.221694518E-3,-1.527118147E-3,8.399150101E-4,2.128399529E-3
1.003809169E0,6.108472589E-4,3.054236295E-4,2.290677221E-4,7.203401894E-4
1.006234950E0,6.108472589E-4,3.054236295E-4,8.399150101E-4,1.082531843E-3
1.008660783E0,1.221694518E-3,3.054236295E-4,-3.817795368E-4,1.315893880E-3
1.011086565E0,-6.108472589E-4,3.054236295E-4,-3.817795368E-4,7.824152235E-4
1.013512398E0,0.000000000E0,-9.162708884E-4,-9.926267667E-4,1.350873880E-3
1.015938231E0,6.108472589E-4,-2.137965523E-3,-9.926267667E-4,2.435023377E-3
1.018364013E0,1.221694518E-3,3.054236295E-4,-1.603474026E-3,2.038859985E-3
1.020789846E0,2.443389036E-3,-3.054236295E-4,-3.817795368E-4,2.491824470E-3
1.023215679E0,0.000000000E0,-1.527118147E-3,-3.817795368E-4,1.574117356E-3
1.025641460E0,1.221694518E-3,-9.162708884E-4,-9.926267667E-4,1.821372486E-3
1.028067294E0,0.000000000E0,-3.054236295E-4,-3.817795368E-4,4.889163611E-4
1.030493075E0,6.108472589E-4,-3.054236295E-4,8.399150101E-4,1.082531843E-3
1.032918908E0,1.221694518E-3,-3.054236295E-4,-9.926267667E-4,1.603474037E-3
1.035344690E0,6.108472589E-4,-9.162708884E-4,2.290677221E-4,1.124792752E-3
1.037770523E0,1.221694518E-3,3.054236295E-4,-3.817795368E-4,1.315893880E-3
1.040196356E0,0.000000000E0,3.054236295E-4,8.399150101E-4,8.937230095E-4
1.042622138E0,0.000000000E0,-3.054236295E-4,-3.817795368E-4,4.889163611E-4
1.045047971E0,-6.108472589E-4,3.054236295E-4,1.450762269E-3,1.603474081E-3
1.047473804E0,6.108472589E-4,3.054236295E-4,-1.603474026E-3,1.742855966E-3
1.049899585E0,6.108472589E-4,-3.054236295E-4,-3.817795368E-4,7.824152235E-4
1.052325419E0,0.000000000E0,3.054236295E-4,-9.926267667E-4,1.038552594E-3
1.054751200E0,6.108472589E-4,3.054236295E-4,2.290677221E-4,7.203401894E-4
1.057177033E0,-1.221694518E-3,-2.137965523E-3,2.290677221E-4,2.473035805E-3
1.059602867E0,-6.108472589E-4,9.162708884E-4,-1.603474026E-3,1.945203245E-3
1.062028648E0,-6.108472589E-4,3.054236295E-4,-9.926267667E-4,1.204875871E-3
1.064454481E0,6.108472589E-4,3.054236295E-4,-3.817795368E-4,7.824152235E-4
1.066880263E0,0.000000000E0,3.054236295E-4,8.399150101E-4,8.937230095E-4
1.069306096E0,-6.108472589E-4,3.054236295E-4,2.290677221E-4,7.203401894E-4
1.071731929E0,1.221694518E-3,9.162708884E-4,2.290677221E-4,1.544202661E-3
1.074157710E0,6.108472589E-4,-1.527118147E-3,-3.817795368E-4,1.688484476E-3
1.076583544E0,-6.108472589E-4,-9.162708884E-4,-3.817795368E-4,1.165522342E-3
1.079009325E0,6.108472589E-4,3.054236295E-4,-1.603474026E-3,1.742855966E-3
1.081435158E0,1.221694518E-3,3.054236295E-4,-3.817795368E-4,1.315893880E-3
1.083860992E0,6.108472589E-4,3.054236295E-4,8.399150101E-4,1.082531843E-3
1.086286773E0,1.832541777E-3,3.054236295E-4,-3.817795368E-4,1.896641393E-3
1.088712606E0,1.221694518E-3,-1.527118147E-3,-9.926267667E-4,2.193156453E-3
1.091138388E0,1.832541777E-3,3.054236295E-4,-3.817795368E-4,1.896641393E-3
1.093564221E0,3.054236295E-3,-9.162708884E-4,1.450762269E-3,3.503230344E-3
1.095990054E0,6.108472589E-4,-9.162708884E-4,8.399150101E-4,1.384970736E-3
1.098415835E0,0.000000000E0,-3.054236295E-4,2.290677221E-4,3.817795368E-4
1.100841669E0,6.108472589E-4,-9.162708884E-4,-1.603474026E-3,1.945203245E-3
1.103267450E0,0.000000000E0,-3.054236295E-4,2.290677221E-4,3.817795368E-4
1.105693283E0,6.108472589E-4,-3.054236295E-4,-3.817795368E-4,7.824152235E-4
1.108119117E0,1.221694518E-3,-3.054236295E-4,8.399150101E-4,1.513696903E-3
1.110544898E0,1.221694518E-3,3.054236295E-4,2.290677221E-4,1.279958245E-3
1.112970731E0,6.108472589E-4,3.054236295E-4,2.290677221E-4,7.203401894E-4
1.115396513E0,-6.108472589E-4,-1.527118147E-3,8.399150101E-4,1.846803031E-3
1.117822346E0,-6.108472589E-4,-3.054236295E-4,-9.926267667E-4,1.204875871E-3
1.120248179E0,1.832541777E-3,-1.527118147E-3,-9.926267667E-4,2.583719624E-3
1.122673960E0,1.221694518E-3,-2.137965523E-3,-3.817795368E-4,2.491824570E-3
1.125099794E0,1.221694518E-3,-1.527118147E-3,-3.817795368E-4,1.992581980E-3
1.127525627E0,0.000000000E0,-9.162708884E-4,-3.817795368E-4,9.926267958E-4
1.129951408E0,0.000000000E0,3.054236295E-4,-9.926267667E-4,1.038552594E-3
1.132377242E0,6.108472589E-4,3.054236295E-4,2.290677221E-4,7.203401894E-4
1.134803023E0,1.221694518E-3,-9.162708884E-4,2.290677221E-4,1.544202661E-3
1.137228856E0,0.000000000E0,-3.054236295E-4,-3.817795368E-4,4.889163611E-4
1.139654638E0,0.000000000E0,-1.527118147E-3,-3.817795368E-4,1.574117356E-3
1.142080471E0,-6.108472589E-4,9.162708884E-4,-3.817795368E-4,1.165522342E-3
1.144506304E0,6.108472589E-4,-3.054236295E-4,8.399150101E-4,1.082531843E-3
1.146932085E0,6.108472589E-4,-3.054236295E-4,-1.603474026E-3,1.742855966E-3
1.149357919E0,1.832541777E-3,-3.054236295E-4,-1.603474026E-3,2.454103076E-3
1.151783752E0,0.000000000E0,3.054236295E-4,-3.817795368E-4,4.889163611E-4
1.154209533E0,1.221694518E-3,-3.054236295E-4,2.290677221E-4,1.279958245E-3
1.156635367E0,6.108472589E-4,-3.054236295E-4,8.399150101E-4,1.082531843E-3
1.159061148E0,6.108472589E-4,-3.054236295E-4,-3.817795368E-4,7.824152235E-4
1.161486981E0,-6.108472589E-4,-1.527118147E-3,-3.817795368E-4,1.688484476E-3
1.163912815E0,6.108472589E-4,-3.054236295E-4,2.290677221E-4,7.203401894E-4
1.166338596E0,1.221694518E-3,-1.527118147E-3,8.399150101E-4,2.128399529E-3
1.168764429E0,0.000000000E0,-9.162708884E-4,-1.603474026E-3,1.846802992E-3
1.171190210E0,-1.221694518E-3,-9.162708884E-4,8.399150101E-4,1.742856007E-3
1.173616044E0,6.108472589E-4,-9.162708884E-4,2.290677221E-4,1.124792752E-3
1.176041877E0,0.000000000E0,-3.054236295E-4,-1.603474026E-3,1.632302835E-3
1.178467658E0,1.221694518E-3,-9.162708884E-4,2.290677221E-4,1.544202661E-3
1.180893492E0,1.832541777E-3,-3.054236295E-4,8.399150101E-4,2.038860020E-3
1.183319273E0,1.221694518E-3,9.162708884E-4,-3.817795368E-4,1.574117356E-3
1.185745106E0,0.000000000E0,3.054236295E-4,1.450762269E-3,1.482563575E-3
1.188170940E0,1.832541777E-3,-9.162708884E-4,-3.817795368E-4,2.084110678E-3
1.190596721E0,0.000000000E0,-9.162708884E-4,8.399150101E-4,1.242984137E-3
1.193022554E0,0.000000000E0,9.162708884E-4,-9.926267667E-4,1.350873880E-3
1.195448388E0,-6.108472589E-4,9.162708884E-4,-9.926267667E-4,1.482563527E-3
1.197874169E0,-6.108472589E-4,3.054236295E-4,-9.926267667E-4,1.204875871E-3
1.200300002E0,1.832541777E-3,9.162708884E-4,2.290677221E-4,2.061609499E-3
1.202725783E0,-6.108472589E-4,-3.054236295E-4,-3.817795368E-4,7.824152235E-4
1.205151617E0,0.000000000E0,2.137965523E-3,-9.926267667E-4,2.357160256E-3
1.207577398E0,1.832541777E-3,-2.137965523E-3,2.290677221E-4,2.825168661E-3
1.210003231E0,1.832541777E-3,-9.162708884E-4,-9.926267667E-4,2.276635588E-3
1.212429065E0,1.832541777E-3,-1.527118147E-3,-9.926267667E-4,2.583719624E-3
1.214854846E0,6.108472589E-4,-3.054236295E-4,-3.817795368E-4,7.824152235E-4
1.217280679E0,1.832541777E-3,-2.137965523E-3,-3.817795368E-4,2.841630088E-3
1.219706513E0,0.000000000E0,-3.054236295E-4,2.290677221E-4,3.817795368E-4
1.222132294E0,0.000000000E0,-9.162708884E-4,-9.926267667E-4,1.350873880E-3
1.224558127E0,6.108472589E-4,-3.054236295E-4,-9.926267667E-4,1.204875871E-3
1.226983908E0,1.221694518E-3,3.054236295E-4,-9.926267667E-4,1.603474037E-3
1.229409742E0,6.108472589E-4,-3.054236295E-4,2.290677221E-4,7.203401894E-4
1.231835575E0,6.108472589E-4,-9.162708884E-4,-9.926267667E-4,1.482563527E-3
1.234261356E0,-6.108472589E-4,3.054236295E-4,2.290677221E-4,7.203401894E-4
1.236687190E0,6.108472589E-4,-9.162708884E-4,-3.817795368E-4,1.165522342E-3
1.239112971E0,6.108472589E-4,-9.162708884E-4,-3.817795368E-4,1.165522342E-3
1.241538804E0,0.000000000E0,3.054236295E-4,-3.817795368E-4,4.889163611E-4
1.243964638E0,0.000000000E0,3.054236295E-4,-3.817795368E-4,4.889163611E-4
1.246390419E0,0.000000000E0,9.162708884E-4,-3.817795368E-4,9.926267958E-4
1.248816252E0,0.000000000E0,-9.162708884E-4,-3.817795368E-4,9.926267958E-4
1.251242033E0,6.108472589E-4,-1.527118147E-3,-3.817795368E-4,1.688484476E-3
1.253667867E0,-6.108472589E-4,-9.162708884E-4,-9.926267667E-4,1.482563527E-3
1.256093700E0,6.108472589E-4,3.054236295E-4,2.290677221E-4,7.203401894E-4
1.258519481E0,1.221694518E-3,9.162708884E-4,2.290677221E-4,1.544202661E-3
1.260945315E0,6.108472589E-4,-3.054236295E-4,2.290677221E-4,7.203401894E-4
1.263371096E0,1.221694518E-3,9.162708884E-4,-3.817795368E-4,1.574117356E-3
1.265796929E0,0.000000000E0,-3.054236295E-4,1.450762269E-3,1.482563575E-3
1.268222763E0,1.221694518E-3,-3.054236295E-4,-3.817795368E-4,1.315893880E-3
1.270648544E0,6.108472589E-4,-3.054236295E-4,-9.926267667E-4,1.204875871E-3
1.273074377E0,1.221694518E-3,-1.527118147E-3,8.399150101E-4,2.128399529E-3
1.275500158E0,1.221694518E-3,-3.054236295E-4,8.399150101E-4,1.513696903E-3
1.277925992E0,6.108472589E-4,-3.054236295E-4,2.290677221E-4,7.203401894E-4
1.280351825E0,6.108472589E-4,-1.527118147E-3,-3.817795368E-4,1.688484476E-3
1.282777606E0,6.108472589E-4,-1.527118147E-3,2.290677221E-4,1.660631275E-3
1.285203440E0,6.108472589E-4,-9.162708884E-4,-9.926267667E-4,1.482563527E-3
1.287629221E0,6.108472589E-4,-1.527118147E-3,2.290677221E-4,1.660631275E-3
1.290055054E0,0.000000000E0,-9.162708884E-4,-3.817795368E-4,9.926267958E-4
1.292480888E0,0.000000000E0,-3.054236295E-4,-9.926267667E-4,1.038552594E-3
1.294906669E0,1.221694518E-3,1.527118147E-3,-1.603474026E-3,2.528983251E-3
1.297332502E0,1.221694518E-3,-9.162708884E-4,8.399150101E-4,1.742856007E-3
1.299758335E0,6.108472589E-4,-9.162708884E-4,8.399150101E-4,1.384970736E-3
1.302184117E0,6.108472589E-4,3.054236295E-4,-3.817795368E-4,7.824152235E-4
1.304609950E0,0.000000000E0,-3.054236295E-4,-9.926267667E-4,1.038552594E-3
1.307035731E0,0.000000000E0,-3.054236295E-4,-9.926267667E-4,1.038552594E-3
1.309461565E0,1.221694518E-3,3.054236295E-4,-3.817795368E-4,1.315893880E-3
1.311887398E0,-6.108472589E-4,9.162708884E-4,-3.817795368E-4,1.165522342E-3
1.314313179E0,6.108472589E-4,-2.137965523E-3,2.290677221E-4,2.235285881E-3
1.316739013E0,1.221694518E-3,-9.162708884E-4,2.290677221E-4,1.544202661E-3
1.319164794E0,6.108472589E-4,-1.527118147E-3,-3.817795368E-4,1.688484476E-3
1.321590627E0,1.832541777E-3,-9.162708884E-4,-3.817795368E-4,2.084110678E-3
1.324016460E0,1.221694518E-3,3.054236295E-4,8.399150101E-4,1.513696903E-3
1.326442242E0,6.108472589E-4,3.054236295E-4,-9.926267667E-4,1.204875871E-3
1.328868075E0,6.108472589E-4,-3.054236295E-4,-3.817795368E-4,7.824152235E-4
1.331293856E0,1.221694518E-3,-9.162708884E-4,-9.926267667E-4,1.821372486E-3
1.333719690E0,6.108472589E-4,-9.162708884E-4,-9.926267667E-4,1.482563527E-3
1.336145523E0,1.221694518E-3,-1.527118147E-3,-1.603474026E-3,2.528983251E-3
1.338571304E0,-6.108472589E-4,-1.527118147E-3,-9.926267667E-4,1.921075768E-3
1.340997138E0,6.108472589E-4,-1.527118147E-3,1.450762269E-3,2.193156486E-3
1.343422919E0,1.221694518E-3,3.054236295E-4,2.061609412E-3,2.415792718E-3
1.345848752E0,6.108472589E-4,-2.137965523E-3,8.399150101E-4,2.376865199E-3
1.348274585E0,1.221694518E-3,-1.527118147E-3,-9.926267667E-4,2.193156453E-3
1.350700367E0,0.000000000E0,-1.527118147E-3,-3.817795368E-4,1.574117356E-3
1.353126200E0,0.000000000E0,-9.162708884E-4,8.399150101E-4,1.242984137E-3
1.355552033E0,0.000000000E0,3.054236295E-4,8.399150101E-4,8.937230095E-4
1.357977815E0,1.221694518E-3,-9.162708884E-4,8.399150101E-4,1.742856007E-3
1.360403648E0,1.221694518E-3,3.054236295E-4,-3.817795368E-4,1.315893880E-3
1.362829429E0,1.832541777E-3,-9.162708884E-4,-3.817795368E-4,2.084110678E-3
1.365255263E0,6.108472589E-4,-3.054236295E-4,8.399150101E-4,1.082531843E-3
1.367681096E0,0.000000000E0,-3.054236295E-4,-3.817795368E-4,4.889163611E-4
1.370106877E0,0.000000000E0,-3.054236295E-4,2.290677221E-4,3.817795368E-4
1.372532710E0,-1.221694518E-3,-3.054236295E-4,8.399150101E-4,1.513696903E-3
1.374958492E0,-1.221694518E-3,3.054236295E-4,-9.926267667E-4,1.603474037E-3
1.377384325E0,1.221694518E-3,-1.527118147E-3,-9.926267667E-4,2.193156453E-3
1.379810158E0,6.108472589E-4,-9.162708884E-4,-3.817795368E-4,1.165522342E-3
1.382235940E0,0.000000000E0,-3.054236295E-4,8.399150101E-4,8.937230095E-4
1.384661773E0,0.000000000E0,-1.527118147E-3,-3.817795368E-4,1.574117356E-3
1.387087554E0,0.000000000E0,-9.162708884E-4,8.399150101E-4,1.242984137E-3
1.389513388E0,0.000000000E0,-9.162708884E-4,8.399150101E-4,1.242984137E-3
1.391939221E0,6.108472589E-4,-9.162708884E-4,8.399150101E-4,1.384970736E-3
1.394365002E0,1.221694518E-3,-9.162708884E-4,-3.817795368E-4,1.574117356E-3
1.396790835E0,1.832541777E-3,-9.162708884E-4,8.399150101E-4,2.214321325E-3
1.399216669E0,1.221694518E-3,-3.054236295E-4,-1.603474026E-3,2.038859985E-3
1.401642450E0,0.000000000E0,-3.054236295E-4,-9.926267667E-4,1.038552594E-3
1.404068283E0,1.221694518E-3,-9.162708884E-4,-3.817795368E-4,1.574117356E-3
1.406494065E0,6.108472589E-4,9.162708884E-4,-9.926267667E-4,1.482563527E-3
1.408919898E0,1.221694518E-3,3.054236295E-4,1.450762269E-3,1.921075805E-3
1.411345731E0,-6.108472589E-4,3.054236295E-4,-3.817795368E-4,7.824152235E-4
1.413771513E0,6.108472589E-4,9.162708884E-4,-1.603474026E-3,1.945203245E-3
1.416197346E0,0.000000000E0,-3.054236295E-4,-1.603474026E-3,1.632302835E-3
1.418623127E0,0.000000000E0,3.054236295E-4,-1.603474026E-3,1.632302835E-3
1.421048960E0,1.832541777E-3,-3.054236295E-4,-3.817795368E-4,1.896641393E-3
1.423474742E0,1.832541777E-3,-9.162708884E-4,2.290677221E-4,2.061609499E-3
1.425900575E0,1.832541777E-3,3.054236295E-4,8.399150101E-4,2.038860020E-3
1.428326408E0,1.832541777E-3,-2.137965523E-3,8.399150101E-4,2.938462721E-3
1.430752190E0,6.108472589E-4,-1.527118147E-3,1.450762269E-3,2.193156486E-3
1.433178023E0,1.221694518E-3,-3.054236295E-4,2.290677221E-4,1.279958245E-3
1.435603856E0,1.832541777E-3,-1.527118147E-3,-1.603474026E-3,2.874270020E-3
1.438029638E0,0.000000000E0,-3.054236295E-4,-3.817795368E-4,4.889163611E-4
1.440455471E0,0.000000000E0,9.162708884E-4,2.290677221E-4,9.444704136E-4
1.442881252E0,1.832541777E-3,-9.162708884E-4,-9.926267667E-4,2.276635588E-3
1.445307085E0,1.832541777E-3,3.054236295E-4,8.399150101E-4,2.038860020E-3
1.447732919E0,6.108472589E-4,3.054236295E-4,-9.926267667E-4,1.204875871E-3
1.450158700E0,1.221694518E-3,-3.054236295E-4,-3.817795368E-4,1.315893880E-3
1.452584533E0,0.000000000E0,3.054236295E-4,-3.817795368E-4,4.889163611E-4
1.455010367E0,6.108472589E-4,-9.162708884E-4,2.290677221E-4,1.124792752E-3
1.457436148E0,1.221694518E-3,9.162708884E-4,-9.926267667E-4,1.821372486E-3
1.459861981E0,6.108472589E-4,3.054236295E-4,-9.926267667E-4,1.204875871E-3
1.462287763E0,1.221694518E-3,-9.162708884E-4,-3.817795368E-4,1.574117356E-3
1.464713596E0,1.832541777E-3,9.162708884E-4,8.399150101E-4,2.214321325E-3
1.467139377E0,1.221694518E-3,-3.054236295E-4,-1.603474026E-3,2.038859985E-3
1.469565210E0,1.832541777E-3,-3.054236295E-4,-9.926267667E-4,2.106371490E-3
1.471991044E0,6.108472589E-4,-3.054236295E-4,-2.825168660E-3,2.906543639E-3
1.474416825E0,1.221694518E-3,-9.162708884E-4,-9.926267667E-4,1.821372486E-3
1.476842658E0,0.000000000E0,-3.054236295E-4,-3.817795368E-4,4.889163611E-4
1.479268492E0,6.108472589E-4,-1.527118147E-3,1.450762269E-3,2.193156486E-3
1.481694273E0,1.221694518E-3,-9.162708884E-4,-3.817795368E-4,1.574117356E-3
1.484120106E0,0.000000000E0,-9.162708884E-4,-3.817795368E-4,9.926267958E-4
1.486545888E0,6.108472589E-4,-9.162708884E-4,2.290677221E-4,1.124792752E-3
1.488971721E0,-6.108472589E-4,-3.054236295E-4,8.399150101E-4,1.082531843E-3
1.491397554E0,-6.108472589E-4,-3.054236295E-4,8.399150101E-4,1.082531843E-3
1.493823335E0,6.108472589E-4,-1.527118147E-3,2.290677221E-4,1.660631275E-3
1.496249169E0,6.108472589E-4,-9.162708884E-4,1.450762269E-3,1.821372525E-3
1.498674950E0,1.221694518E-3,3.054236295E-4,8.399150101E-4,1.513696903E-3
1.501100783E0,0.000000000E0,1.527118147E-3,-1.603474026E-3,2.214321293E-3
1.503526617E0,6.108472589E-4,3.054236295E-4,-3.817795368E-4,7.824152235E-4
1.505952398E0,1.832541777E-3,-9.162708884E-4,-3.817795368E-4,2.084110678E-3
1.508378231E0,1.221694518E-3,3.054236295E-4,-3.817795368E-4,1.315893880E-3
1.510804013E0,1.221694518E-3,3.054236295E-4,-9.926267667E-4,1.603474037E-3
1.513229846E0,1.221694518E-3,-3.054236295E-4,2.290677221E-4,1.279958245E-3
1.515655679E0,-6.108472589E-4,3.054236295E-4,2.290677221E-4,7.203401894E-4
1.518081460E0,0.000000000E0,-3.054236295E-4,-2.214321401E-3,2.235285856E-3
1.520507294E0,6.108472589E-4,-9.162708884E-4,-1.603474026E-3,1.945203245E-3
1.522933127E0,6.108472589E-4,3.054236295E-4,2.290677221E-4,7.203401894E-4
1.525358908E0,6.108472589E-4,-9.162708884E-4,8.399150101E-4,1.384970736E-3
1.527784742E0,6.108472589E-4,9.162708884E-4,-1.603474026E-3,1.945203245E-3
1.530210523E0,-6.108472589E-4,-3.054236295E-4,-9.926267667E-4,1.204875871E-3
1.532636356E0,6.108472589E-4,-3.054236295E-4,-9.926267667E-4,1.204875871E-3
1.535062190E0,1.221694518E-3,-9.162708884E-4,2.290677221E-4,1.544202661E-3
1.537487971E0,6.108472589E-4,-3.054236295E-4,-3.817795368E-4,7.824152235E-4
1.539913804E0,1.832541777E-3,1.527118147E-3,2.290677221E-4,2.396407983E-3
1.542339585E0,6.108472589E-4,-3.054236295E-4,2.290677221E-4,7.203401894E-4
1.544765419E0,6.108472589E-4,1.527118147E-3,8.399150101E-4,1.846803031E-3
1.547191252E0,0.000000000E0,1.527118147E-3,-3.817795368E-4,1.574117356E-3
1.549617033E0,1.221694518E-3,3.054236295E-4,2.290677221E-4,1.279958245E-3
1.552042867E0,0.000000000E0,3.054236295E-4,1.450762269E-3,1.482563575E-3
1.554468648E0,0.000000000E0,-9.162708884E-4,2.290677221E-4,9.444704136E-4
1.556894481E0,-6.108472589E-4,-3.054236295E-4,2.290677221E-4,7.203401894E-4
1.559320315E0,-6.108472589E-4,-9.162708884E-4,-3.817795368E-4,1.165522342E-3
1.561746096E0,0.000000000E0,3.054236295E-4,-3.817795368E-4,4.889163611E-4
1.564171929E0,1.221694518E-3,3.054236295E-4,2.290677221E-4,1.279958245E-3
1.566597710E0,6.108472589E-4,-3.054236295E-4,-3.817795368E-4,7.824152235E-4
1.569023544E0,1.221694518E-3,-2.137965523E-3,-3.817795368E-4,2.491824570E-3
1.571449377E0,-1.221694518E-3,-9.162708884E-4,1.450762269E-3,2.106371524E-3
1.573875158E0,-6.108472589E-4,-1.527118147E-3,2.290677221E-4,1.660631275E-3
1.576300992E0,1.221694518E-3,-3.054236295E-4,-3.817795368E-4,1.315893880E-3
1.578726825E0,6.108472589E-4,9.162708884E-4,-3.817795368E-4,1.165522342E-3
1.581152606E0,0.000000000E0,9.162708884E-4,-1.603474026E-3,1.846802992E-3
1.583578440E0,6.108472589E-4,-9.162708884E-4,2.290677221E-4,1.124792752E-3
1.586004221E0,1.832541777E-3,3.054236295E-4,8.399150101E-4,2.038860020E-3
1.588430054E0,1.221694518E-3,-9.162708884E-4,2.290677221E-4,1.544202661E-3
1.590855888E0,-1.221694518E-3,-1.527118147E-3,2.290677221E-4,1.969035132E-3
1.593281669E0,-6.108472589E-4,-9.162708884E-4,-1.603474026E-3,1.945203245E-3
1.595707502E0,1.221694518E-3,9.162708884E-4,-1.603474026E-3,2.214321293E-3
1.598133283E0,6.108472589E-4,-3.054236295E-4,-9.926267667E-4,1.204875871E-3
1.600559117E0,1.221694518E-3,-2.137965523E-3,-3.817795368E-4,2.491824570E-3
1.602984950E0,6.108472589E-4,-9.162708884E-4,-3.817795368E-4,1.165522342E-3
1.605410731E0,6.108472589E-4,-1.527118147E-3,-9.926267667E-4,1.921075768E-3
1.607836565E0,6.108472589E-4,-3.054236295E-4,-3.817795368E-4,7.824152235E-4
1.610262346E0,1.221694518E-3,-3.054236295E-4,2.290677221E-4,1.279958245E-3
1.612688179E0,0.000000000E0,-3.054236295E-4,-9.926267667E-4,1.038552594E-3
1.615114013E0,6.108472589E-4,-3.054236295E-4,2.290677221E-4,7.203401894E-4
1.617539794E0,6.108472589E-4,3.054236295E-4,-3.817795368E-4,7.824152235E-4
1.619965627E0,0.000000000E0,-1.527118147E-3,-3.817795368E-4,1.574117356E-3
1.622391460E0,1.221694518E-3,-3.054236295E-4,2.290677221E-4,1.279958245E-3
1.624817242E0,6.108472589E-4,3.054236295E-4,2.290677221E-4,7.203401894E-4
1.627243075E0,1.832541777E-3,3.054236295E-4,-9.926267667E-4,2.106371490E-3
1.629668856E0,6.108472589E-4,-3.054236295E-4,-3.817795368E-4,7.824152235E-4
1.632094690E0,1.221694518E-3,3.054236295E-4,2.290677221E-4,1.279958245E-3
1.634520523E0,6.108472589E-4,9.162708884E-4,-3.817795368E-4,1.165522342E-3
1.636946304E0,0.000000000E0,-3.054236295E-4,-3.817795368E-4,4.889163611E-4
1.639372138E0,-6.108472589E-4,9.162708884E-4,2.290677221E-4,1.124792752E-3
1.641797919E0,0.000000000E0,3.054236295E-4,8.399150101E-4,8.937230095E-4
1.644223752E0,-6.108472589E-4,-9.162708884E-4,-9.926267667E-4,1.482563527E-3
1.646649585E0,-6.108472589E-4,-2.748812549E-3,-2.214321401E-3,3.582223342E-3
1.649075367E0,-1.832541777E-3,-3.054236295E-4,-1.603474026E-3,2.454103076E-3
1.651501200E0,-6.108472589E-4,-3.054236295E-4,1.450762269E-3,1.603474081E-3
1.653926981E0,2.443389036E-3,-3.054236295E-4,-3.817795368E-4,2.491824470E-3
1.656352815E0,2.443389036E-3,-9.162708884E-4,-1.603474026E-3,3.062814273E-3
1.658778648E0,0.000000000E0,-3.054236295E-4,-3.817795368E-4,4.889163611E-4
1.661204429E0,6.108472589E-4,-9.162708884E-4,-3.817795368E-4,1.165522342E-3
1.663630263E0,0.000000000E0,3.054236295E-4,-3.817795368E-4,4.889163611E-4
1.666056096E0,1.221694518E-3,3.054236295E-4,-1.603474026E-3,2.038859985E-3
1.668481877E0,1.221694518E-3,-3.054236295E-4,-9.926267667E-4,1.603474037E-3
1.670907710E0,6.108472589E-4,-9.162708884E-4,-9.926267667E-4,1.482563527E-3
1.673333492E0,-6.108472589E-4,3.054236295E-4,1.450762269E-3,1.603474081E-3
1.675759325E0,1.221694518E-3,-1.527118147E-3,-3.817795368E-4,1.992581980E-3
1.678185158E0,1.221694518E-3,3.054236295E-4,-9.926267667E-4,1.603474037E-3
1.680610940E0,0.000000000E0,6.872031372E-4,1.068982761E-3,1.270815603E-3
1.683036773E0,0.000000000E0,7.635590737E-5,-1.527118147E-4,1.707369994E-4
1.685462554E0,0.000000000E0,-5.344913807E-4,4.581354442E-4,7.039667046E-4
1.687888388E0,0.000000000E0,-5.344913807E-4,-1.527118147E-4,5.558794243E-4
1.690314221E0,6.108472589E-4,1.298050396E-3,4.581354442E-4,1.505973868E-3
1.692740002E0,1.832541777E-3,7.635590737E-5,1.068982761E-3,2.122913972E-3
1.695165835E0,0.000000000E0,-1.145338640E-3,-7.635590737E-4,1.376525720E-3
1.697591617E0,-1.221694518E-3,-5.344913807E-4,4.581354442E-4,1.410002346E-3
1.700017450E0,-1.221694518E-3,-5.344913807E-4,1.068982761E-3,1.709076556E-3
1.702443283E0,0.000000000E0,-5.344913807E-4,-7.635590737E-4,9.320426466E-4
1.704869065E0,0.000000000E0,7.635590737E-5,-7.635590737E-4,7.673673720E-4
1.707294898E0,0.000000000E0,-5.344913807E-4,-1.527118147E-4,5.558794243E-4
1.709720731E0,0.000000000E0,7.635590737E-5,4.581354442E-4,4.644548523E-4
1.712146513E0,-6.108472589E-4,7.635590737E-5,4.581354442E-4,7.673673720E-4
1.714572346E0,-6.108472589E-4,7.635590737E-5,-7.635590737E-4,9.808093889E-4
1.716998127E0,6.108472589E-4,-5.344913807E-4,-7.635590737E-4,1.114377794E-3
1.719423960E0,6.108472589E-4,1.298050396E-3,-7.635590737E-4,1.625143582E-3
1.721849794E0,-1.221694518E-3,-5.344913807E-4,-1.527118147E-4,1.342214375E-3
1.724275575E0,6.108472589E-4,-5.344913807E-4,4.581354442E-4,9.320426466E-4
1.726701408E0,0.000000000E0,-5.344913807E-4,4.581354442E-4,7.039667046E-4
1.729127190E0,-6.108472589E-4,-1.756185899E-3,4.581354442E-4,1.914996441E-3
1.731553023E0,-6.108472589E-4,-1.756185899E-3,-7.635590737E-4,2.010061129E-3
1.733978856E0,6.108472589E-4,-1.145338640E-3,-1.527118147E-4,1.307002629E-3
1.736404638E0,6.108472589E-4,-5.344913807E-4,-1.374406274E-3,1.596185458E-3
1.738830471E0,-1.221694518E-3,6.872031372E-4,4.581354442E-4,1.474677501E-3
1.741256304E0,0.000000000E0,-5.344913807E-4,4.581354442E-4,7.039667046E-4
1.743682085E0,0.000000000E0,6.872031372E-4,-7.635590737E-4,1.027263652E-3
1.746107919E0,6.108472589E-4,-5.344913807E-4,-1.527118147E-4,8.259154364E-4
1.748533700E0,6.108472589E-4,-1.145338640E-3,-1.374406274E-3,1.890483425E-3
1.750959533E0,0.000000000E0,-5.344913807E-4,-1.527118147E-4,5.558794243E-4
1.753385367E0,-6.108472589E-4,-5.344913807E-4,-1.527118147E-4,8.259154364E-4
1.755811148E0,-6.108472589E-4,6.872031372E-4,4.581354442E-4,1.027263652E-3
1.758236981E0,6.108472589E-4,7.635590737E-5,-7.635590737E-4,9.808093889E-4
1.760662763E0,-1.221694518E-3,-5.344913807E-4,4.581354442E-4,1.410002346E-3
1.763088596E0,-6.108472589E-4,6.872031372E-4,-7.635590737E-4,1.195158979E-3
1.765514377E0,1.221694518E-3,6.872031372E-4,-1.527118147E-4,1.410002321E-3
1.767940210E0,0.000000000E0,6.872031372E-4,-1.374406274E-3,1.536632929E-3
1.770366044E0,-6.108472589E-4,1.298050396E-3,-1.374406274E-3,1.986721372E-3
1.772791825E0,1.221694518E-3,-1.145338640E-3,-1.527118147E-4,1.681564448E-3
1.775217658E0,0.000000000E0,7.635590737E-5,-1.527118147E-4,1.707369994E-4
1.777643492E0,0.000000000E0,-5.344913807E-4,-1.527118147E-4,5.558794243E-4
1.780069273E0,6.108472589E-4,-1.756185899E-3,1.068982761E-3,2.144772116E-3
1.782495106E0,-6.108472589E-4,-1.145338640E-3,-1.527118147E-4,1.307002629E-3
1.784920888E0,-1.221694518E-3,6.872031372E-4,-1.374406274E-3,1.963104239E-3
1.787346721E0,-6.108472589E-4,7.635590737E-5,-1.527118147E-4,6.342598022E-4
1.789772554E0,6.108472589E-4,-5.344913807E-4,-1.527118147E-4,8.259154364E-4
1.792198335E0,-6.108472589E-4,-5.344913807E-4,4.581354442E-4,9.320426466E-4
1.794624169E0,-1.832541777E-3,7.635590737E-5,-1.527118147E-4,1.840478331E-3
1.797049950E0,-6.108472589E-4,1.298050396E-3,-1.374406274E-3,1.986721372E-3
1.799475783E0,6.108472589E-4,6.872031372E-4,-1.985253533E-3,2.187833201E-3
1.801901617E0,1.832541777E-3,1.908897655E-3,-1.374406274E-3,2.981793458E-3
1.804327398E0,1.221694518E-3,1.298050396E-3,-7.635590737E-4,1.939199522E-3
1.806753231E0,1.221694518E-3,-5.344913807E-4,-7.635590737E-4,1.536633004E-3
1.809179013E0,-6.108472589E-4,1.298050396E-3,4.581354442E-4,1.505973868E-3
1.811604846E0,1.221694518E-3,-5.344913807E-4,-1.374406274E-3,1.914996381E-3
1.814030679E0,6.108472589E-4,-1.145338640E-3,-1.527118147E-4,1.307002629E-3
1.816456460E0,6.108472589E-4,-5.344913807E-4,-7.635590737E-4,1.114377794E-3
1.818882294E0,6.108472589E-4,6.872031372E-4,-1.527118147E-4,9.320426084E-4
1.821308127E0,0.000000000E0,7.635590737E-5,-7.635590737E-4,7.673673720E-4
1.823733908E0,-6.108472589E-4,-5.344913807E-4,4.581354442E-4,9.320426466E-4
1.826159742E0,0.000000000E0,7.635590737E-5,-7.635590737E-5,1.079835598E-4
1.828585523E0,-6.108472589E-4,-5.344913807E-4,-7.635590737E-5,8.152580170E-4
1.831011356E0,-6.108472589E-4,6.872031372E-4,5.344913807E-4,1.063514721E-3
1.833437190E0,-6.108472589E-4,1.298050396E-3,5.344913807E-4,1.530931168E-3
1.835862971E0,-6.108472589E-4,7.635590737E-5,-7.635590737E-5,6.203183239E-4
1.838288804E0,6.108472589E-4,-5.344913807E-4,-6.872031372E-4,1.063514721E-3
1.840714638E0,6.872031372E-4,-5.344913807E-4,1.145338640E-3,1.438655548E-3
1.843140419E0,7.635590737E-5,-5.344913807E-4,1.756185899E-3,1.837307860E-3
1.845566252E0,6.872031372E-4,-5.344913807E-4,1.756185899E-3,1.960132163E-3
1.847992033E0,7.635590737E-5,6.872031372E-4,-7.635590737E-5,6.956353937E-4
1.850417867E0,6.872031372E-4,6.872031372E-4,-7.635590737E-5,9.748469255E-4
1.852843648E0,6.872031372E-4,6.872031372E-4,-7.635590737E-5,9.748469255E-4
1.855269481E0,6.872031372E-4,-5.344913807E-4,-1.908897655E-3,2.098051345E-3
1.857695315E0,7.635590737E-5,7.635590737E-5,-6.872031372E-4,6.956353937E-4
1.860121096E0,-1.832541777E-3,6.872031372E-4,5.344913807E-4,2.028826890E-3
1.862546929E0,0.000000000E0,-1.756185899E-3,-6.872031372E-4,1.885851813E-3
1.864972763E0,-1.221694518E-3,-5.344913807E-4,-1.298050396E-3,1.860954960E-3
1.867398544E0,-6.108472589E-4,7.635590737E-5,-6.872031372E-4,9.226119174E-4
1.869824377E0,1.221694518E-3,7.635590737E-5,-6.872031372E-4,1.403786263E-3
1.872250158E0,0.000000000E0,-5.344913807E-4,1.145338640E-3,1.263915201E-3
1.874675992E0,0.000000000E0,7.635590737E-5,1.756185899E-3,1.757845026E-3
1.877101825E0,-1.832541777E-3,7.635590737E-5,1.145338640E-3,2.162369115E-3
1.879527606E0,-1.221694518E-3,6.872031372E-4,5.344913807E-4,1.500155553E-3
1.881953440E0,-6.108472589E-4,7.635590737E-5,-6.872031372E-4,9.226119174E-4
1.884379221E0,6.108472589E-4,6.872031372E-4,-6.872031372E-4,1.147880951E-3
1.886805054E0,6.108472589E-4,-5.344913807E-4,-6.872031372E-4,1.063514721E-3
1.889230888E0,-1.832541777E-3,-5.344913807E-4,5.344913807E-4,1.982314666E-3
1.891656669E0,6.108472589E-4,-1.145338640E-3,-6.872031372E-4,1.468735213E-3
1.894082502E0,1.221694518E-3,7.635590737E-5,-6.872031372E-4,1.403786263E-3
1.896508283E0,6.108472589E-4,1.298050396E-3,-6.872031372E-4,1.590697129E-3
1.898934117E0,0.000000000E0,1.298050396E-3,-1.298050396E-3,1.835720475E-3
1.901359950E0,-1.221694518E-3,7.635590737E-5,-1.298050396E-3,1.784181199E-3
1.903785731E0,-6.108472589E-4,1.298050396E-3,5.344913807E-4,1.530931168E-3
1.906211565E0,-6.108472589E-4,1.908897655E-3,-7.635590737E-5,2.005705576E-3
1.908637398E0,-6.108472589E-4,7.635590737E-5,-7.635590737E-5,6.203183239E-4
1.911063179E0,-6.108472589E-4,7.635590737E-5,-1.298050396E-3,1.436627798E-3
1.913489013E0,6.108472589E-4,6.872031372E-4,-6.872031372E-4,1.147880951E-3
1.915914846E0,-1.221694518E-3,6.872031372E-4,-6.872031372E-4,1.561100189E-3
1.918340627E0,-6.108472589E-4,7.635590737E-5,6.108472589E-4,8.672363992E-4
1.920766460E0,0.000000000E0,-5.344913807E-4,6.108472589E-4,8.116744481E-4
1.923192242E0,0.000000000E0,7.635590737E-5,-0.000000000E0,7.635590737E-5
1.925618075E0,0.000000000E0,7.635590737E-5,-0.000000000E0,7.635590737E-5
1.928043856E0,1.221694518E-3,-1.145338640E-3,-0.000000000E0,1.674615805E-3
1.930469690E0,6.108472589E-4,7.635590737E-5,-6.108472589E-4,8.672363992E-4
1.932895523E0,6.108472589E-4,-5.344913807E-4,1.221694518E-3,1.466749094E-3
1.935321304E0,-6.108472589E-4,-5.344913807E-4,1.221694518E-3,1.466749094E-3
1.937747138E0,-1.221694518E-3,-5.344913807E-4,-1.221694518E-3,1.808523162E-3
1.940172919E0,-1.221694518E-3,-5.344913807E-4,-6.108472589E-4,1.466749094E-3
1.942598752E0,0.000000000E0,-1.145338640E-3,-6.108472589E-4,1.298050451E-3
1.945024585E0,1.221694518E-3,7.635590737E-5,-6.108472589E-4,1.368028543E-3
1.947450367E0,6.108472589E-4,7.635590737E-5,-1.221694518E-3,1.368028543E-3
1.949876200E0,7.635590737E-5,-1.145338640E-3,-6.108472589E-4,1.300294274E-3
1.952302033E0,6.872031372E-4,-5.344913807E-4,-6.108472589E-4,1.063514721E-3
1.954727815E0,-5.344913807E-4,1.298050396E-3,-0.000000000E0,1.403786261E-3
1.957153648E0,7.635590737E-5,6.872031372E-4,6.108472589E-4,9.226119174E-4
1.959579429E0,-5.344913807E-4,6.872031372E-4,-6.108472589E-4,1.063514721E-3
1.962005263E0,7.635590737E-5,6.872031372E-4,1.221694518E-3,1.403786263E-3
1.964431096E0,-5.344913807E-4,-5.344913807E-4,6.108472589E-4,9.718520699E-4
1.966856877E0,7.635590737E-5,7.635590737E-5,6.108472589E-4,6.203183239E-4
1.969282710E0,-1.145338640E-3,-5.344913807E-4,-0.000000000E0,1.263915201E-3
1.971708492E0,7.635590737E-5,-5.344913807E-4,-6.108472589E-4,8.152580170E-4
1.974134325E0,7.635590737E-5,-1.756185899E-3,6.108472589E-4,1.860954999E-3
1.976560158E0,1.298050396E-3,7.635590737E-5,6.108472589E-4,1.436627798E-3
1.978985940E0,7.635590737E-5,-5.344913807E-4,0.000000000E0,5.399178276E-4
1.981411773E0,1.298050396E-3,7.635590737E-5,-1.221694518E-3,1.784181199E-3
1.983837606E0,-5.344913807E-4,1.298050396E-3,-6.108472589E-4,1.530931168E-3
1.986263388E0,7.635590737E-5,-5.344913807E-4,-6.108472589E-4,8.152580170E-4
1.988689221E0,6.872031372E-4,-1.145338640E-3,6.108472589E-4,1.468735213E-3
1.991115002E0,7.635590737E-5,1.298050396E-3,0.000000000E0,1.300294219E-3
1.993540835E0,7.635590737E-5,-5.344913807E-4,6.108472589E-4,8.152580170E-4
1.995966669E0,6.872031372E-4,7.635590737E-5,0.000000000E0,6.914321199E-4
1.998392450E0,1.298050396E-3,7.635590737E-5,0.000000000E0,1.300294219E-3
2.000818283E0,6.872031372E-4,-5.344913807E-4,0.000000000E0,8.705912863E-4
2.003244065E0,1.908897655E-3,6.872031372E-4,0.000000000E0,2.028826855E-3
2.005669898E0,6.872031372E-4,6.872031372E-4,6.108472589E-4,1.147880951E-3
2.008095731E0,-5.344913807E-4,-5.344913807E-4,0.000000000E0,7.558849595E-4
2.010521513E0,1.908897655E-3,6.872031372E-4,-1.221694518E-3,2.368264323E-3
2.012947346E0,7.635590737E-5,-5.344913807E-4,-6.108472589E-4,8.152580170E-4
2.015373127E0,-5.344913807E-4,7.635590737E-5,-6.108472589E-4,8.152580170E-4
2.017798960E0,-5.344913807E-4,6.872031372E-4,-6.108472589E-4,1.063514721E-3
2.020224794E0,7.635590737E-5,-1.145338640E-3,6.108472589E-4,1.300294274E-3
2.022650575E0,7.635590737E-5,1.298050396E-3,6.108472589E-4,1.436627798E-3
2.025076408E0,6.872031372E-4,6.872031372E-4,6.108472589E-4,1.147880951E-3
2.027502242E0,1.908897655E-3,-5.344913807E-4,-6.108472589E-4,2.074296427E-3
2.029928023E0,-5.344913807E-4,6.872031372E-4,7.635590737E-5,8.739332997E-4
2.032353856E0,6.872031372E-4,-1.756185899E-3,7.635590737E-5,1.887396961E-3
2.034779638E0,-5.344913807E-4,6.872031372E-4,6.872031372E-4,1.109133599E-3
2.037205471E0,6.872031372E-4,7.635590737E-5,7.635590737E-5,6.956353937E-4
2.039631304E0,-5.344913807E-4,-5.344913807E-4,7.635590737E-5,7.597317267E-4
2.042057085E0,7.635590737E-5,-5.344913807E-4,6.872031372E-4,8.739332997E-4
2.044482919E0,7.635590737E-5,7.635590737E-5,7.635590737E-5,1.322523110E-4
2.046908700E0,-5.344913807E-4,6.872031372E-4,1.908897655E-3,2.098051345E-3
2.049334533E0,-5.344913807E-4,-1.756185899E-3,-5.344913807E-4,1.911949524E-3
2.051760367E0,7.635590737E-5,-5.344913807E-4,1.298050396E-3,1.405861334E-3
2.054186148E0,7.635590737E-5,1.298050396E-3,7.635590737E-5,1.302534176E-3
2.056611981E0,6.872031372E-4,7.635590737E-5,-1.145338640E-3,1.337863586E-3
2.059037763E0,-5.344913807E-4,7.635590737E-5,6.872031372E-4,8.739332997E-4
2.061463596E0,1.908897655E-3,6.872031372E-4,6.872031372E-4,2.142051951E-3
2.063889429E0,6.872031372E-4,1.298050396E-3,-5.344913807E-4,1.562966416E-3
2.066315210E0,7.635590737E-5,6.872031372E-4,7.635590737E-5,6.956353937E-4
2.068741044E0,-6.108472589E-4,-2.367033157E-3,-1.145338640E-3,2.699589032E-3
2.071166877E0,0.000000000E0,-5.344913807E-4,-1.145338640E-3,1.263915201E-3
2.073592658E0,-1.221694518E-3,-5.344913807E-4,-1.145338640E-3,1.757845025E-3
2.076018492E0,0.000000000E0,6.872031372E-4,-5.344913807E-4,8.705912863E-4
2.078444273E0,6.108472589E-4,-5.344913807E-4,7.635590737E-5,8.152580170E-4
2.080870106E0,-6.108472589E-4,7.635590737E-5,7.635590737E-5,6.203183239E-4
2.083295940E0,6.108472589E-4,-1.145338640E-3,7.635590737E-5,1.300294274E-3
2.085721721E0,-6.108472589E-4,6.872031372E-4,1.298050396E-3,1.590697129E-3
2.088147554E0,-1.221694518E-3,1.298050396E-3,6.872031372E-4,1.910424162E-3
2.090573335E0,0.000000000E0,7.635590737E-5,6.872031372E-4,6.914321199E-4
2.092999169E0,0.000000000E0,1.298050396E-3,-1.145338640E-3,1.731108151E-3
2.095425002E0,6.108472589E-4,7.635590737E-5,-5.344913807E-4,8.152580170E-4
2.097850783E0,6.108472589E-4,7.635590737E-5,7.635590737E-5,6.203183239E-4
2.100276617E0,1.221694518E-3,7.635590737E-5,7.635590737E-5,1.226457478E-3
2.102702398E0,0.000000000E0,-1.145338640E-3,6.872031372E-4,1.335682878E-3
2.105128231E0,6.108472589E-4,-1.145338640E-3,7.635590737E-5,1.300294274E-3
2.107554065E0,-6.108472589E-4,1.298050396E-3,-5.344913807E-4,1.530931168E-3
2.109979846E0,0.000000000E0,1.298050396E-3,-5.344913807E-4,1.403786261E-3
2.112405679E0,3.054236295E-3,-1.145338640E-3,7.635590737E-5,3.262819359E-3
2.114831513E0,6.108472589E-4,-1.145338640E-3,-5.344913807E-4,1.403786312E-3
2.117257294E0,6.108472589E-4,-5.344913807E-4,-1.145338640E-3,1.403786312E-3
2.119683127E0,-2.443389036E-3,-1.145338640E-3,7.635590737E-5,2.699589007E-3
2.122108908E0,-6.108472589E-4,6.872031372E-4,-1.145338640E-3,1.468735213E-3
2.124534742E0,6.108472589E-4,-5.344913807E-4,-1.145338640E-3,1.403786312E-3
2.126960575E0,6.108472589E-4,-5.344913807E-4,6.872031372E-4,1.063514721E-3
2.129386356E0,-1.221694518E-3,-1.756185899E-3,6.872031372E-4,2.246992336E-3
2.131812190E0,0.000000000E0,7.635590737E-5,-1.145338640E-3,1.147881015E-3
2.134237971E0,6.108472589E-4,6.872031372E-4,7.635590737E-5,9.226119174E-4
2.136663804E0,0.000000000E0,-5.344913807E-4,7.635590737E-5,5.399178276E-4
2.139089638E0,-6.108472589E-4,6.872031372E-4,-5.344913807E-4,1.063514721E-3
2.141515419E0,6.108472589E-4,1.908897655E-3,6.872031372E-4,2.118790406E-3
2.143941252E0,0.000000000E0,-5.344913807E-4,-1.756185899E-3,1.835720552E-3
2.146367085E0,1.221694518E-3,-5.344913807E-4,7.635590737E-5,1.335682880E-3
2.148792867E0,0.000000000E0,-5.344913807E-4,1.298050396E-3,1.403786261E-3
2.151218700E0,6.108472589E-4,7.635590737E-5,6.872031372E-4,9.226119174E-4
2.153644481E0,-6.108472589E-4,6.872031372E-4,7.635590737E-5,9.226119174E-4
2.156070315E0,-0.000000000E0,1.298050396E-3,1.298050396E-3,1.835720475E-3
2.158496148E0,-0.000000000E0,-1.756185899E-3,6.872031372E-4,1.885851813E-3
2.160921929E0,-1.221694518E-3,7.635590737E-5,-5.344913807E-4,1.335682880E-3
2.163347763E0,1.832541777E-3,1.298050396E-3,7.635590737E-5,2.246992305E-3
2.165773544E0,-0.000000000E0,7.635590737E-5,6.872031372E-4,6.914321199E-4
2.168199377E0,6.108472589E-4,1.908897655E-3,6.872031372E-4,2.118790406E-3
2.170625210E0,2.443389036E-3,7.635590737E-5,7.635590737E-5,2.445773994E-3
2.173050992E0,1.221694518E-3,-5.344913807E-4,-5.344913807E-4,1.436627846E-3
2.175476825E0,1.221694518E-3,-1.145338640E-3,-5.344913807E-4,1.757845025E-3
2.177902658E0,-1.832541777E-3,7.635590737E-5,-5.344913807E-4,1.910424200E-3
2.180328440E0,-6.108472589E-4,7.635590737E-5,-5.344913807E-4,8.152580170E-4
2.182754273E0,-1.221694518E-3,-1.756185899E-3,1.908897655E-3,2.867161778E-3
2.185180054E0,-0.000000000E0,7.635590737E-5,-5.344913807E-4,5.399178276E-4
2.187605888E0,6.108472589E-4,-5.344913807E-4,-1.145338640E-3,1.403786312E-3
2.190031669E0,6.108472589E-4,6.872031372E-4,-5.344913807E-4,1.063514721E-3
2.192457502E0,-0.000000000E0,7.635590737E-5,7.635590737E-5,1.079835598E-4
2.194883335E0,-6.108472589E-4,-5.344913807E-4,7.635590737E-5,8.152580170E-4
2.197309117E0,6.108472589E-4,7.635590737E-5,6.872031372E-4,9.226119174E-4
2.199734950E0,-6.108472589E-4,7.635590737E-5,6.872031372E-4,9.226119174E-4
2.202160731E0,1.221694518E-3,1.908897655E-3,7.635590737E-5,2.267654731E-3
2.204586565E0,1.221694518E-3,7.635590737E-5,1.298050396E-3,1.784181199E-3
2.207012398E0,-1.221694518E-3,-5.344913807E-4,6.872031372E-4,1.500155553E-3
2.209438179E0,-0.000000000E0,6.872031372E-4,1.298050396E-3,1.468735164E-3
2.211864013E0,6.108472589E-4,7.635590737E-5,7.635590737E-5,6.203183239E-4
2.214289846E0,-0.000000000E0,-1.145338640E-3,-5.344913807E-4,1.263915201E-3
2.216715627E0,-0.000000000E0,-1.145338640E-3,6.872031372E-4,1.335682878E-3
2.219141460E0,6.108472589E-4,7.635590737E-5,6.872031372E-4,9.226119174E-4
2.221567242E0,-6.108472589E-4,7.635590737E-5,-5.344913807E-4,8.152580170E-4
2.223993075E0,-0.000000000E0,-1.145338640E-3,-5.344913807E-4,1.263915201E-3
2.226418908E0,-0.000000000E0,-5.344913807E-4,6.872031372E-4,8.705912863E-4
2.228844690E0,-6.872031372E-4,-5.344913807E-4,-5.344913807E-4,1.021572427E-3
2.231270523E0,-6.872031372E-4,-5.344913807E-4,-5.344913807E-4,1.021572427E-3
2.233696356E0,-7.635590737E-5,-5.344913807E-4,-5.344913807E-4,7.597317267E-4
2.236122138E0,-7.635590737E-5,6.872031372E-4,-5.344913807E-4,8.739332997E-4
2.238547971E0,-6.872031372E-4,-1.756185899E-3,7.635590737E-5,1.887396961E-3
2.240973752E0,1.145338640E-3,7.635590737E-5,7.635590737E-5,1.150417771E-3
2.243399585E0,-7.635590737E-5,7.635590737E-5,1.298050396E-3,1.302534176E-3
2.245825419E0,-7.635590737E-5,-5.344913807E-4,-5.344913807E-4,7.597317267E-4
2.248251200E0,-1.298050396E-3,-5.344913807E-4,7.635590737E-5,1.405861334E-3
2.250677033E0,-1.298050396E-3,-5.344913807E-4,-1.145338640E-3,1.811744040E-3
2.253102815E0,-6.872031372E-4,7.635590737E-5,-5.344913807E-4,8.739332997E-4
2.255528648E0,-6.872031372E-4,1.298050396E-3,-5.344913807E-4,1.562966416E-3
2.257954481E0,-1.298050396E-3,6.872031372E-4,7.635590737E-5,1.470718602E-3
2.260380263E0,-7.635590737E-5,1.908897655E-3,6.872031372E-4,2.030263193E-3
2.262806096E0,-1.298050396E-3,7.635590737E-5,6.872031372E-4,1.470718602E-3
2.265231877E0,-1.298050396E-3,7.635590737E-5,1.908897655E-3,2.309687276E-3
2.267657710E0,-7.635590737E-5,-5.344913807E-4,7.635590737E-5,5.452902761E-4
2.270083544E0,-6.872031372E-4,7.635590737E-5,-5.344913807E-4,8.739332997E-4
2.272509325E0,5.344913807E-4,6.872031372E-4,7.635590737E-5,8.739332997E-4
2.274935158E0,-6.872031372E-4,-5.344913807E-4,-5.344913807E-4,1.021572427E-3
2.277360992E0,-7.635590737E-5,-1.145338640E-3,-5.344913807E-4,1.266219515E-3
2.279786773E0,-1.298050396E-3,1.908897655E-3,1.298050396E-3,2.648350415E-3
2.282212606E0,5.344913807E-4,-5.344913807E-4,1.298050396E-3,1.502097501E-3
2.284638388E0,5.344913807E-4,7.635590737E-5,6.872031372E-4,8.739332997E-4
2.287064221E0,-7.635590737E-5,1.908897655E-3,7.635590737E-5,1.911949452E-3
2.289490054E0,1.145338640E-3,1.298050396E-3,-5.344913807E-4,1.811744040E-3
2.291915835E0,-1.298050396E-3,7.635590737E-5,-5.344913807E-4,1.405861334E-3
2.294341669E0,-6.872031372E-4,-5.344913807E-4,6.872031372E-4,1.109133599E-3
2.296767450E0,-7.635590737E-5,-5.344913807E-4,6.872031372E-4,8.739332997E-4
2.299193283E0,-7.635590737E-5,-5.344913807E-4,-1.145338640E-3,1.266219515E-3
2.301619117E0,-6.872031372E-4,-5.344913807E-4,-5.344913807E-4,1.021572427E-3
2.304044898E0,5.344913807E-4,-5.344913807E-4,7.635590737E-5,7.597317267E-4
2.306470731E0,-1.298050396E-3,-5.344913807E-4,7.635590737E-5,1.405861334E-3
2.308896513E0,-6.872031372E-4,-5.344913807E-4,-5.344913807E-4,1.021572427E-3
2.311322346E0,5.344913807E-4,7.635590737E-5,-5.344913807E-4,7.597317267E-4
2.313748179E0,-7.635590737E-5,-1.145338640E-3,6.872031372E-4,1.337863586E-3
2.316173960E0,-7.635590737E-5,6.872031372E-4,7.635590737E-5,6.956353937E-4
2.318599794E0,-7.635590737E-5,6.872031372E-4,1.908897655E-3,2.030263193E-3
2.321025575E0,-6.872031372E-4,-5.344913807E-4,-5.344913807E-4,1.021572427E-3
2.323451408E0,5.344913807E-4,-1.145338640E-3,6.872031372E-4,1.438655548E-3
2.325877242E0,-7.635590737E-5,-1.145338640E-3,6.872031372E-4,1.337863586E-3
2.328303023E0,5.344913807E-4,6.872031372E-4,1.298050396E-3,1.562966416E-3
2.330728856E0,-7.635590737E-5,7.635590737E-5,1.298050396E-3,1.302534176E-3
2.333154638E0,-6.872031372E-4,7.635590737E-5,1.298050396E-3,1.470718602E-3
2.335580471E0,-6.872031372E-4,6.872031372E-4,6.872031372E-4,1.190270749E-3
2.338006304E0,-6.872031372E-4,6.872031372E-4,1.908897655E-3,2.142051951E-3
2.340432085E0,-7.635590737E-5,-5.344913807E-4,6.872031372E-4,8.739332997E-4
2.342857919E0,1.145338640E-3,-5.344913807E-4,-5.344913807E-4,1.372283743E-3
2.345283752E0,1.756185899E-3,-5.344913807E-4,1.298050396E-3,2.248289300E-3
2.347709533E0,-6.872031372E-4,-1.145338640E-3,6.872031372E-4,1.502097501E-3
2.350135367E0,-7.635590737E-5,-5.344913807E-4,7.635590737E-5,5.452902761E-4
2.352561148E0,-0.000000000E0,6.872031372E-4,-5.344913807E-4,8.705912863E-4
2.354986981E0,6.108472589E-4,6.872031372E-4,7.635590737E-5,9.226119174E-4
2.357412815E0,6.108472589E-4,-1.145338640E-3,6.872031372E-4,1.468735213E-3
2.359838596E0,-6.108472589E-4,7.635590737E-5,7.635590737E-5,6.203183239E-4
2.362264429E0,6.108472589E-4,-5.344913807E-4,-5.344913807E-4,9.718520699E-4
2.364690263E0,-6.108472589E-4,-5.344913807E-4,7.635590737E-5,8.152580170E-4
2.367116044E0,6.108472589E-4,6.872031372E-4,7.635590737E-5,9.226119174E-4
2.369541877E0,-0.000000000E0,-5.344913807E-4,6.872031372E-4,8.705912863E-4
2.371967658E0,6.108472589E-4,-5.344913807E-4,1.298050396E-3,1.530931168E-3
2.374393492E0,6.108472589E-4,-1.756185899E-3,6.872031372E-4,1.982314666E-3
2.376819325E0,-1.221694518E-3,-4.581354442E-4,6.872031372E-4,1.474677501E-3
2.379245106E0,-6.108472589E-4,-4.581354442E-4,7.635590737E-5,7.673673720E-4
2.381670940E0,-0.000000000E0,-4.581354442E-4,7.635590737E-5,4.644548523E-4
2.384096721E0,-0.000000000E0,-4.581354442E-4,7.635590737E-5,4.644548523E-4
2.386522554E0,-0.000000000E0,1.527118147E-4,6.872031372E-4,7.039666541E-4
2.388948388E0,6.108472589E-4,-1.068982761E-3,7.635590737E-5,1.233567486E-3
2.391374169E0,-0.000000000E0,-4.581354442E-4,7.635590737E-5,4.644548523E-4
2.393800002E0,-1.221694518E-3,-4.581354442E-4,1.298050396E-3,1.840478310E-3
2.396225835E0,-2.443389036E-3,-4.581354442E-4,1.298050396E-3,2.804455900E-3
2.398651617E0,-1.832541777E-3,-4.581354442E-4,-5.344913807E-4,1.963104298E-3
2.401077450E0,-6.108472589E-4,1.527118147E-4,6.872031372E-4,9.320426084E-4
2.403503231E0,6.108472589E-4,-4.581354442E-4,0.000000000E0,7.635590737E-4
2.405929065E0,-6.108472589E-4,1.374406274E-3,6.108472589E-4,1.623348809E-3
2.408354846E0,-1.221694518E-3,1.374406274E-3,-6.108472589E-4,1.937695661E-3
2.410780679E0,-0.000000000E0,1.527118147E-4,0.000000000E0,1.527118147E-4
2.413206513E0,-1.221694518E-3,-4.581354442E-4,1.832541777E-3,2.249585505E-3
2.415632294E0,-0.000000000E0,1.374406274E-3,6.108472589E-4,1.504036895E-3
2.418058127E0,-0.000000000E0,-4.581354442E-4,6.108472589E-4,7.635590737E-4
2.420483960E0,-6.108472589E-4,-4.581354442E-4,-6.108472589E-4,9.778327223E-4
2.422909742E0,-0.000000000E0,7.635590737E-4,0.000000000E0,7.635590737E-4
2.425335575E0,-6.108472589E-4,-1.068982761E-3,6.108472589E-4,1.374406378E-3
2.427761408E0,-2.443389036E-3,-1.068982761E-3,2.443389036E-3,3.617046323E-3
2.430187190E0,1.221694518E-3,-1.068982761E-3,6.108472589E-4,1.734472834E-3
2.432613023E0,-0.000000000E0,-1.679830020E-3,6.108472589E-4,1.787446019E-3
2.435038804E0,6.108472589E-4,1.527118147E-4,1.221694518E-3,1.374406333E-3
2.437464638E0,6.108472589E-4,1.527118147E-4,0.000000000E0,6.296469424E-4
2.439890471E0,-0.000000000E0,7.635590737E-4,-6.108472589E-4,9.778327223E-4
2.442316252E0,-0.000000000E0,1.527118147E-4,-6.108472589E-4,6.296469424E-4
2.444742085E0,-6.108472589E-4,-1.068982761E-3,1.221694518E-3,1.734472834E-3
2.447167867E0,6.108472589E-4,1.527118147E-4,-1.221694518E-3,1.374406333E-3
2.449593700E0,6.108472589E-4,1.374406274E-3,6.108472589E-4,1.623348809E-3
2.452019533E0,6.108472589E-4,1.527118147E-4,6.108472589E-4,8.772625866E-4
2.454445315E0,1.221694518E-3,-4.581354442E-4,6.108472589E-4,1.440680379E-3
2.456871148E0,0.000000000E0,1.374406274E-3,-0.000000000E0,1.374406274E-3
2.459296929E0,0.000000000E0,1.374406274E-3,-0.000000000E0,1.374406274E-3
2.461722763E0,-6.108472589E-4,-1.068982761E-3,-6.108472589E-4,1.374406378E-3
2.464148596E0,1.221694518E-3,-1.679830020E-3,-1.221694518E-3,2.409751831E-3
2.466574377E0,6.108472589E-4,1.527118147E-4,-6.108472589E-4,8.772625866E-4
2.469000210E0,0.000000000E0,1.527118147E-4,1.221694518E-3,1.231202012E-3
2.471425992E0,1.221694518E-3,1.374406274E-3,-7.635590737E-5,1.840478287E-3
2.473851825E0,6.108472589E-4,1.527118147E-4,-6.872031372E-4,9.320426084E-4
2.476277658E0,1.221694518E-3,7.635590737E-4,1.145338640E-3,1.840478349E-3
2.478703440E0,1.221694518E-3,-1.679830020E-3,5.344913807E-4,2.144772116E-3
2.481129273E0,-6.108472589E-4,1.527118147E-4,5.344913807E-4,8.259154364E-4
2.483555106E0,0.000000000E0,1.527118147E-4,5.344913807E-4,5.558794243E-4
2.485980888E0,-1.221694518E-3,7.635590737E-4,-7.635590737E-5,1.442702387E-3
2.488406721E0,0.000000000E0,-1.068982761E-3,1.145338640E-3,1.566692294E-3
2.490832502E0,-6.108472589E-4,-4.581354442E-4,1.145338640E-3,1.376525720E-3
2.493258335E0,0.000000000E0,1.374406274E-3,5.344913807E-4,1.474677471E-3
2.495684169E0,1.221694518E-3,-1.068982761E-3,-7.635590737E-5,1.625143644E-3
2.498109950E0,1.221694518E-3,-1.679830020E-3,5.344913807E-4,2.144772116E-3
2.500535783E0,0.000000000E0,-1.068982761E-3,1.145338640E-3,1.566692294E-3
2.502961565E0,0.000000000E0,7.635590737E-4,5.344913807E-4,9.320426466E-4
2.505387398E0,-6.108472589E-4,7.635590737E-4,-6.872031372E-4,1.195158979E-3
2.507813231E0,6.108472589E-4,-1.679830020E-3,-6.872031372E-4,1.914996455E-3
2.510239013E0,1.221694518E-3,7.635590737E-4,-6.872031372E-4,1.596185486E-3
2.512664846E0,6.108472589E-4,1.985253533E-3,5.344913807E-4,2.144772016E-3
2.515090627E0,-6.108472589E-4,7.635590737E-4,-7.635590737E-5,9.808093889E-4
2.517516460E0,0.000000000E0,-1.068982761E-3,-6.872031372E-4,1.270815603E-3
2.519942294E0,6.108472589E-4,7.635590737E-4,1.145338640E-3,1.505973915E-3
2.522368075E0,-1.221694518E-3,-1.068982761E-3,-6.872031372E-4,1.762813033E-3
2.524793908E0,-1.221694518E-3,7.635590737E-4,1.145338640E-3,1.840478349E-3
2.527219690E0,-1.832541777E-3,-4.581354442E-4,-6.872031372E-4,2.010061094E-3
2.529645523E0,-6.108472589E-4,7.635590737E-4,5.344913807E-4,1.114377794E-3
2.532071356E0,1.221694518E-3,-4.581354442E-4,5.344913807E-4,1.410002346E-3
2.534497138E0,1.221694518E-3,1.374406274E-3,1.145338640E-3,2.166409634E-3
2.536922971E0,1.221694518E-3,7.635590737E-4,-6.872031372E-4,1.596185486E-3
2.539348804E0,6.108472589E-4,1.527118147E-4,-7.635590737E-4,9.896856729E-4
2.541774585E0,6.108472589E-4,-4.581354442E-4,-1.527118147E-4,7.786805233E-4
2.544200419E0,6.108472589E-4,1.374406274E-3,-1.527118147E-4,1.511769784E-3
2.546626200E0,6.108472589E-4,7.635590737E-4,-1.527118147E-4,9.896856729E-4
2.549052033E0,6.108472589E-4,-1.679830020E-3,-1.527118147E-4,1.793957683E-3
2.551477867E0,0.000000000E0,1.527118147E-4,4.581354442E-4,4.829171602E-4
2.553903648E0,6.108472589E-4,7.635590737E-4,4.581354442E-4,1.079835598E-3
2.556329481E0,-6.108472589E-4,-3.817795368E-4,4.581354442E-4,8.536849968E-4
2.558755263E0,-6.108472589E-4,-3.817795368E-4,-1.985253533E-3,2.111899993E-3
2.561181096E0,6.108472589E-4,8.399150101E-4,-1.374406274E-3,1.722667758E-3
2.563606929E0,0.000000000E0,-3.817795368E-4,-1.374406274E-3,1.426446011E-3
2.566032710E0,-1.221694518E-3,2.290677221E-4,-7.635590737E-4,1.458777562E-3
2.568458544E0,0.000000000E0,-3.817795368E-4,-1.985253533E-3,2.021629839E-3
2.570884325E0,-2.443389036E-3,-3.817795368E-4,4.581354442E-4,2.515113055E-3
2.573310158E0,-1.221694518E-3,2.290677221E-4,-1.527118147E-4,1.252329994E-3
2.575735992E0,0.000000000E0,-3.817795368E-4,-1.527118147E-4,4.111891452E-4
2.578161773E0,1.832541777E-3,-9.926267667E-4,-1.527118147E-4,2.089698103E-3
2.580587606E0,0.000000000E0,8.399150101E-4,1.068982761E-3,1.359478344E-3
2.583013440E0,-1.221694518E-3,-1.603474026E-3,4.581354442E-4,2.067257732E-3
2.585439221E0,0.000000000E0,-3.817795368E-4,4.581354442E-4,5.963587008E-4
2.587865054E0,-6.108472589E-4,2.290677221E-4,-1.527118147E-4,6.700203679E-4
2.590290835E0,6.108472589E-4,2.290677221E-4,-7.635590737E-4,1.004305160E-3
2.592716669E0,-6.108472589E-4,2.290677221E-4,4.581354442E-4,7.971790767E-4
2.595142502E0,-6.108472589E-4,-9.926267667E-4,-1.374406274E-3,1.802064061E-3
2.597568283E0,-1.221694518E-3,2.290677221E-4,-1.527118147E-4,1.252329994E-3
2.599994117E0,-1.832541777E-3,8.399150101E-4,1.068982761E-3,2.281751681E-3
2.602419950E0,-6.108472589E-4,2.290677221E-4,4.581354442E-4,7.971790767E-4
2.604845731E0,6.108472589E-4,-3.817795368E-4,-1.527118147E-4,7.363497042E-4
2.607271565E0,0.000000000E0,2.290677221E-4,4.581354442E-4,5.122109981E-4
2.609697346E0,-6.108472589E-4,-9.926267667E-4,-1.527118147E-4,1.175484228E-3
2.612123179E0,-6.108472589E-4,8.399150101E-4,-1.527118147E-4,1.049720199E-3
2.614549013E0,1.221694518E-3,8.399150101E-4,-1.527118147E-4,1.490407870E-3
2.616974794E0,-6.108472589E-4,2.290677221E-4,4.581354442E-4,7.971790767E-4
2.619400627E0,-6.108472589E-4,8.399150101E-4,-7.635590737E-4,1.289036096E-3
2.621826408E0,1.221694518E-3,-9.926267667E-4,-7.635590737E-4,1.749533610E-3
2.624252242E0,6.108472589E-4,-3.817795368E-4,-1.374406274E-3,1.551735350E-3
2.626678075E0,1.221694518E-3,1.450762269E-3,-7.635590737E-4,2.044571132E-3
2.629103856E0,-1.221694518E-3,2.290677221E-4,-7.635590737E-4,1.458777562E-3
2.631529690E0,-6.108472589E-4,8.399150101E-4,-1.527118147E-4,1.049720199E-3
2.633955471E0,-6.108472589E-4,2.290677221E-4,-7.635590737E-4,1.004305160E-3
2.636381304E0,6.108472589E-4,-3.817795368E-4,-1.527118147E-4,7.363497042E-4
2.638807138E0,0.000000000E0,-1.603474026E-3,-1.527118147E-4,1.610729602E-3
2.641232919E0,-1.832541777E-3,-3.817795368E-4,1.068982761E-3,2.155618037E-3
2.643658752E0,0.000000000E0,8.399150101E-4,-7.635590737E-4,1.135112190E-3
2.646084585E0,0.000000000E0,1.450762269E-3,-7.635590737E-4,1.639430883E-3
2.648510367E0,-6.108472589E-4,8.399150101E-4,-1.985253533E-3,2.240496193E-3
2.650936200E0,-6.108472589E-4,2.290677221E-4,-1.374406274E-3,1.521380624E-3
2.653361981E0,-1.221694518E-3,1.450762269E-3,-7.635590737E-4,2.044571132E-3
2.655787815E0,0.000000000E0,-9.926267667E-4,-7.635590737E-4,1.252329971E-3
2.658213648E0,6.108472589E-4,8.399150101E-4,4.581354442E-4,1.135112190E-3
2.660639429E0,-1.832541777E-3,8.399150101E-4,-7.635590737E-4,2.155618020E-3
2.663065263E0,-6.108472589E-4,8.399150101E-4,-1.527118147E-4,1.049720199E-3
2.665491044E0,1.221694518E-3,8.399150101E-4,1.068982761E-3,1.827763350E-3
2.667916877E0,6.108472589E-4,2.290677221E-4,1.679830020E-3,1.802064175E-3
2.670342710E0,-6.108472589E-4,-9.926267667E-4,-1.527118147E-4,1.175484228E-3
2.672768492E0,0.000000000E0,-1.603474026E-3,-1.527118147E-4,1.610729602E-3
2.675194325E0,-1.221694518E-3,2.290677221E-4,2.290677279E-3,2.606187237E-3
2.677620106E0,6.108472589E-4,8.399150101E-4,-1.527118147E-4,1.049720199E-3
2.680045940E0,0.000000000E0,8.399150101E-4,-1.374406274E-3,1.610729596E-3
2.682471773E0,-1.221694518E-3,2.290677221E-4,4.581354442E-4,1.324725482E-3
2.684897554E0,0.000000000E0,8.399150101E-4,1.068982761E-3,1.359478344E-3
2.687323388E0,0.000000000E0,1.450762269E-3,1.068982761E-3,1.802064179E-3
2.689749221E0,0.000000000E0,2.290677221E-4,4.581354442E-4,5.122109981E-4
2.692175002E0,-6.108472589E-4,2.290677221E-4,-7.635590737E-4,1.004305160E-3
2.694600835E0,-6.108472589E-4,1.527118147E-4,-1.527118147E-4,6.479013586E-4
2.697026617E0,-6.108472589E-4,-4.581354442E-4,-7.635590737E-4,1.079835598E-3
2.699452450E0,7.635590737E-5,1.527118147E-4,1.068982761E-3,1.082531878E-3
2.701878283E0,7.635590737E-5,1.527118147E-4,1.679830020E-3,1.688484534E-3
2.704304065E0,1.298050396E-3,-4.581354442E-4,1.679830020E-3,2.171785398E-3
2.706729898E0,6.872031372E-4,7.635590737E-4,1.068982761E-3,1.482563575E-3
2.709155679E0,7.635590737E-5,1.527118147E-4,-1.527118147E-4,2.290677221E-4
2.711581513E0,1.298050396E-3,-1.068982761E-3,4.581354442E-4,1.742856007E-3
2.714007346E0,1.908897655E-3,-4.581354442E-4,-7.635590737E-4,2.106371478E-3
2.716433127E0,6.872031372E-4,-1.679830020E-3,-1.527118147E-4,1.821372545E-3
2.718858960E0,-5.344913807E-4,1.527118147E-4,-7.635590737E-4,9.444704301E-4
2.721284742E0,-5.344913807E-4,-4.581354442E-4,4.581354442E-4,8.399149996E-4
2.723710575E0,-1.145338640E-3,-4.581354442E-4,-1.527118147E-4,1.242984144E-3
2.726136408E0,-5.344913807E-4,1.374406274E-3,4.581354442E-4,1.544202619E-3
2.728562190E0,-1.145338640E-3,-4.581354442E-4,4.581354442E-4,1.315893905E-3
2.730988023E0,-1.145338640E-3,-4.581354442E-4,-1.527118147E-4,1.242984144E-3
2.733413856E0,-1.145338640E-3,-4.581354442E-4,-7.635590737E-4,1.450762263E-3
2.735839638E0,-5.344913807E-4,7.635590737E-4,4.581354442E-4,1.038552637E-3
2.738265471E0,-5.344913807E-4,-1.068982761E-3,-1.374406274E-3,1.821372501E-3
2.740691252E0,7.635590737E-5,-1.068982761E-3,1.068982761E-3,1.513696969E-3
2.743117085E0,7.635590737E-5,7.635590737E-4,-1.527118147E-4,7.824152235E-4
2.745542919E0,7.635590737E-5,1.527118147E-4,-1.527118147E-4,2.290677221E-4
2.747968700E0,6.872031372E-4,1.527118147E-4,4.581354442E-4,8.399149572E-4
2.750394533E0,6.872031372E-4,1.527118147E-4,1.068982761E-3,1.279958278E-3
2.752820315E0,6.872031372E-4,1.527118147E-4,4.581354442E-4,8.399149572E-4
2.755246148E0,-1.756185899E-3,-4.581354442E-4,1.068982761E-3,2.106371558E-3
2.757671981E0,6.872031372E-4,1.527118147E-4,-1.374406274E-3,1.544202596E-3
2.760097763E0,6.872031372E-4,1.527118147E-4,-1.527118147E-4,7.203401617E-4
2.762523596E0,6.872031372E-4,-4.581354442E-4,-1.985253533E-3,2.150201811E-3
2.764949429E0,7.635590737E-5,1.527118147E-4,4.581354442E-4,4.889163611E-4
2.767375210E0,-1.145338640E-3,7.635590737E-4,-1.527118147E-4,1.384970742E-3
2.769801044E0,7.635590737E-5,1.374406274E-3,1.068982761E-3,1.742855983E-3
2.772226825E0,7.635590737E-5,1.527118147E-4,1.679830020E-3,1.688484534E-3
2.774652658E0,1.298050396E-3,-4.581354442E-4,-7.635590737E-4,1.574117332E-3
2.777078492E0,6.872031372E-4,1.527118147E-4,-1.374406274E-3,1.544202596E-3
2.779504273E0,6.872031372E-4,-4.581354442E-4,-7.635590737E-4,1.124792735E-3
2.781930106E0,6.872031372E-4,7.635590737E-4,4.581354442E-4,1.124792735E-3
2.784355888E0,6.872031372E-4,-1.679830020E-3,-7.635590737E-4,1.969035172E-3
2.786781721E0,6.872031372E-4,1.527118147E-4,-1.527118147E-4,7.203401617E-4
2.789207554E0,1.298050396E-3,-1.679830020E-3,-7.635590737E-4,2.256055449E-3
2.791633335E0,6.872031372E-4,7.635590737E-4,-7.635590737E-4,1.279958230E-3
2.794059169E0,1.298050396E-3,-4.581354442E-4,1.068982761E-3,1.742856007E-3
2.796484950E0,7.635590737E-5,1.527118147E-4,4.581354442E-4,4.889163611E-4
2.798910783E0,7.635590737E-5,1.527118147E-4,-7.635590737E-4,7.824152235E-4
2.801336617E0,-5.344913807E-4,1.527118147E-4,4.581354442E-4,7.203402110E-4
2.803762398E0,6.872031372E-4,1.527118147E-4,1.679830020E-3,1.821372545E-3
2.806188231E0,1.908897655E-3,1.374406274E-3,1.068982761E-3,2.583719607E-3
2.808614013E0,1.908897655E-3,7.635590737E-4,-1.527118147E-4,2.061609472E-3
2.811039846E0,-5.344913807E-4,1.527118147E-4,4.581354442E-4,7.203402110E-4
2.813465679E0,7.635590737E-5,1.374406274E-3,-7.635590737E-4,1.574117305E-3
2.815891460E0,-5.344913807E-4,7.635590737E-4,1.068982761E-3,1.418248088E-3
2.818317294E0,7.635590737E-5,7.635590737E-4,-1.374406274E-3,1.574117305E-3
2.820743127E0,-5.344913807E-4,1.527118147E-4,-7.635590737E-4,9.444704301E-4
2.823168908E0,7.635590737E-5,7.635590737E-4,-1.527118147E-4,7.824152235E-4
2.825594742E0,-1.756185899E-3,-4.581354442E-4,4.581354442E-4,1.871888106E-3
2.828020523E0,-1.145338640E-3,1.527118147E-4,4.581354442E-4,1.242984144E-3
2.830446356E0,1.298050396E-3,-1.068982761E-3,4.581354442E-4,1.742856007E-3
2.832872190E0,-5.344913807E-4,1.527118147E-4,1.068982761E-3,1.204875960E-3
2.835297971E0,-1.145338640E-3,-4.581354442E-4,-1.527118147E-4,1.242984144E-3
2.837723804E0,6.872031372E-4,1.527118147E-4,-1.527118147E-4,7.203401617E-4
2.840149585E0,1.298050396E-3,7.635590737E-4,-7.635590737E-4,1.688484453E-3
2.842575419E0,-2.367033157E-3,1.527118147E-4,4.581354442E-4,2.415792821E-3
2.845001252E0,-5.344913807E-4,-1.068982761E-3,-7.635590737E-4,1.418248088E-3
2.847427033E0,-1.145338640E-3,1.527118147E-4,-1.527118147E-4,1.165522370E-3
2.849852867E0,7.635590737E-5,-4.581354442E-4,-7.635590737E-4,8.937229821E-4
2.852278648E0,-5.344913807E-4,1.374406274E-3,-1.527118147E-4,1.482563503E-3
2.854704481E0,6.872031372E-4,-1.068982761E-3,-1.527118147E-4,1.279958278E-3
2.857130315E0,-1.145338640E-3,1.527118147E-4,-1.527118147E-4,1.165522370E-3
2.859556096E0,-5.344913807E-4,1.374406274E-3,-7.635590737E-4,1.660631236E-3
2.861981929E0,6.872031372E-4,7.635590737E-4,-7.635590737E-4,1.279958230E-3
2.864407763E0,-5.344913807E-4,1.527118147E-4,4.581354442E-4,7.203402110E-4
2.866833544E0,7.635590737E-5,1.374406274E-3,-7.635590737E-4,1.574117305E-3
2.869259377E0,-1.145338640E-3,-4.581354442E-4,1.068982761E-3,1.632302922E-3
2.871685158E0,7.635590737E-5,-4.581354442E-4,1.068982761E-3,1.165522395E-3
2.874110992E0,7.635590737E-5,-1.068982761E-3,-7.635590737E-4,1.315893927E-3
2.876536825E0,6.872031372E-4,-1.068982761E-3,1.068982761E-3,1.660631338E-3
2.878962606E0,6.872031372E-4,1.527118147E-4,1.679830020E-3,1.821372545E-3
2.881388440E0,6.872031372E-4,-1.068982761E-3,1.068982761E-3,1.660631338E-3
2.883814273E0,-1.145338640E-3,1.985253533E-3,4.581354442E-4,2.337289087E-3
2.886240054E0,-5.344913807E-4,1.374406274E-3,4.581354442E-4,1.544202619E-3
2.888665888E0,-5.344913807E-4,1.527118147E-4,-7.635590737E-4,9.444704301E-4
2.891091669E0,6.872031372E-4,1.527118147E-4,4.581354442E-4,8.399149572E-4
2.893517502E0,7.635590737E-5,-4.581354442E-4,4.581354442E-4,6.523851585E-4
2.895943335E0,-5.344913807E-4,1.527118147E-4,-1.527118147E-4,5.764744858E-4
2.898369117E0,-1.145338640E-3,7.635590737E-4,4.581354442E-4,1.450762263E-3
2.900794950E0,1.298050396E-3,-4.581354442E-4,4.581354442E-4,1.450762214E-3
2.903220731E0,7.635590737E-5,1.527118147E-4,4.581354442E-4,4.889163611E-4
2.905646565E0,7.635590737E-5,7.635590737E-4,-1.527118147E-4,7.824152235E-4
2.908072398E0,-5.344913807E-4,-1.679830020E-3,4.581354442E-4,1.821372564E-3
2.910498179E0,-5.344913807E-4,-4.581354442E-4,-7.635590737E-4,1.038552637E-3
2.912924013E0,7.635590737E-5,-1.679830020E-3,-7.635590737E-4,1.846803070E-3
2.915349846E0,-1.145338640E-3,-4.581354442E-4,-1.527118147E-4,1.242984144E-3
2.917775627E0,-5.344913807E-4,1.374406274E-3,4.581354442E-4,1.544202619E-3
2.920201460E0,7.635590737E-5,-4.581354442E-4,-1.527118147E-4,4.889163611E-4
2.922627242E0,-5.344913807E-4,1.374406274E-3,4.581354442E-4,1.544202619E-3
2.925053075E0,6.872031372E-4,-1.068982761E-3,-1.374406274E-3,1.871888058E-3
2.927478908E0,6.872031372E-4,7.635590737E-4,-1.527118147E-4,1.038552603E-3
2.929904690E0,-5.344913807E-4,-4.581354442E-4,4.581354442E-4,8.399149996E-4
2.932330523E0,7.635590737E-5,-2.290677279E-3,-7.635590737E-4,2.415792847E-3
2.934756304E0,7.635590737E-5,-4.581354442E-4,-1.527118147E-4,4.889163611E-4
2.937182138E0,1.298050396E-3,1.527118147E-4,1.068982761E-3,1.688484490E-3
2.939607971E0,7.635590737E-5,-1.068982761E-3,4.581354442E-4,1.165522395E-3
2.942033752E0,6.872031372E-4,7.635590737E-4,-7.635590737E-4,1.279958230E-3
2.944459585E0,7.635590737E-5,-4.581354442E-4,-1.527118147E-4,4.889163611E-4
2.946885367E0,7.635590737E-5,-4.581354442E-4,4.581354442E-4,6.523851585E-4
2.949311200E0,-5.344913807E-4,1.527118147E-4,-7.635590737E-4,9.444704301E-4
2.951737033E0,7.635590737E-5,7.635590737E-5,-7.635590737E-4,7.711568635E-4
2.954162815E0,1.298050396E-3,7.635590737E-5,4.581354442E-4,1.378641774E-3
2.956588648E0,-5.344913807E-4,-1.145338640E-3,-1.527118147E-4,1.273107432E-3
2.959014429E0,6.872031372E-4,-1.145338640E-3,-1.374406274E-3,1.916518030E-3
2.961440263E0,-5.344913807E-4,-1.756185899E-3,-7.635590737E-4,1.988188222E-3
2.963866096E0,7.635590737E-5,-5.344913807E-4,-7.635590737E-4,9.351650761E-4
2.966291877E0,-5.344913807E-4,-5.344913807E-4,-1.527118147E-4,7.711569039E-4
2.968717710E0,7.635590737E-5,7.635590737E-5,-1.527118147E-4,1.870330119E-4
2.971143544E0,-5.344913807E-4,6.872031372E-4,-7.635590737E-4,1.157994666E-3
2.973569325E0,7.635590737E-5,-1.145338640E-3,-7.635590737E-4,1.378641825E-3
2.975995158E0,1.298050396E-3,-5.344913807E-4,-1.527118147E-4,1.412068258E-3
2.978420940E0,6.872031372E-4,-1.145338640E-3,1.068982761E-3,1.710781370E-3
2.980846773E0,-5.344913807E-4,-4.581354442E-4,4.581354442E-4,8.399149996E-4
2.983272606E0,6.872031372E-4,-4.581354442E-4,4.581354442E-4,9.444703925E-4
2.985698388E0,6.872031372E-4,7.635590737E-4,1.679830020E-3,1.969035172E-3
2.988124221E0,7.635590737E-5,1.527118147E-4,-1.527118147E-4,2.290677221E-4
2.990550002E0,-1.145338640E-3,-4.581354442E-4,-1.527118147E-4,1.242984144E-3
2.992975835E0,1.298050396E-3,-4.581354442E-4,-7.635590737E-4,1.574117332E-3
2.995401669E0,7.635590737E-5,7.635590737E-4,4.581354442E-4,8.937229821E-4
2.997827450E0,-5.344913807E-4,1.374406274E-3,-7.635590737E-4,1.660631236E-3
3.000253283E0,-1.145338640E-3,1.527118147E-4,4.581354442E-4,1.242984144E-3
3.002679065E0,-1.145338640E-3,1.527118147E-4,-7.635590737E-4,1.384970742E-3
3.005104898E0,6.872031372E-4,-1.068982761E-3,1.068982761E-3,1.660631338E-3
3.007530731E0,6.872031372E-4,-4.581354442E-4,4.581354442E-4,9.444703925E-4
3.009956513E0,7.635590737E-5,-1.068982761E-3,-7.635590737E-4,1.315893927E-3
3.012382346E0,-5.344913807E-4,7.635590737E-4,-7.635590737E-4,1.204875908E-3
3.014808179E0,-5.344913807E-4,-4.581354442E-4,4.581354442E-4,8.399149996E-4
3.017233960E0,6.872031372E-4,-1.068982761E-3,-1.527118147E-4,1.279958278E-3
3.019659794E0,6.872031372E-4,-4.581354442E-4,4.581354442E-4,9.444703925E-4
3.022085575E0,-5.344913807E-4,-4.581354442E-4,-1.527118147E-4,7.203402110E-4
3.024511408E0,1.298050396E-3,1.527118147E-4,4.581354442E-4,1.384970691E-3
3.026937242E0,6.872031372E-4,1.527118147E-4,-1.527118147E-4,7.203401617E-4
3.029363023E0,6.872031372E-4,-4.581354442E-4,-7.635590737E-4,1.124792735E-3
3.031788856E0,7.635590737E-5,-4.581354442E-4,4.581354442E-4,6.523851585E-4
3.034214638E0,-5.344913807E-4,1.527118147E-4,-7.635590737E-4,9.444704301E-4
3.036640471E0,-5.344913807E-4,1.374406274E-3,-1.527118147E-4,1.482563503E-3
3.039066304E0,6.872031372E-4,-4.581354442E-4,-7.635590737E-4,1.124792735E-3
3.041492085E0,1.298050396E-3,7.635590737E-4,-1.527118147E-4,1.513696861E-3
3.043917919E0,6.872031372E-4,7.635590737E-4,-1.527118147E-4,1.038552603E-3
3.046343700E0,-5.344913807E-4,1.374406274E-3,4.581354442E-4,1.544202619E-3
3.048769533E0,7.635590737E-5,-4.581354442E-4,-1.527118147E-4,4.889163611E-4
3.051195367E0,-1.145338640E-3,-1.679830020E-3,1.068982761E-3,2.297031484E-3
3.053621148E0,6.872031372E-4,-4.581354442E-4,-1.527118147E-4,8.399149572E-4
3.056046981E0,-5.344913807E-4,1.374406274E-3,-1.527118147E-4,1.482563503E-3
3.058472815E0,-1.145338640E-3,7.635590737E-4,-1.374406274E-3,1.945203245E-3
3.060898596E0,-1.145338640E-3,1.527118147E-4,1.068982761E-3,1.574117417E-3
3.063324429E0,7.635590737E-5,-1.068982761E-3,4.581354442E-4,1.165522395E-3
3.065750210E0,1.908897655E-3,-4.581354442E-4,-1.985253533E-3,2.791954501E-3
3.068176044E0,-1.145338640E-3,-4.581354442E-4,-1.985253533E-3,2.337289087E-3
3.070601825E0,-5.344913807E-4,-4.581354442E-4,-1.527118147E-4,7.203402110E-4
3.073027658E0,7.635590737E-5,-1.679830020E-3,4.581354442E-4,1.742856049E-3
3.075453492E0,6.872031372E-4,1.374406274E-3,-1.527118147E-4,1.544202596E-3
3.077879273E0,6.872031372E-4,7.635590737E-4,4.581354442E-4,1.124792735E-3
3.080305106E0,1.908897655E-3,1.527118147E-4,1.068982761E-3,2.193156470E-3
3.082730940E0,7.635590737E-5,-1.068982761E-3,4.581354442E-4,1.165522395E-3
3.085156721E0,7.635590737E-5,-4.581354442E-4,4.581354442E-4,6.523851585E-4
3.087582554E0,-5.344913807E-4,1.527118147E-4,-1.527118147E-4,5.764744858E-4
3.090008335E0,7.635590737E-5,-1.679830020E-3,1.679830020E-3,2.376865166E-3
3.092434169E0,7.635590737E-5,-1.068982761E-3,4.581354442E-4,1.165522395E-3
3.094860002E0,-5.344913807E-4,-4.581354442E-4,-7.635590737E-4,1.038552637E-3
3.097285783E0,-5.344913807E-4,7.635590737E-4,4.581354442E-4,1.038552637E-3
3.099711617E0,1.298050396E-3,7.635590737E-4,4.581354442E-4,1.574117332E-3
3.102137450E0,6.872031372E-4,-4.581354442E-4,-7.635590737E-4,1.124792735E-3
3.104563231E0,-5.344913807E-4,1.527118147E-4,-1.527118147E-4,5.764744858E-4
3.106989065E0,-1.756185899E-3,7.635590737E-4,1.068982761E-3,2.193156518E-3
3.109414898E0,-5.344913807E-4,7.635590737E-4,-7.635590737E-4,1.204875908E-3
3.111840679E0,7.635590737E-5,-4.581354442E-4,-7.635590737E-4,8.937229821E-4
3.114266460E0,7.635590737E-5,1.527118147E-4,-7.635590737E-4,7.824152235E-4
3.116692294E0,6.872031372E-4,-4.581354442E-4,4.581354442E-4,9.444703925E-4
3.119118127E0,7.635590737E-5,-1.679830020E-3,-1.527118147E-4,1.688484534E-3
3.121543908E0,-1.145338640E-3,1.527118147E-4,-1.374406274E-3,1.795581829E-3
3.123969742E0,1.298050396E-3,1.527118147E-4,-1.527118147E-4,1.315893851E-3
3.126395575E0,1.908897655E-3,-4.581354442E-4,4.581354442E-4,2.015853771E-3
3.128821356E0,1.298050396E-3,7.635590737E-4,4.581354442E-4,1.574117332E-3
3.131247190E0,7.635590737E-5,1.450762269E-3,-1.527118147E-4,1.460774549E-3
3.133672971E0,-5.344913807E-4,8.399150101E-4,4.581354442E-4,1.095913475E-3
3.136098804E0,-1.145338640E-3,2.290677221E-4,-1.527118147E-4,1.177961595E-3
3.138524638E0,7.635590737E-5,-9.926267667E-4,-1.527118147E-4,1.007203565E-3
3.140950419E0,-5.344913807E-4,2.290677221E-4,-1.527118147E-4,6.012270417E-4
3.143376252E0,-5.344913807E-4,2.290677221E-4,4.581354442E-4,7.402980093E-4
3.145802085E0,7.635590737E-5,2.290677221E-4,-1.527118147E-4,2.856976448E-4
3.148227867E0,-5.344913807E-4,-3.817795368E-4,-1.527118147E-4,6.743571377E-4
3.150653700E0,-5.344913807E-4,-9.926267667E-4,1.068982761E-3,1.553612911E-3
3.153079481E0,-5.344913807E-4,2.290677221E-4,-1.374406274E-3,1.492362444E-3
3.155505315E0,1.298050396E-3,-3.817795368E-4,-1.374406274E-3,1.928647986E-3
3.157931148E0,1.298050396E-3,-9.926267667E-4,4.581354442E-4,1.697094816E-3
3.160356929E0,-5.344913807E-4,-3.817795368E-4,4.581354442E-4,8.008275320E-4
3.162782763E0,-5.344913807E-4,2.290677221E-4,1.068982761E-3,1.216912980E-3
3.165208596E0,6.872031372E-4,2.290677221E-4,-7.635590737E-4,1.052493531E-3
3.167634377E0,-5.344913807E-4,2.290677221E-4,-1.374406274E-3,1.492362444E-3
3.170060210E0,1.298050396E-3,-1.603474026E-3,1.679830020E-3,2.660430920E-3
3.172485992E0,7.635590737E-5,2.290677221E-4,1.679830020E-3,1.697094913E-3
3.174911825E0,-5.344913807E-4,-3.817795368E-4,4.581354442E-4,8.008275320E-4
3.177337658E0,7.635590737E-5,8.399150101E-4,-7.635590737E-4,1.137677418E-3
3.179763440E0,6.872031372E-4,-9.926267667E-4,-1.374406274E-3,1.829357444E-3
3.182189273E0,-5.344913807E-4,-9.926267667E-4,4.581354442E-4,1.216912905E-3
3.184615054E0,-1.756185899E-3,-3.817795368E-4,-7.635590737E-4,1.952681998E-3
3.187040888E0,-5.344913807E-4,1.450762269E-3,-1.527118147E-4,1.553612917E-3
3.189466721E0,7.635590737E-5,-3.817795368E-4,-1.527118147E-4,4.182185286E-4
3.191892502E0,-5.344913807E-4,-3.817795368E-4,-1.374406274E-3,1.523295525E-3
3.194318335E0,7.635590737E-5,-3.817795368E-4,-1.527118147E-4,4.182185286E-4
3.196744117E0,6.872031372E-4,2.290677221E-4,4.581354442E-4,8.570929111E-4
3.199169950E0,7.635590737E-5,8.399150101E-4,-1.527118147E-4,8.570929630E-4
3.201595783E0,6.872031372E-4,2.290677221E-4,-1.527118147E-4,7.402979613E-4
3.204021565E0,-5.344913807E-4,2.290677221E-4,-1.527118147E-4,6.012270417E-4
3.206447398E0,7.635590737E-5,-2.214321401E-3,-7.635590737E-4,2.343517004E-3
3.208873179E0,1.298050396E-3,2.290677221E-4,4.581354442E-4,1.395455100E-3
3.211299013E0,2.519744914E-3,-3.817795368E-4,-1.527118147E-4,2.553074802E-3
3.213724846E0,6.872031372E-4,8.399150101E-4,-7.635590737E-4,1.326924201E-3
3.216150627E0,7.635590737E-5,-3.817795368E-4,-1.374406274E-3,1.428488168E-3
3.218576460E0,6.872031372E-4,-9.926267667E-4,-7.635590737E-4,1.428488190E-3
3.221002294E0,7.635590737E-5,8.399150101E-4,-1.527118147E-4,8.570929630E-4
3.223428075E0,6.872031372E-4,2.290677221E-4,-1.527118147E-4,7.402979613E-4
3.225853908E0,7.635590737E-5,-9.926267667E-4,-7.635590737E-4,1.254655563E-3
3.228279690E0,6.872031372E-4,8.399150101E-4,-7.635590737E-4,1.326924201E-3
3.230705523E0,6.872031372E-4,2.290677221E-4,-1.985253533E-3,2.113279860E-3
3.233131356E0,1.298050396E-3,8.399150101E-4,-7.635590737E-4,1.724359160E-3
3.235557138E0,1.908897655E-3,8.399150101E-4,-1.527118147E-4,2.091092628E-3
3.237982971E0,-5.344913807E-4,1.450762269E-3,4.581354442E-4,1.612538459E-3
3.240408752E0,-5.344913807E-4,-3.817795368E-4,-1.527118147E-4,6.743571377E-4
3.242834585E0,-1.145338640E-3,8.399150101E-4,1.068982761E-3,1.777633811E-3
3.245260419E0,7.635590737E-5,-3.817795368E-4,-1.527118147E-4,4.182185286E-4
3.247686200E0,6.872031372E-4,8.399150101E-4,-1.527118147E-4,1.095913443E-3
3.250112033E0,7.635590737E-5,8.399150101E-4,-1.527118147E-4,8.570929630E-4
3.252537867E0,7.635590737E-5,-3.817795368E-4,-1.985253533E-3,2.023071287E-3
3.254963648E0,-5.344913807E-4,-3.817795368E-4,-1.527118147E-4,6.743571377E-4
3.257389481E0,7.635590737E-5,-3.817795368E-4,-7.635590737E-5,3.967569331E-4
3.259815263E0,1.298050396E-3,2.290677221E-4,-6.872031372E-4,1.486490835E-3
3.262241096E0,-5.344913807E-4,8.399150101E-4,-7.635590737E-5,9.984830919E-4
3.264666877E0,0.000000000E0,8.399150101E-4,-7.635590737E-5,8.433785917E-4
3.267092710E0,0.000000000E0,-3.817795368E-4,-7.635590737E-5,3.893402616E-4
3.269518544E0,1.221694518E-3,-9.926267667E-4,5.344913807E-4,1.662385764E-3
3.271944325E0,6.108472589E-4,1.450762269E-3,-6.872031372E-4,1.717583677E-3
3.274370158E0,-6.108472589E-4,1.450762269E-3,-1.298050396E-3,2.040289285E-3
3.276795992E0,-6.108472589E-4,-3.817795368E-4,1.145338640E-3,1.353030150E-3
3.279221773E0,-1.221694518E-3,2.290677221E-4,5.344913807E-4,1.353030137E-3
3.281647606E0,-6.108472589E-4,2.290677221E-4,1.145338640E-3,1.318107353E-3
3.284073388E0,0.000000000E0,8.399150101E-4,-6.872031372E-4,1.085221349E-3
3.286499221E0,0.000000000E0,-1.603474026E-3,-7.635590737E-5,1.605290994E-3
3.288925054E0,1.221694518E-3,2.290677221E-4,-6.872031372E-4,1.420301964E-3
3.291350835E0,-1.221694518E-3,-3.817795368E-4,1.756185899E-3,2.173127244E-3
3.293776669E0,0.000000000E0,-3.817795368E-4,5.344913807E-4,6.568383749E-4
3.296202502E0,-6.108472589E-4,2.290677221E-4,5.344913807E-4,8.433785811E-4
3.298628283E0,0.000000000E0,8.399150101E-4,-7.635590737E-5,8.433785917E-4
3.301054117E0,-6.108472589E-4,2.290677221E-4,-7.635590737E-5,6.568383512E-4
3.303479898E0,6.108472589E-4,2.290677221E-4,-7.635590737E-5,6.568383512E-4
3.305905731E0,1.221694518E-3,-3.817795368E-4,-1.908897655E-3,2.298300104E-3
3.308331565E0,1.221694518E-3,-9.926267667E-4,-6.872031372E-4,1.717583635E-3
3.310757346E0,-6.108472589E-4,-3.817795368E-4,5.344913807E-4,8.969788317E-4
3.313183179E0,-6.108472589E-4,-3.817795368E-4,5.344913807E-4,8.969788317E-4
3.315608960E0,6.108472589E-4,-3.817795368E-4,5.344913807E-4,8.969788317E-4
3.318034794E0,0.000000000E0,8.399150101E-4,5.344913807E-4,9.955592701E-4
3.320460627E0,0.000000000E0,8.399150101E-4,-6.872031372E-4,1.085221349E-3
3.322886408E0,6.108472589E-4,8.399150101E-4,-6.872031372E-4,1.245327166E-3
3.325312242E0,1.221694518E-3,2.290677221E-4,1.145338640E-3,1.690210080E-3
3.327738023E0,-6.108472589E-4,-9.926267667E-4,-7.635590737E-5,1.168020760E-3
3.330163856E0,-1.832541777E-3,-3.817795368E-4,-7.635590737E-5,1.873444742E-3
3.332589690E0,-6.108472589E-4,-3.817795368E-4,-7.635590737E-5,7.243757403E-4
3.335015471E0,1.221694518E-3,-9.926267667E-4,-7.635590737E-5,1.575968152E-3
3.337441304E0,6.108472589E-4,2.290677221E-4,-6.872031372E-4,9.475518703E-4
3.339867085E0,-1.221694518E-3,2.290677221E-4,-1.298050396E-3,1.797204592E-3
3.342292919E0,-6.108472589E-4,1.450762269E-3,1.145338640E-3,1.946701347E-3
3.344718752E0,-0.000000000E0,-9.926267667E-4,5.344913807E-4,1.127381450E-3
3.347144533E0,-6.108472589E-4,-1.603474026E-3,5.344913807E-4,1.797204596E-3
3.349570367E0,-0.000000000E0,-3.817795368E-4,-6.872031372E-4,7.861321559E-4
3.351996200E0,-6.108472589E-4,-1.603474026E-3,-7.635590737E-5,1.717583637E-3
3.354421981E0,-0.000000000E0,2.290677221E-4,-6.872031372E-4,7.243757127E-4
3.356847815E0,-1.832541777E-3,2.290677221E-4,5.344913807E-4,1.922592630E-3
3.359273596E0,6.108472589E-4,2.290677221E-4,-7.635590737E-5,6.568383512E-4
3.361699429E0,6.108472589E-4,8.399150101E-4,5.344913807E-4,1.168020819E-3
3.364125263E0,-6.108472589E-4,2.290677221E-4,5.344913807E-4,8.433785811E-4
3.366551044E0,-6.108472589E-4,2.290677221E-4,5.344913807E-4,8.433785811E-4
3.368976877E0,6.108472589E-4,1.450762269E-3,5.344913807E-4,1.662385807E-3
3.371402658E0,1.221694518E-3,-3.817795368E-4,-6.872031372E-4,1.452770203E-3
3.373828492E0,-6.108472589E-4,2.290677221E-4,-6.872031372E-4,9.475518703E-4
3.376254325E0,-0.000000000E0,8.399150101E-4,5.344913807E-4,9.955592701E-4
3.378680106E0,6.108472589E-4,-9.926267667E-4,1.145338640E-3,1.634087779E-3
3.381105940E0,-1.221694518E-3,-3.817795368E-4,1.756185899E-3,2.173127244E-3
3.383531773E0,6.108472589E-4,2.290677221E-4,-7.635590737E-5,6.568383512E-4
3.385957554E0,1.221694518E-3,1.450762269E-3,-7.635590737E-5,1.898177779E-3
3.388383388E0,-6.108472589E-4,2.290677221E-4,-7.635590737E-5,6.568383512E-4
3.390809169E0,-0.000000000E0,-9.926267667E-4,-6.872031372E-4,1.207292860E-3
3.393235002E0,6.108472589E-4,-9.926267667E-4,-6.872031372E-4,1.353030090E-3
3.395660835E0,-6.108472589E-4,-3.817795368E-4,-1.298050396E-3,1.484528484E-3
3.398086617E0,-6.108472589E-4,-3.817795368E-4,-6.872031372E-4,9.955592098E-4
3.400512450E0,-6.108472589E-4,8.399150101E-4,-6.872031372E-4,1.245327166E-3
3.402938231E0,-6.108472589E-4,-3.817795368E-4,5.344913807E-4,8.969788317E-4
3.405364065E0,6.108472589E-4,-9.926267667E-4,-6.108472589E-4,1.315893858E-3
3.407789898E0,-6.108472589E-4,8.399150101E-4,-0.000000000E0,1.038552646E-3
3.410215679E0,6.108472589E-4,-3.817795368E-4,-1.221694518E-3,1.418248033E-3
3.412641513E0,-6.108472589E-4,-3.817795368E-4,-0.000000000E0,7.203401894E-4
3.415067346E0,6.108472589E-4,-3.817795368E-4,1.221694518E-3,1.418248033E-3
3.417493127E0,6.108472589E-4,-3.817795368E-4,-6.108472589E-4,9.444704136E-4
3.419918960E0,-0.000000000E0,-3.817795368E-4,-0.000000000E0,3.817795368E-4
3.422344742E0,-0.000000000E0,8.399150101E-4,-0.000000000E0,8.399150101E-4
3.424770575E0,1.221694518E-3,-9.926267667E-4,1.221694518E-3,1.992581965E-3
3.427196408E0,2.443389036E-3,-2.214321401E-3,1.221694518E-3,3.516519123E-3
3.429622190E0,-0.000000000E0,2.061609412E-3,6.108472589E-4,2.150201790E-3
3.432048023E0,-1.221694518E-3,2.061609412E-3,-1.221694518E-3,2.689852850E-3
3.434473804E0,-1.221694518E-3,-3.817795368E-4,-0.000000000E0,1.279958245E-3
3.436899638E0,-0.000000000E0,8.399150101E-4,-1.221694518E-3,1.482563563E-3
3.439325471E0,-0.000000000E0,-3.817795368E-4,-6.108472589E-4,7.203401894E-4
3.441751252E0,-0.000000000E0,-3.817795368E-4,6.108472589E-4,7.203401894E-4
3.444177085E0,-0.000000000E0,2.290677221E-4,-6.108472589E-4,6.523851585E-4
3.446602867E0,-1.221694518E-3,-9.926267667E-4,1.221694518E-3,1.992581965E-3
3.449028700E0,6.108472589E-4,2.290677221E-4,6.108472589E-4,8.937229821E-4
3.451454533E0,-0.000000000E0,2.290677221E-4,-6.108472589E-4,6.523851585E-4
3.453880315E0,-0.000000000E0,2.290677221E-4,6.108472589E-4,6.523851585E-4
3.456306148E0,6.108472589E-4,-3.817795368E-4,-0.000000000E0,7.203401894E-4
3.458731929E0,-0.000000000E0,-3.817795368E-4,-0.000000000E0,3.817795368E-4
3.461157763E0,-0.000000000E0,-3.817795368E-4,-0.000000000E0,3.817795368E-4
3.463583596E0,-6.108472589E-4,8.399150101E-4,6.108472589E-4,1.204875916E-3
3.466009377E0,-0.000000000E0,-3.817795368E-4,1.221694518E-3,1.279958245E-3
3.468435210E0,-0.000000000E0,-3.817795368E-4,1.221694518E-3,1.279958245E-3
3.470861044E0,1.832541777E-3,-9.926267667E-4,1.221694518E-3,2.415792780E-3
3.473286825E0,6.108472589E-4,8.399150101E-4,1.221694518E-3,1.603474070E-3
3.475712658E0,6.108472589E-4,-3.817795368E-4,6.108472589E-4,9.444704136E-4
3.478138440E0,-0.000000000E0,2.290677221E-4,-6.108472589E-4,6.523851585E-4
3.480564273E0,-6.108472589E-4,-9.926267667E-4,-0.000000000E0,1.165522317E-3
3.482990106E0,-6.108472589E-4,-1.603474026E-3,-0.000000000E0,1.715885580E-3
3.485415888E0,6.108472589E-4,2.290677221E-4,-6.108472589E-4,8.937229821E-4
3.487841721E0,-6.108472589E-4,-1.603474026E-3,-0.000000000E0,1.715885580E-3
3.490267502E0,-6.108472589E-4,2.290677221E-4,-0.000000000E0,6.523851585E-4
3.492693335E0,-6.108472589E-4,8.399150101E-4,1.221694518E-3,1.603474070E-3
3.495119169E0,6.108472589E-4,-3.817795368E-4,-6.108472589E-4,9.444704136E-4
3.497544950E0,-0.000000000E0,8.399150101E-4,1.832541777E-3,2.015853811E-3
3.499970783E0,-1.832541777E-3,2.290677221E-4,-6.108472589E-4,1.945203269E-3
3.502396617E0,6.108472589E-4,-3.817795368E-4,-6.108472589E-4,9.444704136E-4
3.504822398E0,-1.221694518E-3,1.450762269E-3,-0.000000000E0,1.896641415E-3
3.507248231E0,-0.000000000E0,2.290677221E-4,6.108472589E-4,6.523851585E-4
3.509674013E0,6.108472589E-4,-9.926267667E-4,6.108472589E-4,1.315893858E-3
3.512099846E0,6.108472589E-4,2.290677221E-4,-6.108472589E-4,8.937229821E-4
3.514525679E0,-6.108472589E-4,-9.926267667E-4,-0.000000000E0,1.165522317E-3
3.516951460E0,-0.000000000E0,2.290677221E-4,-0.000000000E0,2.290677221E-4
3.519377294E0,-6.108472589E-4,2.290677221E-4,-0.000000000E0,6.523851585E-4
3.521803075E0,1.221694518E-3,-2.214321401E-3,6.108472589E-4,2.601709272E-3
3.524228908E0,-1.221694518E-3,-1.603474026E-3,1.221694518E-3,2.357160143E-3
3.526654742E0,-6.108472589E-4,8.399150101E-4,-0.000000000E0,1.038552646E-3
3.529080523E0,-0.000000000E0,2.290677221E-4,6.108472589E-4,6.523851585E-4
3.531506356E0,1.832541777E-3,2.290677221E-4,1.221694518E-3,2.214321314E-3
3.533932190E0,6.108472589E-4,2.290677221E-4,-0.000000000E0,6.523851585E-4
3.536357971E0,-0.000000000E0,2.290677221E-4,-6.108472589E-4,6.523851585E-4
3.538783804E0,6.108472589E-4,-3.817795368E-4,-1.221694518E-3,1.418248033E-3
3.541209585E0,-0.000000000E0,8.399150101E-4,-1.221694518E-3,1.482563563E-3
3.543635419E0,-6.108472589E-4,2.290677221E-4,-0.000000000E0,6.523851585E-4
3.546061200E0,6.108472589E-4,-3.817795368E-4,-7.635590737E-5,7.243757403E-4
3.548487033E0,-0.000000000E0,-3.817795368E-4,-7.635590737E-5,3.893402616E-4
3.550912867E0,-1.221694518E-3,1.450762269E-3,-7.635590737E-5,1.898177779E-3
3.553338648E0,-1.221694518E-3,2.290677221E-4,-6.872031372E-4,1.420301964E-3
3.555764481E0,6.108472589E-4,-9.926267667E-4,5.344913807E-4,1.282233718E-3
3.558190315E0,-0.000000000E0,-3.817795368E-4,-1.908897655E-3,1.946701280E-3
3.560616096E0,6.108472589E-4,2.290677221E-4,1.145338640E-3,1.318107353E-3
3.563041929E0,-6.108472589E-4,2.672456671E-3,1.145338640E-3,2.971019964E-3
3.565467763E0,-0.000000000E0,2.290677221E-4,1.145338640E-3,1.168020813E-3
3.567893544E0,-6.108472589E-4,2.290677221E-4,-7.635590737E-5,6.568383512E-4
3.570319377E0,-0.000000000E0,2.290677221E-4,-7.635590737E-5,2.414585801E-4
3.572745158E0,1.221694518E-3,8.399150101E-4,-7.635590737E-5,1.484528526E-3
3.575170992E0,1.221694518E-3,8.399150101E-4,5.344913807E-4,1.575968196E-3
3.577596825E0,-0.000000000E0,2.290677221E-4,5.344913807E-4,5.815092926E-4
3.580022606E0,-6.108472589E-4,8.399150101E-4,5.344913807E-4,1.168020819E-3
3.582448440E0,-1.221694518E-3,2.290677221E-4,1.145338640E-3,1.690210080E-3
3.584874221E0,-0.000000000E0,-3.817795368E-4,-1.298050396E-3,1.353030098E-3
3.587300054E0,-6.108472589E-4,-3.817795368E-4,-6.872031372E-4,9.955592098E-4
3.589725888E0,-1.832541777E-3,-3.817795368E-4,-6.872031372E-4,1.994044415E-3
3.592151669E0,-0.000000000E0,2.061609412E-3,-7.635590737E-5,2.063022925E-3
3.594577502E0,6.108472589E-4,1.450762269E-3,-6.872031372E-4,1.717583677E-3
3.597003283E0,6.108472589E-4,-3.817795368E-4,5.344913807E-4,8.969788317E-4
3.599429117E0,6.108472589E-4,-3.817795368E-4,-7.635590737E-5,7.243757403E-4
3.601854950E0,2.443389036E-3,-3.817795368E-4,1.756185899E-3,3.033165756E-3
3.604280731E0,-0.000000000E0,2.290677221E-4,-7.635590737E-5,2.414585801E-4
3.606706565E0,-6.108472589E-4,-3.817795368E-4,-6.872031372E-4,9.955592098E-4
3.609132346E0,6.108472589E-4,-3.817795368E-4,-1.298050396E-3,1.484528484E-3
3.611558179E0,-0.000000000E0,8.399150101E-4,-7.635590737E-5,8.433785917E-4
3.613984013E0,-6.108472589E-4,-9.926267667E-4,-7.635590737E-5,1.168020760E-3
3.616409794E0,6.108472589E-4,2.290677221E-4,-7.635590737E-5,6.568383512E-4
3.618835627E0,-0.000000000E0,8.399150101E-4,1.145338640E-3,1.420302018E-3
3.621261408E0,-0.000000000E0,8.399150101E-4,1.145338640E-3,1.420302018E-3
3.623687242E0,-6.108472589E-4,-3.817795368E-4,-7.635590737E-5,7.243757403E-4
3.626113075E0,-0.000000000E0,-3.817795368E-4,-7.635590737E-5,3.893402616E-4
3.628538856E0,6.108472589E-4,8.399150101E-4,-6.872031372E-4,1.245327166E-3
3.630964690E0,-6.108472589E-4,-9.926267667E-4,-1.298050396E-3,1.744527759E-3
3.633390523E0,-6.108472589E-4,8.399150101E-4,-1.298050396E-3,1.662385764E-3
3.635816304E0,6.108472589E-4,-1.603474026E-3,-6.872031372E-4,1.848380771E-3
3.638242138E0,6.108472589E-4,2.290677221E-4,5.344913807E-4,8.433785811E-4
3.640667919E0,1.221694518E-3,2.290677221E-4,-7.635590737E-5,1.245327162E-3
3.643093752E0,6.108472589E-4,-3.817795368E-4,1.145338640E-3,1.353030150E-3
3.645519585E0,6.108472589E-4,-3.817795368E-4,5.344913807E-4,8.969788317E-4
3.647945367E0,-0.000000000E0,-3.817795368E-4,-6.872031372E-4,7.861321559E-4
3.650371200E0,-6.108472589E-4,-3.817795368E-4,-6.872031372E-4,9.955592098E-4
3.652797033E0,-6.108472589E-4,8.399150101E-4,-7.635590737E-5,1.041355762E-3
3.655222815E0,-0.000000000E0,2.290677221E-4,-7.635590737E-5,2.414585801E-4
3.657648648E0,-6.108472589E-4,2.290677221E-4,1.145338640E-3,1.318107353E-3
3.660074429E0,-1.221694518E-3,2.290677221E-4,1.145338640E-3,1.690210080E-3
3.662500263E0,1.221694518E-3,-9.926267667E-4,-7.635590737E-5,1.575968152E-3
3.664926096E0,-0.000000000E0,8.399150101E-4,1.145338640E-3,1.420302018E-3
3.667351877E0,-0.000000000E0,-3.817795368E-4,5.344913807E-4,6.568383749E-4
3.669777710E0,-1.221694518E-3,-9.926267667E-4,-6.872031372E-4,1.717583635E-3
3.672203492E0,-6.108472589E-4,-3.817795368E-4,-7.635590737E-5,7.243757403E-4
3.674629325E0,1.221694518E-3,-9.926267667E-4,-7.635590737E-5,1.575968152E-3
3.677055158E0,-0.000000000E0,-3.817795368E-4,-7.635590737E-5,3.893402616E-4
3.679480940E0,6.108472589E-4,-9.926267667E-4,5.344913807E-4,1.282233718E-3
3.681906773E0,-0.000000000E0,-3.817795368E-4,-1.298050396E-3,1.353030098E-3
3.684332554E0,1.221694518E-3,1.450762269E-3,-1.908897655E-3,2.690936438E-3
3.686758388E0,6.108472589E-4,2.290677221E-4,-1.298050396E-3,1.452770190E-3
3.689184221E0,-1.221694518E-3,-9.926267667E-4,-7.635590737E-5,1.575968152E-3
3.691610002E0,-1.221694518E-3,8.399150101E-4,-7.635590737E-5,1.484528526E-3
3.694035835E0,-6.108472589E-4,-3.817795368E-4,5.344913807E-4,8.969788317E-4
3.696461669E0,-0.000000000E0,1.450762269E-3,1.756185899E-3,2.277915730E-3
3.698887450E0,-0.000000000E0,2.290677221E-4,5.344913807E-4,5.815092926E-4
3.701313283E0,-6.108472589E-4,1.450762269E-3,1.145338640E-3,1.946701347E-3
3.703739065E0,-6.108472589E-4,1.450762269E-3,-7.635590737E-5,1.575968198E-3
3.706164898E0,6.108472589E-4,2.290677221E-4,-7.635590737E-5,6.568383512E-4
3.708590679E0,-1.221694518E-3,8.399150101E-4,1.145338640E-3,1.873444773E-3
3.711016513E0,-0.000000000E0,-9.926267667E-4,5.344913807E-4,1.127381450E-3
3.713442346E0,-6.108472589E-4,-3.817795368E-4,1.145338640E-3,1.353030150E-3
3.715868127E0,-6.108472589E-4,2.290677221E-4,-7.635590737E-5,6.568383512E-4
3.718293960E0,6.108472589E-4,-3.817795368E-4,-6.872031372E-4,9.955592098E-4
3.720719794E0,6.108472589E-4,-3.817795368E-4,-1.908897655E-3,2.040289255E-3
3.723145575E0,-0.000000000E0,-3.817795368E-4,-6.872031372E-4,7.861321559E-4
3.725571408E0,-6.108472589E-4,8.399150101E-4,5.344913807E-4,1.168020819E-3
3.727997190E0,1.832541777E-3,8.399150101E-4,5.344913807E-4,2.085508960E-3
3.730423023E0,-6.108472589E-4,-3.817795368E-4,-6.872031372E-4,9.955592098E-4
3.732848856E0,-0.000000000E0,-3.817795368E-4,-1.298050396E-3,1.353030098E-3
3.735274638E0,-0.000000000E0,-9.926267667E-4,1.145338640E-3,1.515621489E-3
3.737700471E0,-6.108472589E-4,2.290677221E-4,-7.635590737E-5,6.568383512E-4
3.740126252E0,-6.108472589E-4,-3.817795368E-4,5.344913807E-4,8.969788317E-4
3.742552085E0,-0.000000000E0,2.290677221E-4,-7.635590737E-5,2.414585801E-4
3.744977919E0,6.108472589E-4,-3.817795368E-4,-6.872031372E-4,9.955592098E-4
3.747403700E0,6.108472589E-4,2.290677221E-4,-1.298050396E-3,1.452770190E-3
3.749829533E0,-6.108472589E-4,8.399150101E-4,-7.635590737E-5,1.041355762E-3
3.752255367E0,-0.000000000E0,-3.817795368E-4,-7.635590737E-5,3.893402616E-4
3.754681148E0,-0.000000000E0,-3.817795368E-4,5.344913807E-4,6.568383749E-4
3.757106981E0,-6.108472589E-4,8.399150101E-4,-7.635590737E-5,1.041355762E-3
3.759532763E0,-0.000000000E0,2.290677221E-4,-6.872031372E-4,7.243757127E-4
3.761958596E0,-1.832541777E-3,2.290677221E-4,-6.872031372E-4,1.970515044E-3
3.764384429E0,-6.108472589E-4,8.399150101E-4,-1.298050396E-3,1.662385764E-3
3.766810210E0,-6.108472589E-4,1.450762269E-3,-6.872031372E-4,1.717583677E-3
3.769236044E0,-6.108472589E-4,2.290677221E-4,-1.298050396E-3,1.452770190E-3
3.771661825E0,-0.000000000E0,2.290677221E-4,-7.635590737E-5,2.414585801E-4
3.774087658E0,-6.108472589E-4,8.399150101E-4,-7.635590737E-5,1.041355762E-3
3.776513492E0,-1.221694518E-3,2.290677221E-4,-7.635590737E-5,1.245327162E-3
3.778939273E0,-6.108472589E-4,-3.817795368E-4,-7.635590737E-5,7.243757403E-4
3.781365106E0,-0.000000000E0,2.290677221E-4,-1.298050396E-3,1.318107299E-3
3.783790888E0,6.108472589E-4,2.290677221E-4,1.145338640E-3,1.318107353E-3
3.786216721E0,1.832541777E-3,-3.817795368E-4,-3.130592173E-3,3.647543328E-3
3.788642554E0,-0.000000000E0,2.290677221E-4,-6.872031372E-4,7.243757127E-4
3.791068335E0,-1.221694518E-3,8.399150101E-4,-7.635590737E-5,1.484528526E-3
3.793494169E0,-6.108472589E-4,8.399150101E-4,-7.635590737E-5,1.041355762E-3
3.795920002E0,6.108472589E-4,2.290677221E-4,5.344913807E-4,8.433785811E-4
3.798345783E0,0.000000000E0,8.399150101E-4,1.145338640E-3,1.420302018E-3
3.800771617E0,0.000000000E0,-9.926267667E-4,-7.635590737E-5,9.955592009E-4
3.803197398E0,0.000000000E0,8.399150101E-4,-1.298050396E-3,1.546089278E-3
3.805623231E0,0.000000000E0,8.399150101E-4,2.367033157E-3,2.511633571E-3
3.808049065E0,-6.108472589E-4,1.450762269E-3,5.344913807E-4,1.662385807E-3
3.810474846E0,6.108472589E-4,8.399150101E-4,-7.635590737E-5,1.041355762E-3
3.812900679E0,0.000000000E0,8.399150101E-4,-1.298050396E-3,1.546089278E-3
3.815326460E0,6.108472589E-4,2.290677221E-4,5.344913807E-4,8.433785811E-4
3.817752294E0,-1.832541777E-3,1.450762269E-3,-7.635590737E-5,2.338536027E-3
3.820178127E0,0.000000000E0,2.061609412E-3,5.344913807E-4,2.129768626E-3
3.822603908E0,-6.108472589E-4,1.450762269E-3,1.145338640E-3,1.946701347E-3
3.825029742E0,1.221694518E-3,2.290677221E-4,-7.635590737E-5,1.245327162E-3
3.827455523E0,0.000000000E0,-3.817795368E-4,5.344913807E-4,6.568383749E-4
3.829881356E0,6.108472589E-4,-3.817795368E-4,-6.872031372E-4,9.955592098E-4
3.832307190E0,-6.108472589E-4,-3.817795368E-4,1.145338640E-3,1.353030150E-3
3.834732971E0,-6.108472589E-4,2.290677221E-4,-7.635590737E-5,6.568383512E-4
3.837158804E0,6.108472589E-4,-9.926267667E-4,-6.872031372E-4,1.353030090E-3
3.839584638E0,0.000000000E0,1.374406274E-3,-6.872031372E-4,1.536632929E-3
3.842010419E0,6.108472589E-4,1.527118147E-4,5.344913807E-4,8.259154364E-4
3.844436252E0,0.000000000E0,-4.581354442E-4,5.344913807E-4,7.039667046E-4
3.846862033E0,0.000000000E0,-4.581354442E-4,-1.298050396E-3,1.376525669E-3
3.849287867E0,-1.221694518E-3,7.635590737E-4,5.344913807E-4,1.536633004E-3
3.851713700E0,0.000000000E0,7.635590737E-4,-1.298050396E-3,1.505973868E-3
3.854139481E0,6.108472589E-4,1.527118147E-4,5.344913807E-4,8.259154364E-4
3.856565315E0,6.108472589E-4,7.635590737E-4,5.344913807E-4,1.114377794E-3
3.858991096E0,-1.832541777E-3,1.374406274E-3,-7.635590737E-5,2.291949431E-3
3.861416929E0,6.108472589E-4,1.527118147E-4,-6.872031372E-4,9.320426084E-4
3.863842763E0,0.000000000E0,-1.068982761E-3,1.145338640E-3,1.566692294E-3
3.866268544E0,-6.108472589E-4,1.527118147E-4,5.344913807E-4,8.259154364E-4
3.868694377E0,0.000000000E0,1.527118147E-4,-6.872031372E-4,7.039666541E-4
3.871120210E0,0.000000000E0,-4.581354442E-4,1.145338640E-3,1.233567463E-3
3.873545992E0,0.000000000E0,-1.068982761E-3,-7.635590737E-5,1.071706288E-3
3.875971825E0,0.000000000E0,1.374406274E-3,-7.635590737E-5,1.376525638E-3
3.878397606E0,6.108472589E-4,1.527118147E-4,1.145338640E-3,1.307002629E-3
3.880823440E0,-6.108472589E-4,-4.581354442E-4,1.145338640E-3,1.376525720E-3
3.883249273E0,-1.221694518E-3,1.527118147E-4,-7.635590737E-5,1.233567436E-3
3.885675054E0,-5.344913807E-4,1.527118147E-4,5.344913807E-4,7.711569039E-4
3.888100888E0,-5.344913807E-4,7.635590737E-4,-6.872031372E-4,1.157994666E-3
3.890526669E0,-1.756185899E-3,1.527118147E-4,-7.635590737E-5,1.764465934E-3
3.892952502E0,7.635590737E-5,7.635590737E-4,5.344913807E-4,9.351650761E-4
3.895378335E0,7.635590737E-5,7.635590737E-4,-7.635590737E-5,7.711568635E-4
3.897804117E0,7.635590737E-5,-1.068982761E-3,-1.298050396E-3,1.683297122E-3
3.900229950E0,7.635590737E-5,-4.581354442E-4,-7.635590737E-5,4.706894246E-4
3.902655783E0,-5.344913807E-4,1.527118147E-4,-6.872031372E-4,8.838835252E-4
3.905081565E0,1.298050396E-3,-4.581354442E-4,-7.635590737E-5,1.378641774E-3
3.907507398E0,6.872031372E-4,-4.581354442E-4,1.145338640E-3,1.412068283E-3
3.909933179E0,-5.344913807E-4,7.635590737E-4,-6.872031372E-4,1.157994666E-3
3.912359013E0,7.635590737E-5,1.527118147E-4,-7.635590737E-5,1.870330119E-4
3.914784794E0,7.635590737E-5,1.527118147E-4,5.344913807E-4,5.610990634E-4
3.917210627E0,6.872031372E-4,1.527118147E-4,-1.298050396E-3,1.476652932E-3
