"Time (s)","Acceleration x (m/s^2)","Acceleration y (m/s^2)","Acceleration z (m/s^2)","Absolute acceleration (m/s^2)"
2.382241900E-2,-9.896714211E0,-7.178468257E-2,2.422732860E-2,9.897004202E0
2.624830400E-2,-9.925428391E0,-7.896314561E-2,5.054837838E-2,9.925871199E0
2.867419000E-2,-9.920642853E0,-8.614161611E-2,6.011966988E-2,9.921198988E0
3.110007500E-2,-9.913464546E0,-9.092725813E-2,7.686942816E-2,9.914179542E0
3.352590800E-2,-9.923035622E0,-8.135596663E-2,6.251249462E-2,9.923566020E0
3.595179400E-2,-9.918250084E0,-8.614161611E-2,7.926224917E-2,9.918940851E0
3.837767900E-2,-9.920642853E0,-6.221338734E-2,5.294119939E-2,9.920979180E0
4.080351300E-2,-9.894321442E0,-7.657032460E-2,6.969095767E-2,9.894863144E0
4.322939800E-2,-9.903892517E0,-7.178468257E-2,6.011966988E-2,9.904335132E0
4.565528300E-2,-9.920642853E0,-6.460621208E-2,4.097708687E-2,9.920937844E0
4.808116900E-2,-9.913464546E0,-7.417750359E-2,3.619144112E-2,9.913808120E0
5.050700200E-2,-9.894321442E0,-8.614161611E-2,4.815555736E-2,9.894813597E0
5.293288800E-2,-9.899106979E0,-6.460621208E-2,5.294119939E-2,9.899459365E0
5.535877300E-2,-9.925428391E0,-6.939185411E-2,5.054837838E-2,9.925799671E0
5.778460600E-2,-9.894321442E0,-6.939185411E-2,5.772684515E-2,9.894733165E0
6.021049200E-2,-9.934999466E0,-7.417750359E-2,6.011966988E-2,9.935458272E0
6.263637700E-2,-9.920642853E0,-1.004985496E-1,8.404789865E-2,9.921507880E0
6.506226300E-2,-9.896714211E0,-8.853443712E-2,6.490531564E-2,9.897323033E0
6.748809600E-2,-9.901499748E0,-8.135596663E-2,8.883354068E-2,9.902232448E0
6.991398100E-2,-9.899106979E0,-9.092725813E-2,8.165507019E-2,9.899861328E0
7.233986700E-2,-9.908679008E0,-6.939185411E-2,8.644071966E-2,9.909299013E0
7.476570000E-2,-9.920642853E0,-1.004985496E-1,7.686942816E-2,9.921449666E0
7.719158600E-2,-9.901499748E0,-7.178468257E-2,9.122636169E-2,9.902180192E0
7.961747100E-2,-9.872786522E0,-8.614161611E-2,8.165507019E-2,9.873499969E0
8.204335600E-2,-9.889535904E0,-7.896314561E-2,5.294119939E-2,9.889992838E0
8.446919000E-2,-9.882357597E0,-7.896314561E-2,6.011966988E-2,9.882855925E0
8.689507500E-2,-9.906285286E0,-9.332008660E-2,7.208377868E-2,9.906987074E0
8.932096100E-2,-9.858130455E0,-7.417750359E-2,7.208377868E-2,9.858673057E0
9.174679400E-2,-9.896714211E0,-7.896314561E-2,5.533402413E-2,9.897183902E0
9.417267900E-2,-9.918250084E0,-6.939185411E-2,7.447660714E-2,9.918772440E0
9.659856500E-2,-9.901499748E0,-8.135596663E-2,6.729813665E-2,9.902062669E0
9.902445000E-2,-9.884750366E0,-8.853443712E-2,4.815555736E-2,9.885264139E0
1.014502830E-1,-9.911071777E0,-7.178468257E-2,8.404789865E-2,9.911688094E0
1.038761690E-1,-9.906285286E0,-8.853443712E-2,1.079761237E-1,9.907269319E0
1.063020540E-1,-9.899106979E0,-8.374879509E-2,9.601201117E-2,9.899926826E0
1.087278880E-1,-9.915857315E0,-7.896314561E-2,1.031904742E-1,9.916708615E0
1.111537730E-1,-9.911071777E0,-7.417750359E-2,8.883354068E-2,9.911747448E0
1.135796580E-1,-9.908679008E0,-7.178468257E-2,8.165507019E-2,9.909275467E0
1.160054920E-1,-9.920642853E0,-9.810572863E-2,9.840483218E-2,9.921615940E0
1.184313770E-1,-9.903892517E0,-6.460621208E-2,8.165507019E-2,9.904439838E0
1.208572630E-1,-9.911071777E0,-6.460621208E-2,9.361918271E-2,9.911724486E0
1.232831480E-1,-9.875179291E0,-5.982056633E-2,9.361918271E-2,9.875804224E0
1.257089810E-1,-9.899106979E0,-9.810572863E-2,7.926224917E-2,9.899910415E0
1.281348670E-1,-9.918250084E0,-8.853443712E-2,6.729813665E-2,9.918873530E0
1.305607520E-1,-9.903892517E0,-9.571290761E-2,5.772684515E-2,9.904523226E0
1.329865860E-1,-9.896714211E0,-5.742774159E-2,7.926224917E-2,9.897198220E0
1.354124710E-1,-9.894321442E0,-7.178468257E-2,6.011966988E-2,9.894764485E0
1.378383560E-1,-9.884750366E0,-6.939185411E-2,8.404789865E-2,9.885351237E0
1.402642420E-1,-9.901499748E0,-8.135596663E-2,5.054837838E-2,9.901962997E0
1.426900750E-1,-9.899106979E0,-9.810572863E-2,5.054837838E-2,9.899722161E0
1.451159610E-1,-9.891928673E0,-7.178468257E-2,7.208377868E-2,9.892451768E0
1.475418460E-1,-9.918250084E0,-9.092725813E-2,6.490531564E-2,9.918879231E0
1.499676790E-1,-9.927821159E0,-8.135596663E-2,8.165507019E-2,9.928490284E0
1.523935650E-1,-9.901499748E0,-8.135596663E-2,1.007976532E-1,9.902347006E0
1.548194500E-1,-9.891928673E0,-8.135596663E-2,1.055833027E-1,9.892826669E0
1.572453360E-1,-9.906285286E0,-7.417750359E-2,1.271187067E-1,9.907378545E0
1.596711690E-1,-9.915857315E0,-8.853443712E-2,1.151545867E-1,9.916921156E0
1.620970540E-1,-9.901499748E0,-9.571290761E-2,9.840483218E-2,9.902451299E0
1.645229400E-1,-9.903892517E0,-7.417750359E-2,1.103689447E-1,9.904785237E0
1.669487730E-1,-9.903892517E0,-6.939185411E-2,9.840483218E-2,9.904624462E0
1.693746580E-1,-9.903892517E0,-7.896314561E-2,7.926224917E-2,9.904524455E0
1.718005440E-1,-9.906285286E0,-7.178468257E-2,7.926224917E-2,9.906862455E0
1.742264290E-1,-9.908679008E0,-8.614161611E-2,8.883354068E-2,9.909451623E0
1.766522630E-1,-9.889535904E0,-8.374879509E-2,9.840483218E-2,9.890380062E0
1.790781480E-1,-9.899106979E0,-6.939185411E-2,8.883354068E-2,9.899748765E0
1.815040330E-1,-9.913464546E0,-8.614161611E-2,9.361918271E-2,9.914280823E0
1.839298670E-1,-9.911071777E0,-5.982056633E-2,7.208377868E-2,9.911514433E0
1.863557520E-1,-9.923035622E0,-6.939185411E-2,9.122636169E-2,9.923697568E0
1.887816380E-1,-9.923035622E0,-6.939185411E-2,8.404789865E-2,9.923634174E0
1.912075230E-1,-9.889535904E0,-7.417750359E-2,7.447660714E-2,9.890094512E0
1.936333560E-1,-9.887143135E0,-8.135596663E-2,6.729813665E-2,9.887706873E0
1.960592420E-1,-9.908679008E0,-6.699903309E-2,6.011966988E-2,9.909087896E0
1.984851270E-1,-9.908679008E0,-7.896314561E-2,6.969095767E-2,9.909238704E0
2.009109610E-1,-9.913464546E0,-9.332008660E-2,5.294119939E-2,9.914045124E0
2.033368460E-1,-9.906285286E0,-9.092725813E-2,5.772684515E-2,9.906870763E0
2.057627310E-1,-9.903892517E0,-9.332008660E-2,5.054837838E-2,9.904461155E0
2.081886170E-1,-9.889535904E0,-7.657032460E-2,7.447660714E-2,9.890112748E0
2.106144500E-1,-9.891928673E0,-7.657032460E-2,7.447660714E-2,9.892505378E0
2.130403360E-1,-9.901499748E0,-7.417750359E-2,6.969095767E-2,9.902022844E0
2.154662210E-1,-9.896714211E0,-7.896314561E-2,8.404789865E-2,9.897386089E0
2.178920540E-1,-9.934999466E0,-6.939185411E-2,9.122636169E-2,9.935660616E0
2.203179400E-1,-9.930213928E0,-7.657032460E-2,7.926224917E-2,9.930825453E0
2.227438250E-1,-9.891928673E0,-8.374879509E-2,4.336991161E-2,9.892378262E0
2.251697110E-1,-9.903892517E0,-7.178468257E-2,5.294119939E-2,9.904294160E0
2.275955440E-1,-9.923035622E0,-8.374879509E-2,5.054837838E-2,9.923517771E0
2.300214290E-1,-9.899106979E0,-5.982056633E-2,4.097708687E-2,9.899372536E0
2.324473150E-1,-9.889535904E0,-8.374879509E-2,4.815555736E-2,9.890007746E0
2.348731480E-1,-9.923035622E0,-6.699903309E-2,5.294119939E-2,9.923403025E0
2.372990330E-1,-9.915857315E0,-6.221338734E-2,6.969095767E-2,9.916297375E0
2.397249190E-1,-9.896714211E0,-5.982056633E-2,7.686942816E-2,9.897193520E0
2.421508040E-1,-9.899106979E0,-6.699903309E-2,9.122636169E-2,9.899754043E0
2.445766380E-1,-9.901499748E0,-6.699903309E-2,8.165507019E-2,9.902063102E0
2.470025230E-1,-9.894321442E0,-8.853443712E-2,7.926224917E-2,9.895035000E0
2.494284080E-1,-9.891928673E0,-7.417750359E-2,7.686942816E-2,9.892505450E0
2.518542420E-1,-9.903892517E0,-7.896314561E-2,7.686942816E-2,9.904505595E0
2.542801270E-1,-9.903892517E0,-8.614161611E-2,5.054837838E-2,9.904396120E0
2.567060130E-1,-9.908679008E0,-8.374879509E-2,4.097708687E-2,9.909117654E0
2.591318980E-1,-9.899106979E0,-7.178468257E-2,5.533402413E-2,9.899521902E0
2.615577310E-1,-9.906285286E0,-9.810572863E-2,5.772684515E-2,9.906939249E0
2.639836170E-1,-9.915857315E0,-8.853443712E-2,7.447660714E-2,9.916532227E0
2.664095020E-1,-9.894321442E0,-6.939185411E-2,6.729813665E-2,9.894793634E0
2.688353360E-1,-9.906285286E0,-6.939185411E-2,7.926224917E-2,9.906845406E0
2.712612210E-1,-9.927821159E0,-7.178468257E-2,7.686942816E-2,9.928378262E0
2.736871060E-1,-9.913464546E0,-4.785645381E-2,7.686942816E-2,9.913878074E0
2.761129920E-1,-9.903892517E0,-7.657032460E-2,8.165507019E-2,9.904525105E0
2.785388250E-1,-9.903892517E0,-9.810572863E-2,5.294119939E-2,9.904519902E0
2.809647110E-1,-9.906285286E0,-8.135596663E-2,5.533402413E-2,9.906773885E0
2.833905960E-1,-9.896714211E0,-7.896314561E-2,3.379862010E-2,9.897086929E0
2.858164290E-1,-9.896714211E0,-7.657032460E-2,6.011966988E-2,9.897193014E0
2.882423150E-1,-9.911071777E0,-8.374879509E-2,4.576273263E-2,9.911531257E0
2.906682000E-1,-9.903892517E0,-6.699903309E-2,3.619144112E-2,9.904185261E0
2.930940860E-1,-9.901499748E0,-7.417750359E-2,5.533402413E-2,9.901932206E0
2.955199190E-1,-9.879964828E0,-5.264209956E-2,6.490531564E-2,9.880318259E0
2.979458040E-1,-9.899106979E0,-6.460621208E-2,9.840483218E-2,9.899806890E0
3.003716900E-1,-9.906285286E0,-6.939185411E-2,1.151545867E-1,9.907197584E0
3.027975230E-1,-9.915857315E0,-9.092725813E-2,9.361918271E-2,9.916716120E0
3.052234080E-1,-9.915857315E0,-6.939185411E-2,1.055833027E-1,9.916662208E0
3.076492940E-1,-9.915857315E0,-6.699903309E-2,9.122636169E-2,9.916503286E0
3.100751270E-1,-9.927821159E0,-4.785645381E-2,8.644071966E-2,9.928312808E0
3.125010130E-1,-9.915857315E0,-8.614161611E-2,7.686942816E-2,9.916529412E0
3.149268980E-1,-9.908679008E0,-8.853443712E-2,5.294119939E-2,9.909215953E0
3.173527830E-1,-9.868000984E0,-6.939185411E-2,6.251249462E-2,9.868442961E0
3.197786170E-1,-9.913464546E0,-7.417750359E-2,5.294119939E-2,9.913883416E0
3.222045020E-1,-9.920642853E0,-8.853443712E-2,7.447660714E-2,9.921317439E0
3.246303880E-1,-9.927821159E0,-8.374879509E-2,8.165507019E-2,9.928510179E0
3.270562730E-1,-9.903892517E0,-9.092725813E-2,7.926224917E-2,9.904627063E0
3.294821060E-1,-9.927821159E0,-6.939185411E-2,7.926224917E-2,9.928380065E0
3.319079920E-1,-9.903892517E0,-5.982056633E-2,1.007976532E-1,9.904586092E0
3.343338770E-1,-9.899106979E0,-6.699903309E-2,8.644071966E-2,9.899711100E0
3.367597110E-1,-9.911071777E0,-8.614161611E-2,6.251249462E-2,9.911643253E0
3.391855960E-1,-9.887143135E0,-5.264209956E-2,7.208377868E-2,9.887546037E0
3.416114810E-1,-9.908679008E0,-7.896314561E-2,7.686942816E-2,9.909291790E0
3.440373150E-1,-9.913464546E0,-7.896314561E-2,5.533402413E-2,9.913933444E0
3.464632000E-1,-9.906285286E0,-8.374879509E-2,4.815555736E-2,9.906756330E0
3.488890860E-1,-9.896714211E0,-8.135596663E-2,4.576273263E-2,9.897154398E0
3.513149710E-1,-9.903892517E0,-8.374879509E-2,3.379862010E-2,9.904304276E0
3.537408040E-1,-9.918250084E0,-7.896314561E-2,3.140579537E-2,9.918614128E0
3.561666900E-1,-9.891928673E0,-9.092725813E-2,6.729813665E-2,9.892575482E0
3.585925750E-1,-9.920642853E0,-6.939185411E-2,5.772684515E-2,9.921053484E0
3.610184080E-1,-9.923035622E0,-8.374879509E-2,8.644071966E-2,9.923765505E0
3.634442940E-1,-9.896714211E0,-8.853443712E-2,8.883354068E-2,9.897508874E0
3.658701790E-1,-9.915857315E0,-7.417750359E-2,7.208377868E-2,9.916396758E0
3.682960650E-1,-9.923035622E0,-6.460621208E-2,6.729813665E-2,9.923474137E0
3.707218980E-1,-9.899106979E0,-6.939185411E-2,6.969095767E-2,9.899595499E0
3.731477830E-1,-9.932606697E0,-8.374879509E-2,6.011966988E-2,9.933141700E0
3.755736690E-1,-9.882357597E0,-7.657032460E-2,4.576273263E-2,9.882760188E0
3.779995020E-1,-9.906285286E0,-9.332008660E-2,2.901297435E-2,9.906767311E0
3.804253880E-1,-9.896714211E0,-8.135596663E-2,3.619144112E-2,9.897114770E0
3.828512730E-1,-9.887143135E0,-7.896314561E-2,2.901297435E-2,9.887501014E0
3.852771580E-1,-9.913464546E0,-5.982056633E-2,1.944168471E-2,9.913664095E0
3.877029920E-1,-9.891928673E0,-8.614161611E-2,3.140579537E-2,9.892353591E0
3.901288770E-1,-9.887143135E0,-7.896314561E-2,5.054837838E-2,9.887587658E0
3.925547630E-1,-9.920642853E0,-7.178468257E-2,4.336991161E-2,9.920997359E0
3.949806480E-1,-9.891928673E0,-7.657032460E-2,5.533402413E-2,9.892379781E0
3.974064810E-1,-9.901499748E0,-5.503492057E-2,8.883354068E-2,9.902051177E0
3.998323670E-1,-9.899106979E0,-7.657032460E-2,7.686942816E-2,9.899701557E0
4.022582520E-1,-9.920642853E0,-8.374879509E-2,9.601201117E-2,9.921460920E0
4.046840860E-1,-9.906285286E0,-7.896314561E-2,8.404789865E-2,9.906956515E0
4.071099710E-1,-9.939785004E0,-9.332008660E-2,7.686942816E-2,9.940520281E0
4.095358560E-1,-9.918250084E0,-7.896314561E-2,6.490531564E-2,9.918776770E0
4.119616900E-1,-9.899106979E0,-1.052841991E-1,8.883354068E-2,9.900065411E0
4.143875750E-1,-9.923035622E0,-6.939185411E-2,9.122636169E-2,9.923697568E0
4.168134610E-1,-9.906285286E0,-7.657032460E-2,7.686942816E-2,9.906879433E0
4.192393460E-1,-9.901499748E0,-8.853443712E-2,9.840483218E-2,9.902384517E0
4.216651790E-1,-9.899106979E0,-8.614161611E-2,9.361918271E-2,9.899924440E0
4.240910650E-1,-9.923035622E0,-7.178468257E-2,8.883354068E-2,9.923692881E0
4.265169500E-1,-9.894321442E0,-7.657032460E-2,1.127617657E-1,9.895260230E0
4.289427830E-1,-9.911071777E0,-4.546362907E-2,1.342971772E-1,9.912085878E0
4.313686690E-1,-9.925428391E0,-6.939185411E-2,1.271187067E-1,9.926484933E0
4.337945540E-1,-9.913464546E0,-7.657032460E-2,1.319043487E-1,9.914637718E0
4.362204400E-1,-9.918250084E0,-9.571290761E-2,1.175474152E-1,9.919408404E0
4.386462730E-1,-9.882357597E0,-8.614161611E-2,1.342971772E-1,9.883645471E0
4.410721580E-1,-9.913464546E0,-8.374879509E-2,1.366899908E-1,9.914760578E0
4.434980440E-1,-9.882357597E0,-7.417750359E-2,1.247258782E-1,9.883423017E0
4.459238770E-1,-9.903892517E0,-6.699903309E-2,1.414756328E-1,9.905129541E0
4.483497630E-1,-9.884750366E0,-8.374879509E-2,9.840483218E-2,9.885594933E0
4.507756480E-1,-9.894321442E0,-8.853443712E-2,1.127617657E-1,9.895360042E0
4.532014810E-1,-9.906285286E0,-8.374879509E-2,9.361918271E-2,9.907081638E0
4.556273670E-1,-9.896714211E0,-5.982056633E-2,8.644071966E-2,9.897272486E0
4.580532520E-1,-9.908679008E0,-7.178468257E-2,9.601201117E-2,9.909404172E0
4.604791380E-1,-9.915857315E0,-6.939185411E-2,8.404789865E-2,9.916456301E0
4.629049710E-1,-9.894321442E0,-7.896314561E-2,7.926224917E-2,9.894953990E0
4.653308560E-1,-9.913464546E0,-9.332008660E-2,9.122636169E-2,9.914323487E0
4.677567420E-1,-9.906285286E0,-8.853443712E-2,5.054837838E-2,9.906809863E0
4.701826270E-1,-9.908679008E0,-8.135596663E-2,4.576273263E-2,9.909118665E0
4.726084610E-1,-9.896714211E0,-8.614161611E-2,6.251249462E-2,9.897286515E0
4.750343460E-1,-9.887143135E0,-6.939185411E-2,5.294119939E-2,9.887528375E0
4.774602310E-1,-9.918250084E0,-7.178468257E-2,4.336991161E-2,9.918604676E0
4.798860650E-1,-9.908679008E0,-6.460621208E-2,4.815555736E-2,9.909006641E0
4.823119500E-1,-9.908679008E0,-7.178468257E-2,6.490531564E-2,9.909151600E0
4.847378360E-1,-9.894321442E0,-7.417750359E-2,7.926224917E-2,9.894916958E0
4.871637210E-1,-9.906285286E0,-8.614161611E-2,5.533402413E-2,9.906814342E0
4.895895540E-1,-9.923035622E0,-7.896314561E-2,5.772684515E-2,9.923517699E0
4.920154400E-1,-9.930213928E0,-6.460621208E-2,4.336991161E-2,9.930518797E0
4.944413250E-1,-9.908679008E0,-7.417750359E-2,6.011966988E-2,9.909139033E0
4.968671580E-1,-9.925428391E0,-7.896314561E-2,6.011966988E-2,9.925924556E0
4.992930440E-1,-9.920642853E0,-6.939185411E-2,6.251249462E-2,9.921082484E0
5.017189290E-1,-9.889535904E0,-5.742774159E-2,5.054837838E-2,9.889831823E0
5.041448150E-1,-9.870393753E0,-7.657032460E-2,5.772684515E-2,9.870859549E0
5.065706480E-1,-9.889535904E0,-6.699903309E-2,4.097708687E-2,9.889847743E0
5.089965330E-1,-9.894321442E0,-7.178468257E-2,6.490531564E-2,9.894794719E0
5.114224190E-1,-9.911071777E0,-7.657032460E-2,5.294119939E-2,9.911508945E0
5.138482520E-1,-9.906285286E0,-6.221338734E-2,5.772684515E-2,9.906648831E0
5.162741380E-1,-9.915857315E0,-6.221338734E-2,5.294119939E-2,9.916193805E0
5.187000230E-1,-9.915857315E0,-7.417750359E-2,6.251249462E-2,9.916331802E0
5.211259080E-1,-9.918250084E0,-8.614161611E-2,6.969095767E-2,9.918868985E0
5.235517420E-1,-9.906285286E0,-8.614161611E-2,8.644071966E-2,9.907036920E0
5.259776270E-1,-9.918250084E0,-7.657032460E-2,7.208377868E-2,9.918807580E0
5.284035130E-1,-9.911071777E0,-5.264209956E-2,9.840483218E-2,9.911700080E0
5.308293460E-1,-9.887143135E0,-9.571290761E-2,8.165507019E-2,9.887943562E0
5.332552310E-1,-9.884750366E0,-8.614161611E-2,1.151545867E-1,9.885796415E0
5.356811170E-1,-9.906285286E0,-6.460621208E-2,1.031904742E-1,9.907033381E0
5.381070020E-1,-9.915857315E0,-7.896314561E-2,1.175474152E-1,9.916868400E0
5.405328360E-1,-9.903892517E0,-7.178468257E-2,1.247258782E-1,9.904937989E0
5.429587210E-1,-9.906285286E0,-5.982056633E-2,1.247258782E-1,9.907251042E0
5.453846060E-1,-9.887143135E0,-8.614161611E-2,1.366899908E-1,9.888463172E0
5.478104400E-1,-9.879964828E0,-9.571290761E-2,1.390828192E-1,9.881407289E0
5.502363250E-1,-9.891928673E0,-6.699903309E-2,1.486541033E-1,9.893272451E0
5.526622110E-1,-9.920642853E0,-5.982056633E-2,1.295115203E-1,9.921668526E0
5.550880440E-1,-9.913464546E0,-8.374879509E-2,1.223330572E-1,9.914573039E0
5.575139290E-1,-9.908679008E0,-7.417750359E-2,1.271187067E-1,9.909772003E0
5.599398150E-1,-9.903892517E0,-7.417750359E-2,1.151545867E-1,9.904839720E0
5.623657000E-1,-9.932606697E0,-8.853443712E-2,1.151545867E-1,9.933668744E0
5.647915330E-1,-9.920642853E0,-5.024927482E-2,1.151545867E-1,9.921438413E0
5.672174190E-1,-9.932606697E0,-8.135596663E-2,1.079761237E-1,9.933526737E0
5.696433040E-1,-9.925428391E0,-7.657032460E-2,1.127617657E-1,9.926364237E0
5.720691380E-1,-9.908679008E0,-8.853443712E-2,9.601201117E-2,9.909539664E0
5.744950230E-1,-9.911071777E0,-1.052841991E-1,8.165507019E-2,9.911967317E0
5.769209080E-1,-9.925428391E0,-7.417750359E-2,9.361918271E-2,9.926147067E0
5.793467940E-1,-9.927821159E0,-6.221338734E-2,8.883354068E-2,9.928413513E0
5.817726270E-1,-9.918250084E0,-5.742774159E-2,6.729813665E-2,9.918644651E0
5.841985130E-1,-9.911071777E0,-6.699903309E-2,6.251249462E-2,9.911495369E0
5.866243980E-1,-9.939785004E0,-9.810572863E-2,3.858426586E-2,9.940344028E0
5.890502830E-1,-9.920642853E0,-7.417750359E-2,5.772684515E-2,9.921088111E0
5.914761170E-1,-9.906285286E0,-1.052841991E-1,5.054837838E-2,9.906973709E0
5.939020020E-1,-9.903892517E0,-8.374879509E-2,5.054837838E-2,9.904375598E0
5.963278880E-1,-9.911071777E0,-8.374879509E-2,2.901297435E-2,9.911468074E0
5.987537210E-1,-9.913464546E0,-6.460621208E-2,4.336991161E-2,9.913769930E0
6.011796060E-1,-9.932606697E0,-7.657032460E-2,4.576273263E-2,9.933007251E0
6.036054920E-1,-9.894321442E0,-6.460621208E-2,3.379862010E-2,9.894590093E0
6.060313250E-1,-9.915857315E0,-7.417750359E-2,6.011966988E-2,9.916317006E0
6.084572110E-1,-9.870393753E0,-5.982056633E-2,5.533402413E-2,9.870730125E0
6.108830960E-1,-9.889535904E0,-5.982056633E-2,6.729813665E-2,9.889945800E0
6.133089810E-1,-9.894321442E0,-7.896314561E-2,7.686942816E-2,9.894935112E0
6.157348150E-1,-9.889535904E0,-8.135596663E-2,7.447660714E-2,9.890150957E0
6.181607000E-1,-9.889535904E0,-6.699903309E-2,5.772684515E-2,9.889931327E0
6.205865860E-1,-9.887143135E0,-9.092725813E-2,6.969095767E-2,9.887806833E0
6.230124710E-1,-9.908679008E0,-7.417750359E-2,5.054837838E-2,9.909085585E0
6.254383040E-1,-9.920642853E0,-5.742774159E-2,6.490531564E-2,9.921021382E0
6.278641900E-1,-9.903892517E0,-8.853443712E-2,7.208377868E-2,9.904550540E0
6.302900750E-1,-9.908679008E0,-9.332008660E-2,6.729813665E-2,9.909346970E0
6.327159080E-1,-9.903892517E0,-6.221338734E-2,6.251249462E-2,9.904285199E0
6.351417940E-1,-9.920642853E0,-8.135596663E-2,8.165507019E-2,9.921312461E0
6.375676790E-1,-9.932606697E0,-7.178468257E-2,7.926224917E-2,9.933182337E0
6.399935130E-1,-9.908679008E0,-9.571290761E-2,9.122636169E-2,9.909561186E0
6.424193980E-1,-9.939785004E0,-7.178468257E-2,1.079761237E-1,9.940630654E0
6.448452830E-1,-9.923035622E0,-9.571290761E-2,9.361918271E-2,9.923938808E0
6.472711690E-1,-9.923035622E0,-1.028913707E-1,7.447660714E-2,9.923848515E0
6.496970020E-1,-9.934999466E0,-7.896314561E-2,7.686942816E-2,9.935610624E0
6.521228880E-1,-9.889535904E0,-8.614161611E-2,1.007976532E-1,9.890424710E0
6.545487730E-1,-9.901499748E0,-7.178468257E-2,1.151545867E-1,9.902429544E0
6.569746060E-1,-9.913464546E0,-5.264209956E-2,1.247258782E-1,9.914388889E0
6.594004920E-1,-9.913464546E0,-8.614161611E-2,1.319043487E-1,9.914716256E0
6.618263770E-1,-9.911071777E0,-9.810572863E-2,1.295115203E-1,9.912403429E0
6.642522630E-1,-9.908679008E0,-7.657032460E-2,1.319043487E-1,9.909852747E0
6.666780960E-1,-9.913464546E0,-5.503492057E-2,1.390828192E-1,9.914592890E0
6.691039810E-1,-9.915857315E0,-7.417750359E-2,1.366899908E-1,9.917076825E0
6.715298670E-1,-9.925428391E0,-8.853443712E-2,1.606182158E-1,9.927122710E0
6.739557000E-1,-9.896714211E0,-8.135596663E-2,1.271187067E-1,9.897864928E0
6.763815860E-1,-9.877572060E0,-7.896314561E-2,1.342971772E-1,9.878800570E0
6.788074710E-1,-9.887143135E0,-8.374879509E-2,1.103689447E-1,9.888113801E0
6.812333560E-1,-9.896714211E0,-9.092725813E-2,8.404789865E-2,9.897488771E0
6.836591900E-1,-9.913464546E0,-6.460621208E-2,1.079761237E-1,9.914263065E0
6.860850750E-1,-9.884750366E0,-7.896314561E-2,7.926224917E-2,9.885383527E0
6.885109610E-1,-9.911071777E0,-7.178468257E-2,8.404789865E-2,9.911688094E0
6.909368460E-1,-9.908679008E0,-8.374879509E-2,8.644071966E-2,9.909409950E0
6.933626790E-1,-9.908679008E0,-8.614161611E-2,8.165507019E-2,9.909389871E0
6.957885650E-1,-9.920642853E0,-7.896314561E-2,7.447660714E-2,9.921236644E0
6.982144500E-1,-9.913464546E0,-6.460621208E-2,7.926224917E-2,9.913991919E0
7.006402830E-1,-9.944570541E0,-8.614161611E-2,6.011966988E-2,9.945125339E0
7.030661690E-1,-9.939785004E0,-1.004985496E-1,4.815555736E-2,9.940409692E0
7.054920540E-1,-9.906285286E0,-6.221338734E-2,3.379862010E-2,9.906538296E0
7.079178880E-1,-9.901499748E0,-6.699903309E-2,2.422732860E-2,9.901756061E0
7.103437730E-1,-9.915857315E0,-6.699903309E-2,3.858426586E-2,9.916158727E0
7.127696580E-1,-9.903892517E0,-7.657032460E-2,1.944168471E-2,9.904207590E0
7.151955440E-1,-9.913464546E0,-7.657032460E-2,2.183450572E-2,9.913784296E0
7.176213770E-1,-9.887143135E0,-7.896314561E-2,5.084747914E-3,9.887459755E0
7.200472630E-1,-9.901499748E0,-5.982056633E-2,1.465603895E-2,9.901691298E0
7.224731480E-1,-9.891928673E0,-6.460621208E-2,1.704886183E-2,9.892154340E0
7.248989810E-1,-9.889535904E0,-7.178468257E-2,3.619144112E-2,9.889862651E0
7.273248670E-1,-9.887143135E0,-6.939185411E-2,3.140579537E-2,9.887436519E0
7.297507520E-1,-9.923035622E0,-6.939185411E-2,5.294119939E-2,9.923419469E0
7.321766380E-1,-9.896714211E0,-8.614161611E-2,4.336991161E-2,9.897184119E0
7.346024710E-1,-9.927821159E0,-9.571290761E-2,4.097708687E-2,9.928367089E0
7.370283560E-1,-9.932606697E0,-8.614161611E-2,4.815555736E-2,9.933096956E0
7.394542420E-1,-9.891928673E0,-8.374879509E-2,3.140579537E-2,9.892333044E0
7.418801270E-1,-9.915857315E0,-7.178468257E-2,6.251249462E-2,9.916314192E0
7.443059610E-1,-9.899106979E0,-1.004985496E-1,3.858426586E-2,9.899692303E0
7.467318460E-1,-9.889535904E0,-9.092725813E-2,3.379862010E-2,9.890011654E0
7.491577310E-1,-9.927821159E0,-6.939185411E-2,5.772684515E-2,9.928231494E0
7.515835650E-1,-9.927821159E0,-8.135596663E-2,6.490531564E-2,9.928366656E0
7.540094500E-1,-9.930213928E0,-8.614161611E-2,6.969095767E-2,9.930832083E0
7.564353360E-1,-9.906285286E0,-8.853443712E-2,6.490531564E-2,9.906893520E0
7.588611690E-1,-9.894321442E0,-9.092725813E-2,8.883354068E-2,9.895137996E0
7.612870540E-1,-9.891928673E0,-8.614161611E-2,6.729813665E-2,9.892532653E0
7.637129400E-1,-9.882357597E0,-9.571290761E-2,8.404789865E-2,9.883178471E0
7.661388250E-1,-9.899106979E0,-5.982056633E-2,9.122636169E-2,9.899708063E0
7.685646580E-1,-9.901499748E0,-6.221338734E-2,1.007976532E-1,9.902208235E0
7.709905440E-1,-9.930213928E0,-8.135596663E-2,1.007976532E-1,9.931058736E0
7.734164290E-1,-9.903892517E0,-8.135596663E-2,9.601201117E-2,9.904692024E0
7.758422630E-1,-9.925428391E0,-8.374879509E-2,1.055833027E-1,9.926343256E0
7.782681480E-1,-9.872786522E0,-7.657032460E-2,1.127617657E-1,9.873727358E0
7.806940330E-1,-9.906285286E0,-8.614161611E-2,1.151545867E-1,9.907329061E0
7.831199190E-1,-9.899106979E0,-7.657032460E-2,1.414756328E-1,9.900413999E0
7.855457520E-1,-9.906285286E0,-8.853443712E-2,1.510469317E-1,9.907832341E0
7.879716380E-1,-9.927821159E0,-7.178468257E-2,1.486541033E-1,9.929193525E0
7.903975230E-1,-9.899106979E0,-7.657032460E-2,1.342971772E-1,9.900314022E0
7.928233560E-1,-9.896714211E0,-7.178468257E-2,1.247258782E-1,9.897760441E0
7.952492420E-1,-9.923035622E0,-8.614161611E-2,9.122636169E-2,9.923828826E0
7.976751270E-1,-9.899106979E0,-6.939185411E-2,8.404789865E-2,9.899706979E0
8.001010130E-1,-9.903892517E0,-6.699903309E-2,7.208377868E-2,9.904381451E0
8.025268460E-1,-9.879964828E0,-9.092725813E-2,1.007976532E-1,9.880897376E0
8.049527310E-1,-9.899106979E0,-7.178468257E-2,9.122636169E-2,9.899787588E0
8.073786170E-1,-9.903892517E0,-7.657032460E-2,7.447660714E-2,9.904468525E0
8.098044500E-1,-9.911071777E0,-7.657032460E-2,9.361918271E-2,9.911809691E0
8.122303360E-1,-9.899106979E0,-7.657032460E-2,9.601201117E-2,9.899868702E0
8.146562210E-1,-9.934999466E0,-5.982056633E-2,9.840483218E-2,9.935666882E0
8.170821060E-1,-9.911071777E0,-1.028913707E-1,1.007976532E-1,9.912118370E0
8.195079400E-1,-9.906285286E0,-8.374879509E-2,1.031904742E-1,9.907176707E0
8.219338250E-1,-9.930213928E0,-7.417750359E-2,7.208377868E-2,9.930752591E0
8.243597110E-1,-9.906285286E0,-5.742774159E-2,6.490531564E-2,9.906664364E0
8.267855440E-1,-9.908679008E0,-7.417750359E-2,6.011966988E-2,9.909139033E0
8.292114290E-1,-9.901499748E0,-8.135596663E-2,5.772684515E-2,9.902002244E0
8.316373150E-1,-9.915857315E0,-5.742774159E-2,5.054837838E-2,9.916152448E0
8.340632000E-1,-9.906285286E0,-8.853443712E-2,5.294119939E-2,9.906822361E0
8.364890330E-1,-9.906285286E0,-8.135596663E-2,5.533402413E-2,9.906773885E0
8.389149190E-1,-9.887143135E0,-9.332008660E-2,4.336991161E-2,9.887678644E0
8.413408040E-1,-9.932606697E0,-8.135596663E-2,7.686942816E-2,9.933237312E0
8.437666380E-1,-9.923035622E0,-7.657032460E-2,4.336991161E-2,9.923425815E0
8.461925230E-1,-9.908679008E0,-7.178468257E-2,5.294119939E-2,9.909080457E0
8.486184080E-1,-9.908679008E0,-7.178468257E-2,5.294119939E-2,9.909080457E0
8.510442940E-1,-9.927821159E0,-7.896314561E-2,6.251249462E-2,9.928331983E0
8.534701270E-1,-9.915857315E0,-8.614161611E-2,4.336991161E-2,9.916326317E0
8.558960130E-1,-9.911071777E0,-1.028913707E-1,5.294119939E-2,9.911747231E0
8.583218980E-1,-9.920642853E0,-9.092725813E-2,4.576273263E-2,9.921165083E0
8.607477310E-1,-9.908679008E0,-7.178468257E-2,4.097708687E-2,9.909023759E0
8.631736170E-1,-9.908679008E0,-8.614161611E-2,6.251249462E-2,9.909250622E0
8.655995020E-1,-9.911071777E0,-8.614161611E-2,4.097708687E-2,9.911530824E0
8.680253880E-1,-9.899106979E0,-9.810572863E-2,3.379862010E-2,9.899650805E0
8.704512210E-1,-9.889535904E0,-9.332008660E-2,5.054837838E-2,9.890105367E0
8.728771060E-1,-9.901499748E0,-5.024927482E-2,6.251249462E-2,9.901824583E0
8.753029920E-1,-9.879964828E0,-8.853443712E-2,9.122636169E-2,9.880782641E0
8.777288250E-1,-9.901499748E0,-6.699903309E-2,7.686942816E-2,9.902024795E0
8.801547110E-1,-9.913464546E0,-8.374879509E-2,9.601201117E-2,9.914283205E0
8.825805960E-1,-9.877572060E0,-1.028913707E-1,9.601201117E-2,9.878574529E0
8.850064810E-1,-9.899106979E0,-8.614161611E-2,9.601201117E-2,9.899947357E0
8.874323150E-1,-9.920642853E0,-8.135596663E-2,9.122636169E-2,9.921395852E0
8.898582000E-1,-9.896714211E0,-9.571290761E-2,6.490531564E-2,9.897389849E0
8.922840860E-1,-9.906285286E0,-8.135596663E-2,2.901297435E-2,9.906661835E0
8.947099190E-1,-9.899106979E0,-7.178468257E-2,5.294119939E-2,9.899508816E0
8.971358040E-1,-9.925428391E0,-8.374879509E-2,4.576273263E-2,9.925887206E0
8.995616900E-1,-9.884750366E0,-9.332008660E-2,3.379862010E-2,9.885248646E0
9.019875230E-1,-9.925428391E0,-6.221338734E-2,5.533402413E-2,9.925777607E0
9.044134080E-1,-9.891928673E0,-5.982056633E-2,6.251249462E-2,9.892307071E0
9.068392940E-1,-9.896714211E0,-8.374879509E-2,7.208377868E-2,9.897331059E0
9.092651790E-1,-9.915857315E0,-6.460621208E-2,9.122636169E-2,9.916487408E0
9.116910130E-1,-9.923035622E0,-4.546362907E-2,9.122636169E-2,9.923559096E0
9.141168980E-1,-9.906285286E0,-8.853443712E-2,1.079761237E-1,9.907269319E0
9.165427830E-1,-9.908679008E0,-7.178468257E-2,1.175474152E-1,9.909636226E0
9.189686690E-1,-9.913464546E0,-5.742774159E-2,1.223330572E-1,9.914385641E0
9.213945020E-1,-9.932606697E0,-5.742774159E-2,1.175474152E-1,9.933468233E0
9.238203880E-1,-9.930213928E0,-7.417750359E-2,1.199402362E-1,9.931215264E0
9.262462730E-1,-9.903892517E0,-7.417750359E-2,1.031904742E-1,9.904707849E0
9.286721580E-1,-9.920642853E0,-8.374879509E-2,1.199402362E-1,9.921721329E0
9.310979920E-1,-9.934999466E0,-7.417750359E-2,1.151545867E-1,9.935943703E0
9.335238770E-1,-9.896714211E0,-8.614161611E-2,1.103689447E-1,9.897704474E0
9.359497630E-1,-9.903892517E0,-9.810572863E-2,8.404789865E-2,9.904735018E0
9.383755960E-1,-9.903892517E0,-9.571290761E-2,7.208377868E-2,9.904617308E0
9.408014810E-1,-9.913464546E0,-7.178468257E-2,8.883354068E-2,9.914122440E0
9.432273670E-1,-9.906285286E0,-6.699903309E-2,1.079761237E-1,9.907100276E0
9.456532000E-1,-9.930213928E0,-6.221338734E-2,9.122636169E-2,9.930827831E0
9.480790860E-1,-9.925428391E0,-7.417750359E-2,1.055833027E-1,9.926267117E0
9.505049710E-1,-9.925428391E0,-9.092725813E-2,9.122636169E-2,9.926264088E0
9.529308560E-1,-9.891928673E0,-8.853443712E-2,1.151545867E-1,9.892995087E0
9.553566900E-1,-9.903892517E0,-7.178468257E-2,1.007976532E-1,9.904665577E0
9.577825750E-1,-9.903892517E0,-8.135596663E-2,8.883354068E-2,9.904625040E0
9.602084610E-1,-9.889535904E0,-8.614161611E-2,7.686942816E-2,9.890209790E0
9.626342940E-1,-9.906285286E0,-8.135596663E-2,5.294119939E-2,9.906760809E0
9.650601790E-1,-9.911071777E0,-1.028913707E-1,6.011966988E-2,9.911788173E0
9.674860650E-1,-9.875179291E0,-6.699903309E-2,5.772684515E-2,9.875575289E0
9.699119500E-1,-9.882357597E0,-8.374879509E-2,5.772684515E-2,9.882881054E0
9.723377830E-1,-9.887143135E0,-8.853443712E-2,5.533402413E-2,9.887694351E0
9.747636690E-1,-9.899106979E0,-6.460621208E-2,4.815555736E-2,9.899434929E0
9.771895540E-1,-9.918250084E0,-7.178468257E-2,6.251249462E-2,9.918706850E0
9.796153880E-1,-9.906285286E0,-8.135596663E-2,5.533402413E-2,9.906773885E0
9.820412730E-1,-9.908679008E0,-7.417750359E-2,6.490531564E-2,9.909169223E0
9.844671580E-1,-9.923035622E0,-7.896314561E-2,7.447660714E-2,9.923629270E0
9.868930440E-1,-9.925428391E0,-7.896314561E-2,6.969095767E-2,9.925987142E0
9.893188770E-1,-9.891928673E0,-6.939185411E-2,6.490531564E-2,9.892384990E0
9.917447630E-1,-9.879964828E0,-8.135596663E-2,5.294119939E-2,9.880441618E0
9.941706480E-1,-9.901499748E0,-9.810572863E-2,5.054837838E-2,9.902114781E0
9.965964810E-1,-9.894321442E0,-8.374879509E-2,2.422732860E-2,9.894705535E0
9.990223670E-1,-9.891928673E0,-7.657032460E-2,4.815555736E-2,9.892342232E0
1.001448252E0,-9.889535904E0,-5.982056633E-2,4.336991161E-2,9.889811922E0
1.003874086E0,-9.899106979E0,-5.264209956E-2,7.447660714E-2,9.899527107E0
1.006299971E0,-9.911071777E0,-7.417750359E-2,5.294119939E-2,9.911490748E0
1.008725856E0,-9.908679008E0,-1.004985496E-1,5.054837838E-2,9.909317574E0
1.011151742E0,-9.908679008E0,-8.853443712E-2,6.490531564E-2,9.909287095E0
1.013577575E0,-9.913464546E0,-7.178468257E-2,7.208377868E-2,9.913986505E0
1.016003461E0,-9.906285286E0,-7.896314561E-2,8.883354068E-2,9.906998271E0
1.018429346E0,-9.927821159E0,-9.092725813E-2,6.011966988E-2,9.928419568E0
1.020855231E0,-9.906285286E0,-6.939185411E-2,5.294119939E-2,9.906669782E0
1.023281065E0,-9.927821159E0,-7.896314561E-2,6.969095767E-2,9.928379776E0
1.025706950E0,-9.896714211E0,-6.460621208E-2,9.361918271E-2,9.897367866E0
1.028132836E0,-9.889535904E0,-6.939185411E-2,8.404789865E-2,9.890136484E0
1.030558669E0,-9.906285286E0,-8.853443712E-2,9.122636169E-2,9.907100926E0
1.032984554E0,-9.925428391E0,-8.374879509E-2,7.208377868E-2,9.926043455E0
1.035410440E0,-9.896714211E0,-1.004985496E-1,7.686942816E-2,9.897522975E0
1.037836325E0,-9.915857315E0,-1.004985496E-1,1.007976532E-1,9.916878865E0
1.040262158E0,-9.906285286E0,-9.332008660E-2,9.601201117E-2,9.907190071E0
1.042688044E0,-9.901499748E0,-8.374879509E-2,9.840483218E-2,9.902342886E0
1.045113929E0,-9.891928673E0,-8.614161611E-2,1.103689447E-1,9.892919415E0
1.047539763E0,-9.918250084E0,-8.374879509E-2,9.361918271E-2,9.919045475E0
1.049965648E0,-9.896714211E0,-7.657032460E-2,9.361918271E-2,9.897453194E0
1.052391533E0,-9.918250084E0,-9.332008660E-2,1.055833027E-1,9.919251040E0
1.054817367E0,-9.925428391E0,-7.896314561E-2,8.883354068E-2,9.926140001E0
1.057243252E0,-9.911071777E0,-6.221338734E-2,1.007976532E-1,9.911779580E0
1.059669138E0,-9.918250084E0,-7.657032460E-2,9.840483218E-2,9.919033786E0
1.062095023E0,-9.901499748E0,-9.092725813E-2,1.031904742E-1,9.902454913E0
1.064520856E0,-9.899106979E0,-6.460621208E-2,6.969095767E-2,9.899563111E0
1.066946742E0,-9.882357597E0,-6.699903309E-2,7.686942816E-2,9.882883661E0
1.069372627E0,-9.896714211E0,-8.614161611E-2,9.122636169E-2,9.897509525E0
1.071798513E0,-9.913464546E0,-7.417750359E-2,7.686942816E-2,9.914040071E0
1.074224346E0,-9.908679008E0,-8.374879509E-2,6.251249462E-2,9.909230110E0
1.076650231E0,-9.906285286E0,-6.699903309E-2,5.533402413E-2,9.906666386E0
1.079076117E0,-9.918250084E0,-6.699903309E-2,7.686942816E-2,9.918774244E0
1.081501950E0,-9.930213928E0,-6.939185411E-2,3.379862010E-2,9.930513896E0
1.083927836E0,-9.920642853E0,-8.614161611E-2,4.097708687E-2,9.921101457E0
1.086353721E0,-9.937392235E0,-8.614161611E-2,1.944168471E-2,9.937784601E0
1.088779606E0,-9.908679008E0,-7.178468257E-2,3.858426586E-2,9.909014153E0
1.091205440E0,-9.901499748E0,-6.460621208E-2,4.336991161E-2,9.901805501E0
1.093631325E0,-9.896714211E0,-9.571290761E-2,3.619144112E-2,9.897243199E0
1.096057211E0,-9.915857315E0,-8.135596663E-2,3.379862010E-2,9.916248657E0
1.098483044E0,-9.923035622E0,-8.614161611E-2,6.490531564E-2,9.923621770E0
1.100908929E0,-9.920642853E0,-1.100698411E-1,7.208377868E-2,9.921515310E0
1.103334815E0,-9.872786522E0,-7.896314561E-2,6.729813665E-2,9.873331653E0
1.105760700E0,-9.903892517E0,-6.221338734E-2,6.729813665E-2,9.904316561E0
1.108186533E0,-9.889535904E0,-8.853443712E-2,7.447660714E-2,9.890212612E0
1.110610729E0,-9.911071777E0,-7.657032460E-2,7.208377868E-2,9.911629677E0
1.113036614E0,-9.913464546E0,-9.571290761E-2,7.208377868E-2,9.914188638E0
1.115462448E0,-9.894321442E0,-8.135596663E-2,5.533402413E-2,9.894810632E0
1.117888333E0,-9.884750366E0,-8.614161611E-2,6.490531564E-2,9.885338784E0
1.120314218E0,-9.913464546E0,-7.657032460E-2,6.251249462E-2,9.913957340E0
1.122740052E0,-9.906285286E0,-6.699903309E-2,7.926224917E-2,9.906828935E0
1.125165937E0,-9.925428391E0,-6.939185411E-2,7.208377868E-2,9.925932704E0
1.127591823E0,-9.930213928E0,-9.571290761E-2,7.686942816E-2,9.930972688E0
1.130017708E0,-9.903892517E0,-1.028913707E-1,8.883354068E-2,9.904825340E0
1.132443541E0,-9.889535904E0,-6.939185411E-2,9.601201117E-2,9.890245393E0
1.134869427E0,-9.882357597E0,-8.135596663E-2,9.122636169E-2,9.883113514E0
1.137295312E0,-9.937392235E0,-7.178468257E-2,9.840483218E-2,9.938138708E0
1.139721198E0,-9.911071777E0,-9.332008660E-2,7.686942816E-2,9.911809185E0
1.142147031E0,-9.868000984E0,-8.374879509E-2,7.686942816E-2,9.868655744E0
1.144572916E0,-9.901499748E0,-8.374879509E-2,7.686942816E-2,9.902152293E0
1.146998802E0,-9.896714211E0,-6.699903309E-2,5.533402413E-2,9.897095680E0
1.149424635E0,-9.908679008E0,-6.939185411E-2,4.576273263E-2,9.909027659E0
1.151850521E0,-9.925428391E0,-7.417750359E-2,4.576273263E-2,9.925811063E0
1.154276406E0,-9.906285286E0,-8.135596663E-2,7.686942816E-2,9.906917577E0
1.156702239E0,-9.915857315E0,-8.614161611E-2,7.447660714E-2,9.916511152E0
1.159128125E0,-9.913464546E0,-7.896314561E-2,5.054837838E-2,9.913907889E0
1.161554010E0,-9.889535904E0,-7.896314561E-2,7.447660714E-2,9.890131563E0
1.163979896E0,-9.901499748E0,-1.148554832E-1,7.686942816E-2,9.902464237E0
1.166405729E0,-9.915857315E0,-9.092725813E-2,8.883354068E-2,9.916672096E0
1.168831614E0,-9.925428391E0,-6.939185411E-2,1.031904742E-1,9.926207344E0
1.171257500E0,-9.920642853E0,-8.374879509E-2,8.883354068E-2,9.921394049E0
1.173683385E0,-9.915857315E0,-5.503492057E-2,1.079761237E-1,9.916597903E0
1.176109218E0,-9.901499748E0,-9.571290761E-2,1.031904742E-1,9.902500013E0
1.178535104E0,-9.918250084E0,-7.178468257E-2,9.122636169E-2,9.918929379E0
1.180960989E0,-9.903892517E0,-6.221338734E-2,8.404789865E-2,9.904444535E0
1.183386823E0,-9.887143135E0,-8.135596663E-2,7.208377868E-2,9.887740603E0
1.185812708E0,-9.903892517E0,-6.699903309E-2,8.883354068E-2,9.904517518E0
1.188238593E0,-9.906285286E0,-5.264209956E-2,9.601201117E-2,9.906890413E0
1.190664479E0,-9.903892517E0,-4.067798331E-2,9.122636169E-2,9.904396192E0
1.193090312E0,-9.908679008E0,-5.742774159E-2,7.208377868E-2,9.909107614E0
1.195516198E0,-9.920642853E0,-8.853443712E-2,8.644071966E-2,9.921414464E0
1.197942083E0,-9.868000984E0,-7.178468257E-2,1.007976532E-1,9.868776856E0
1.200367916E0,-9.879964828E0,-6.699903309E-2,1.247258782E-1,9.880979224E0
1.202793802E0,-9.911071777E0,-1.004985496E-1,1.199402362E-1,9.912306966E0
1.205219687E0,-9.903892517E0,-7.417750359E-2,1.486541033E-1,9.905285828E0
1.207645573E0,-9.918250084E0,-6.939185411E-2,1.606182158E-1,9.919793252E0
1.210071406E0,-9.884750366E0,-8.853443712E-2,1.534397453E-1,9.886337639E0
1.212497291E0,-9.911071777E0,-9.092725813E-2,1.438684613E-1,9.912532960E0
1.214923177E0,-9.911071777E0,-8.135596663E-2,1.319043487E-1,9.912283356E0
1.217349010E0,-9.925428391E0,-7.896314561E-2,1.199402362E-1,9.926467124E0
1.219774896E0,-9.882357597E0,-5.503492057E-2,1.342971772E-1,9.883423307E0
1.222200781E0,-9.906285286E0,-9.571290761E-2,1.175474152E-1,9.907445005E0
1.224626666E0,-9.913464546E0,-7.896314561E-2,1.007976532E-1,9.914291435E0
1.227052500E0,-9.920642853E0,-6.939185411E-2,8.165507019E-2,9.921221568E0
1.229478385E0,-9.908679008E0,-5.982056633E-2,7.686942816E-2,9.909157739E0
1.231904271E0,-9.908679008E0,-6.221338734E-2,7.208377868E-2,9.909136505E0
1.234330104E0,-9.887143135E0,-7.657032460E-2,4.336991161E-2,9.887534745E0
1.236755989E0,-9.911071777E0,-6.699903309E-2,4.097708687E-2,9.911382939E0
1.239181875E0,-9.923035622E0,-5.982056633E-2,3.619144112E-2,9.923281930E0
1.241607760E0,-9.903892517E0,-6.460621208E-2,4.097708687E-2,9.904188007E0
1.244033593E0,-9.915857315E0,-5.982056633E-2,5.294119939E-2,9.916179081E0
1.246459479E0,-9.927821159E0,-7.178468257E-2,7.447660714E-2,9.928360025E0
1.248885364E0,-9.932606697E0,-8.135596663E-2,6.011966988E-2,9.933121814E0
1.251311198E0,-9.913464546E0,-5.503492057E-2,6.969095767E-2,9.913862264E0
1.253737083E0,-9.903892517E0,-6.939185411E-2,8.883354068E-2,9.904533993E0
1.256162968E0,-9.901499748E0,-8.614161611E-2,9.840483218E-2,9.902363413E0
1.258588854E0,-9.903892517E0,-7.657032460E-2,8.404789865E-2,9.904545121E0
1.261014687E0,-9.918250084E0,-9.332008660E-2,1.007976532E-1,9.919201255E0
1.263440573E0,-9.925428391E0,-6.939185411E-2,8.883354068E-2,9.926068475E0
1.265866458E0,-9.903892517E0,-6.939185411E-2,8.883354068E-2,9.904533993E0
1.268292291E0,-9.903892517E0,-5.742774159E-2,8.644071966E-2,9.904436225E0
1.270718177E0,-9.884750366E0,-8.374879509E-2,1.151545867E-1,9.885775854E0
1.273144062E0,-9.906285286E0,-6.939185411E-2,1.295115203E-1,9.907374861E0
1.275569948E0,-9.923035622E0,-9.092725813E-2,1.127617657E-1,9.924092852E0
1.277995781E0,-9.911071777E0,-1.124626622E-1,1.031904742E-1,9.912246965E0
1.280421666E0,-9.903892517E0,-7.657032460E-2,1.031904742E-1,9.904726058E0
1.282847552E0,-9.899106979E0,-6.939185411E-2,9.601201117E-2,9.899815782E0
1.285273385E0,-9.913464546E0,-5.742774159E-2,1.007976532E-1,9.914143302E0
1.287699271E0,-9.879964828E0,-5.982056633E-2,9.601201117E-2,9.880612421E0
1.290125156E0,-9.879964828E0,-8.614161611E-2,8.883354068E-2,9.880739688E0
1.292550989E0,-9.899106979E0,-6.939185411E-2,9.601201117E-2,9.899815782E0
1.294976875E0,-9.887143135E0,-7.896314561E-2,9.601201117E-2,9.887924598E0
1.297402760E0,-9.899106979E0,-7.417750359E-2,9.840483218E-2,9.899873979E0
1.299828646E0,-9.913464546E0,-5.264209956E-2,1.223330572E-1,9.914359075E0
1.302254479E0,-9.918250084E0,-8.135596663E-2,1.151545867E-1,9.919252195E0
1.304680364E0,-9.896714211E0,-6.699903309E-2,1.151545867E-1,9.897610904E0
1.307106250E0,-9.901499748E0,-7.657032460E-2,1.319043487E-1,9.902674338E0
1.309532135E0,-9.925428391E0,-7.178468257E-2,1.342971772E-1,9.926596471E0
1.311957968E0,-9.908679008E0,-5.982056633E-2,1.127617657E-1,9.909501169E0
1.314383854E0,-9.901499748E0,-7.657032460E-2,1.007976532E-1,9.902308844E0
1.316809739E0,-9.884750366E0,-7.896314561E-2,1.055833027E-1,9.885629611E0
1.319235573E0,-9.906285286E0,-7.896314561E-2,1.007976532E-1,9.907112774E0
1.321661458E0,-9.894321442E0,-8.135596663E-2,9.122636169E-2,9.895076444E0
1.324087343E0,-9.875179291E0,-7.657032460E-2,9.361918271E-2,9.875919886E0
1.326513229E0,-9.899106979E0,-4.785645381E-2,9.122636169E-2,9.899642998E0
1.328939062E0,-9.899106979E0,-6.221338734E-2,9.361918271E-2,9.899745151E0
1.331364948E0,-9.911071777E0,-7.178468257E-2,8.644071966E-2,9.911708673E0
1.333790833E0,-9.925428391E0,-7.417750359E-2,7.447660714E-2,9.925984979E0
1.336216666E0,-9.913464546E0,-9.332008660E-2,9.122636169E-2,9.914323487E0
1.338642552E0,-9.913464546E0,-8.135596663E-2,7.686942816E-2,9.914096379E0
1.341068437E0,-9.891928673E0,-7.178468257E-2,6.969095767E-2,9.892434621E0
1.343494323E0,-9.918250084E0,-6.221338734E-2,5.533402413E-2,9.918599553E0
1.345920156E0,-9.908679008E0,-6.699903309E-2,6.251249462E-2,9.909102703E0
1.348346041E0,-9.918250084E0,-7.657032460E-2,4.576273263E-2,9.918651217E0
1.350771927E0,-9.906285286E0,-8.374879509E-2,5.294119939E-2,9.906780748E0
1.353197760E0,-9.899106979E0,-8.135596663E-2,4.576273263E-2,9.899547061E0
1.355623646E0,-9.911071777E0,-9.571290761E-2,4.336991161E-2,9.911628811E0
1.358049531E0,-9.913464546E0,-8.374879509E-2,6.011966988E-2,9.914000582E0
1.360475416E0,-9.891928673E0,-6.460621208E-2,4.576273263E-2,9.892245501E0
1.362901250E0,-9.932606697E0,-8.614161611E-2,3.619144112E-2,9.933046159E0
1.365327135E0,-9.908679008E0,-7.657032460E-2,5.294119939E-2,9.909116281E0
1.367753021E0,-9.913464546E0,-7.417750359E-2,4.097708687E-2,9.913826745E0
1.370178854E0,-9.918250084E0,-8.374879509E-2,5.294119939E-2,9.918744949E0
1.372604739E0,-9.906285286E0,-5.982056633E-2,5.533402413E-2,9.906620439E0
1.375030625E0,-9.901499748E0,-6.939185411E-2,7.686942816E-2,9.902041275E0
1.377456510E0,-9.891928673E0,-7.417750359E-2,5.294119939E-2,9.892348454E0
1.379882343E0,-9.887143135E0,-9.571290761E-2,7.926224917E-2,9.887924091E0
1.382308229E0,-9.908679008E0,-6.699903309E-2,8.404789865E-2,9.909261961E0
1.384734114E0,-9.899106979E0,-6.221338734E-2,7.686942816E-2,9.899600921E0
1.387159948E0,-9.918250084E0,-8.853443712E-2,1.055833027E-1,9.919207171E0
1.389585833E0,-9.925428391E0,-8.853443712E-2,9.840483218E-2,9.926311026E0
1.392011718E0,-9.911071777E0,-8.614161611E-2,1.151545867E-1,9.912115048E0
1.394437604E0,-9.915857315E0,-7.178468257E-2,1.175474152E-1,9.916813840E0
1.396863437E0,-9.913464546E0,-9.332008660E-2,1.151545867E-1,9.914572534E0
1.399289323E0,-9.899106979E0,-8.853443712E-2,1.199402362E-1,9.900229442E0
1.401715208E0,-9.911071777E0,-7.417750359E-2,1.199402362E-1,9.912075047E0
1.404141041E0,-9.901499748E0,-7.657032460E-2,1.247258782E-1,9.902581321E0
1.406566927E0,-9.915857315E0,-8.853443712E-2,1.127617657E-1,9.916893660E0
1.408992812E0,-9.903892517E0,-8.374879509E-2,1.151545867E-1,9.904916023E0
1.411418698E0,-9.896714211E0,-7.178468257E-2,1.247258782E-1,9.897760441E0
1.413844531E0,-9.891928673E0,-6.460621208E-2,1.103689447E-1,9.892755336E0
1.416270416E0,-9.894321442E0,-7.178468257E-2,1.055833027E-1,9.895145156E0
1.418696302E0,-9.913464546E0,-5.264209956E-2,1.079761237E-1,9.914192319E0
1.421122135E0,-9.918250084E0,-7.178468257E-2,9.840483218E-2,9.918997998E0
1.423548021E0,-9.906285286E0,-1.052841991E-1,1.055833027E-1,9.907407368E0
1.425973906E0,-9.894321442E0,-9.092725813E-2,1.007976532E-1,9.895252636E0
1.428399791E0,-9.930213928E0,-7.896314561E-2,8.404789865E-2,9.930883540E0
1.430825625E0,-9.906285286E0,-6.460621208E-2,9.840483218E-2,9.906984690E0
1.433251510E0,-9.925428391E0,-6.939185411E-2,9.601201117E-2,9.926135314E0
1.435677396E0,-9.915857315E0,-8.135596663E-2,7.926224917E-2,9.916507832E0
1.438103229E0,-9.899106979E0,-8.853443712E-2,8.883354068E-2,9.899901451E0
1.440529114E0,-9.879964828E0,-6.699903309E-2,7.447660714E-2,9.880472694E0
1.442955000E0,-9.906285286E0,-7.657032460E-2,1.055833027E-1,9.907143837E0
1.445380885E0,-9.889535904E0,-9.571290761E-2,8.404789865E-2,9.890356182E0
1.447806718E0,-9.915857315E0,-9.332008660E-2,8.883354068E-2,9.916694325E0
1.450232604E0,-9.932606697E0,-8.374879509E-2,1.007976532E-1,9.933471187E0
1.452658489E0,-9.911071777E0,-7.657032460E-2,8.883354068E-2,9.911765644E0
1.455084323E0,-9.903892517E0,-7.178468257E-2,9.601201117E-2,9.904618031E0
1.457510208E0,-9.913464546E0,-6.699903309E-2,1.055833027E-1,9.914253175E0
1.459936093E0,-9.908679008E0,-6.939185411E-2,1.271187067E-1,9.909737337E0
1.462361979E0,-9.918250084E0,-7.178468257E-2,1.103689447E-1,9.919123906E0
1.464787812E0,-9.913464546E0,-8.135596663E-2,9.840483218E-2,9.914286743E0
1.467213698E0,-9.906285286E0,-6.460621208E-2,7.208377868E-2,9.906758208E0
1.469639583E0,-9.891928673E0,-7.417750359E-2,6.251249462E-2,9.892404307E0
1.472065416E0,-9.896714211E0,-8.135596663E-2,6.969095767E-2,9.897293963E0
1.474491302E0,-9.913464546E0,-8.374879509E-2,6.729813665E-2,9.914046712E0
1.476917187E0,-9.918250084E0,-8.853443712E-2,5.054837838E-2,9.918774028E0
1.479343073E0,-9.901499748E0,-6.939185411E-2,7.447660714E-2,9.902022988E0
1.481768906E0,-9.911071777E0,-6.699903309E-2,6.490531564E-2,9.911510750E0
1.484194791E0,-9.875179291E0,-9.810572863E-2,8.644071966E-2,9.876044894E0
1.486620677E0,-9.884750366E0,-8.853443712E-2,8.883354068E-2,9.885545991E0
1.489046510E0,-9.906285286E0,-8.374879509E-2,6.251249462E-2,9.906836520E0
1.491472396E0,-9.899106979E0,-8.614161611E-2,6.969095767E-2,9.899727077E0
1.493898281E0,-9.896714211E0,-7.657032460E-2,8.404789865E-2,9.897367288E0
1.496324166E0,-9.899106979E0,-7.178468257E-2,9.361918271E-2,9.899809927E0
1.498750000E0,-9.894321442E0,-9.332008660E-2,8.404789865E-2,9.895118467E0
1.501175885E0,-9.889535904E0,-8.374879509E-2,7.447660714E-2,9.890170930E0
1.503601771E0,-9.891928673E0,-7.896314561E-2,9.122636169E-2,9.892664469E0
1.506027604E0,-9.887143135E0,-8.135596663E-2,8.404789865E-2,9.887835062E0
1.508453489E0,-9.932606697E0,-7.178468257E-2,9.122636169E-2,9.933285010E0
1.510879375E0,-9.894321442E0,-7.178468257E-2,7.926224917E-2,9.894899309E0
1.513305260E0,-9.908679008E0,-6.221338734E-2,7.686942816E-2,9.909172473E0
1.515731093E0,-9.901499748E0,-8.374879509E-2,9.122636169E-2,9.902274152E0
1.518156979E0,-9.918250084E0,-8.374879509E-2,8.644071966E-2,9.918980320E0
1.520582864E0,-9.915857315E0,-9.092725813E-2,8.883354068E-2,9.916672096E0
1.523008698E0,-9.887143135E0,-6.221338734E-2,1.031904742E-1,9.887877333E0
1.525434583E0,-9.911071777E0,-9.332008660E-2,1.175474152E-1,9.912208120E0
1.527860468E0,-9.925428391E0,-7.178468257E-2,1.103689447E-1,9.926301581E0
1.530286354E0,-9.915857315E0,-8.135596663E-2,1.151545867E-1,9.916859667E0
1.532712187E0,-9.879964828E0,-9.332008660E-2,1.247258782E-1,9.881192752E0
1.535138073E0,-9.884750366E0,-7.417750359E-2,1.031904742E-1,9.885567277E0
1.537563958E0,-9.937392235E0,-6.939185411E-2,8.165507019E-2,9.937969974E0
1.539989791E0,-9.923035622E0,-1.052841991E-1,7.208377868E-2,9.923855943E0
1.542415677E0,-9.932606697E0,-7.896314561E-2,7.686942816E-2,9.933218003E0
1.544841562E0,-9.891928673E0,-6.460621208E-2,6.490531564E-2,9.892352578E0
1.547267448E0,-9.884750366E0,-6.939185411E-2,6.969095767E-2,9.885239596E0
1.549693281E0,-9.906285286E0,-9.332008660E-2,3.858426586E-2,9.906799965E0
1.552119166E0,-9.896714211E0,-8.853443712E-2,5.294119939E-2,9.897251804E0
1.554545052E0,-9.918250084E0,-6.699903309E-2,4.336991161E-2,9.918571195E0
1.556970885E0,-9.913464546E0,-6.699903309E-2,6.490531564E-2,9.913903413E0
1.559396771E0,-9.906285286E0,-8.135596663E-2,6.251249462E-2,9.906816581E0
1.561822656E0,-9.906285286E0,-7.417750359E-2,6.251249462E-2,9.906760231E0
1.564248541E0,-9.899106979E0,-7.178468257E-2,6.251249462E-2,9.899564629E0
1.566674375E0,-9.908679008E0,-6.699903309E-2,7.686942816E-2,9.909203675E0
1.569100260E0,-9.894321442E0,-7.896314561E-2,4.815555736E-2,9.894753707E0
1.571526146E0,-9.896714211E0,-9.571290761E-2,7.447660714E-2,9.897457244E0
1.573951979E0,-9.872786522E0,-7.178468257E-2,8.883354068E-2,9.873447126E0
1.576377864E0,-9.891928673E0,-5.982056633E-2,8.165507019E-2,9.892446559E0
1.578803750E0,-9.877572060E0,-8.374879509E-2,8.165507019E-2,9.878264585E0
1.581229635E0,-9.925428391E0,-8.135596663E-2,6.251249462E-2,9.925958661E0
1.583655468E0,-9.908679008E0,-8.135596663E-2,7.686942816E-2,9.909311146E0
1.586081354E0,-9.903892517E0,-9.571290761E-2,7.208377868E-2,9.904617308E0
1.588507239E0,-9.908679008E0,-1.028913707E-1,7.686942816E-2,9.909511352E0
1.590933073E0,-9.911071777E0,-8.614161611E-2,8.644071966E-2,9.911823049E0
1.593358958E0,-9.906285286E0,-5.503492057E-2,7.208377868E-2,9.906700413E0
1.595784843E0,-9.908679008E0,-8.614161611E-2,6.969095767E-2,9.909298507E0
1.598210729E0,-9.891928673E0,-7.417750359E-2,8.883354068E-2,9.892605651E0
1.600636562E0,-9.896714211E0,-8.853443712E-2,8.883354068E-2,9.897508874E0
1.603062448E0,-9.901499748E0,-5.982056633E-2,8.883354068E-2,9.902078931E0
1.605488333E0,-9.918250084E0,-6.460621208E-2,1.031904742E-1,9.918997276E0
1.607914166E0,-9.923035622E0,-7.178468257E-2,1.055833027E-1,9.923856953E0
1.610340052E0,-9.923035622E0,-9.092725813E-2,9.122636169E-2,9.923871521E0
1.612765937E0,-9.903892517E0,-6.699903309E-2,9.601201117E-2,9.904584502E0
1.615191823E0,-9.915857315E0,-8.614161611E-2,7.686942816E-2,9.916529412E0
1.617617656E0,-9.918250084E0,-8.853443712E-2,7.686942816E-2,9.918943088E0
1.620043541E0,-9.903892517E0,-6.939185411E-2,9.361918271E-2,9.904578071E0
1.622469427E0,-9.920642853E0,-7.417750359E-2,1.007976532E-1,9.921432209E0
1.624895312E0,-9.911071777E0,-6.699903309E-2,6.969095767E-2,9.911543244E0
1.627321146E0,-9.901499748E0,-7.178468257E-2,8.883354068E-2,9.902158437E0
1.629747031E0,-9.899106979E0,-7.417750359E-2,8.404789865E-2,9.899741680E0
1.632172916E0,-9.918250084E0,-5.982056633E-2,7.447660714E-2,9.918710097E0
1.634598750E0,-9.913464546E0,-7.178468257E-2,9.122636169E-2,9.914144169E0
1.637024635E0,-9.918250084E0,-7.896314561E-2,8.165507019E-2,9.918900516E0
1.639450521E0,-9.908679008E0,-7.417750359E-2,1.007976532E-1,9.909469318E0
1.641876354E0,-9.908679008E0,-7.178468257E-2,6.729813665E-2,9.909167562E0
1.644302239E0,-9.889535904E0,-5.982056633E-2,7.447660714E-2,9.889997253E0
1.646728125E0,-9.891928673E0,-7.657032460E-2,9.361918271E-2,9.892668014E0
1.649154010E0,-9.925428391E0,-7.896314561E-2,1.103689447E-1,9.926356090E0
1.651579843E0,-9.918250084E0,-1.028913707E-1,9.840483218E-2,9.919271892E0
1.654005729E0,-9.903892517E0,-7.896314561E-2,9.361918271E-2,9.904649753E0
1.656431614E0,-9.901499748E0,-7.657032460E-2,8.404789865E-2,9.902152510E0
1.658857448E0,-9.884750366E0,-6.939185411E-2,8.644071966E-2,9.885371871E0
1.661283333E0,-9.901499748E0,-1.028913707E-1,7.686942816E-2,9.902332695E0
1.663709218E0,-9.882357597E0,-8.135596663E-2,9.361918271E-2,9.883135890E0
1.666135104E0,-9.911071777E0,-7.657032460E-2,6.729813665E-2,9.911596028E0
1.668560937E0,-9.908679008E0,-7.417750359E-2,7.686942816E-2,9.909254811E0
1.670986823E0,-9.894321442E0,-8.374879509E-2,8.404789865E-2,9.895032830E0
1.673412708E0,-9.918250084E0,-1.004985496E-1,6.251249462E-2,9.918956220E0
1.675838541E0,-9.901499748E0,-9.092725813E-2,6.490531564E-2,9.902129959E0
1.678264427E0,-9.918250084E0,-9.092725813E-2,7.686942816E-2,9.918964734E0
1.680690312E0,-9.894321442E0,-9.810572863E-2,6.729813665E-2,9.895036663E0
1.683116198E0,-9.884750366E0,-9.332008660E-2,7.208377868E-2,9.885453683E0
1.685542031E0,-9.908679008E0,-8.614161611E-2,1.079761237E-1,9.909641715E0
1.687967916E0,-9.906285286E0,-4.785645381E-2,1.031904742E-1,9.906938310E0
1.690393802E0,-9.901499748E0,-7.657032460E-2,8.165507019E-2,9.902132489E0
1.692819687E0,-9.884750366E0,-9.332008660E-2,9.361918271E-2,9.885634172E0
1.695245521E0,-9.894321442E0,-7.178468257E-2,8.404789865E-2,9.894938801E0
1.697671406E0,-9.937392235E0,-7.657032460E-2,7.926224917E-2,9.938003318E0
1.700097291E0,-9.923035622E0,-5.503492057E-2,8.404789865E-2,9.923544167E0
1.702523125E0,-9.899106979E0,-5.982056633E-2,8.165507019E-2,9.899624490E0
1.704949010E0,-9.884750366E0,-9.092725813E-2,8.644071966E-2,9.885546498E0
1.707374896E0,-9.911071777E0,-7.896314561E-2,1.103689447E-1,9.912000820E0
1.709800781E0,-9.894321442E0,-7.417750359E-2,1.079761237E-1,9.895188626E0
1.712226614E0,-9.918250084E0,-9.332008660E-2,9.601201117E-2,9.919153778E0
1.714652500E0,-9.906285286E0,-8.135596663E-2,1.223330572E-1,9.907374644E0
1.717078385E0,-9.899106979E0,-5.982056633E-2,1.175474152E-1,9.899985600E0
1.719504218E0,-9.899106979E0,-7.896314561E-2,1.271187067E-1,9.900238044E0
1.721930104E0,-9.891928673E0,-7.178468257E-2,1.055833027E-1,9.892752587E0
1.724355989E0,-9.920642853E0,-7.417750359E-2,1.103689447E-1,9.921534066E0
1.726781823E0,-9.915857315E0,-5.503492057E-2,9.601201117E-2,9.916474850E0
1.729207708E0,-9.906285286E0,-7.657032460E-2,8.404789865E-2,9.906937732E0
1.731633593E0,-9.934999466E0,-7.657032460E-2,7.926224917E-2,9.935610696E0
1.734059479E0,-9.899106979E0,-8.374879509E-2,1.007976532E-1,9.899974395E0
1.736485312E0,-9.906285286E0,-6.939185411E-2,8.644071966E-2,9.906905440E0
1.738911198E0,-9.884750366E0,-7.178468257E-2,9.601201117E-2,9.885477285E0
1.741337083E0,-9.906285286E0,-5.742774159E-2,9.361918271E-2,9.906894098E0
1.743762916E0,-9.891928673E0,-6.460621208E-2,9.122636169E-2,9.892560289E0
1.746188802E0,-9.927821159E0,-7.417750359E-2,9.122636169E-2,9.928517388E0
1.748614687E0,-9.915857315E0,-8.135596663E-2,8.644071966E-2,9.916567808E0
1.751040573E0,-9.934999466E0,-9.332008660E-2,1.127617657E-1,9.936077609E0
1.753466406E0,-9.872786522E0,-7.178468257E-2,7.686942816E-2,9.873346730E0
1.755892291E0,-9.901499748E0,-6.460621208E-2,8.644071966E-2,9.902087822E0
1.758318177E0,-9.906285286E0,-8.135596663E-2,8.165507019E-2,9.906955865E0
1.760744010E0,-9.889535904E0,-7.178468257E-2,1.007976532E-1,9.890310086E0
1.763169896E0,-9.913464546E0,-9.332008660E-2,7.447660714E-2,9.914183512E0
1.765595781E0,-9.915857315E0,-7.178468257E-2,1.079761237E-1,9.916705006E0
1.768021666E0,-9.918250084E0,-9.332008660E-2,1.055833027E-1,9.919251040E0
1.770447500E0,-9.923035622E0,-7.178468257E-2,8.404789865E-2,9.923651195E0
1.772873385E0,-9.870393753E0,-8.135596663E-2,7.926224917E-2,9.871047267E0
1.775299271E0,-9.889535904E0,-8.614161611E-2,8.644071966E-2,9.890288811E0
1.777725156E0,-9.875179291E0,-6.221338734E-2,8.165507019E-2,9.875712839E0
1.780150989E0,-9.918250084E0,-8.853443712E-2,7.926224917E-2,9.918961920E0
1.782576875E0,-9.925428391E0,-7.896314561E-2,7.686942816E-2,9.926040138E0
1.785002760E0,-9.911071777E0,-6.699903309E-2,6.969095767E-2,9.911543244E0
1.787428593E0,-9.882357597E0,-7.657032460E-2,6.011966988E-2,9.882837096E0
1.789854479E0,-9.911071777E0,-5.742774159E-2,5.054837838E-2,9.911367053E0
1.792280364E0,-9.884750366E0,-6.460621208E-2,3.858426586E-2,9.885036799E0
1.794706198E0,-9.937392235E0,-6.221338734E-2,4.576273263E-2,9.937692346E0
1.797132083E0,-9.903892517E0,-6.939185411E-2,2.901297435E-2,9.904178107E0
1.799557968E0,-9.906285286E0,-7.178468257E-2,4.576273263E-2,9.906651071E0
1.801983854E0,-9.918250084E0,-6.699903309E-2,5.294119939E-2,9.918617664E0
1.804409687E0,-9.894321442E0,-6.939185411E-2,4.576273263E-2,9.894670598E0
1.806835573E0,-9.899106979E0,-8.135596663E-2,6.251249462E-2,9.899638660E0
1.809261458E0,-9.903892517E0,-7.896314561E-2,6.011966988E-2,9.904389761E0
1.811687291E0,-9.901499748E0,-6.460621208E-2,8.165507019E-2,9.902047201E0
1.814113177E0,-9.920642853E0,-8.135596663E-2,6.729813665E-2,9.921204687E0
1.816539062E0,-9.908679008E0,-9.810572863E-2,7.447660714E-2,9.909444545E0
1.818964948E0,-9.894321442E0,-8.374879509E-2,8.883354068E-2,9.895074636E0
1.821390781E0,-9.894321442E0,-6.460621208E-2,8.404789865E-2,9.894889327E0
1.823816666E0,-9.894321442E0,-5.264209956E-2,5.772684515E-2,9.894629875E0
1.826242552E0,-9.911071777E0,-8.614161611E-2,8.883354068E-2,9.911844205E0
1.828668437E0,-9.911071777E0,-8.614161611E-2,9.601201117E-2,9.911911141E0
1.831094271E0,-9.913464546E0,-8.374879509E-2,1.127617657E-1,9.914459561E0
1.833520156E0,-9.896714211E0,-6.939185411E-2,1.127617657E-1,9.897599841E0
1.835946041E0,-9.896714211E0,-6.939185411E-2,1.199402362E-1,9.897684227E0
1.838371875E0,-9.899106979E0,-8.614161611E-2,1.295115203E-1,9.900328914E0
1.840797760E0,-9.915857315E0,-8.374879509E-2,1.151545867E-1,9.916879586E0
1.843223646E0,-9.911071777E0,-6.221338734E-2,1.271187067E-1,9.912082195E0
1.845649531E0,-9.891928673E0,-6.939185411E-2,1.127617657E-1,9.892814732E0
1.848075364E0,-9.915857315E0,-8.374879509E-2,1.438684613E-1,9.917254574E0
1.850501250E0,-9.918250084E0,-6.699903309E-2,1.462612897E-1,9.919554726E0
1.852927135E0,-9.908679008E0,-7.417750359E-2,1.295115203E-1,9.909802986E0
1.855352968E0,-9.925428391E0,-6.221338734E-2,1.175474152E-1,9.926319390E0
1.857778854E0,-9.908679008E0,-9.092725813E-2,1.031904742E-1,9.909633481E0
1.860204739E0,-9.906285286E0,-9.092725813E-2,1.055833027E-1,9.907265201E0
1.862630573E0,-9.913464546E0,-7.657032460E-2,1.103689447E-1,9.914374596E0
1.865056458E0,-9.908679008E0,-7.417750359E-2,1.007976532E-1,9.909469318E0
1.867482343E0,-9.934999466E0,-6.699903309E-2,9.122636169E-2,9.935644192E0
1.869908229E0,-9.899106979E0,-5.264209956E-2,8.883354068E-2,9.899645528E0
1.872334062E0,-9.903892517E0,-6.221338734E-2,4.576273263E-2,9.904193643E0
1.874759948E0,-9.903892517E0,-6.699903309E-2,5.772684515E-2,9.904287367E0
1.877185833E0,-9.887143135E0,-7.896314561E-2,5.772684515E-2,9.887626962E0
1.879611718E0,-9.911071777E0,-9.332008660E-2,4.815555736E-2,9.911628089E0
1.882037552E0,-9.889535904E0,-8.853443712E-2,5.533402413E-2,9.890086986E0
1.884463437E0,-9.891928673E0,-6.221338734E-2,3.858426586E-2,9.892199559E0
1.886889323E0,-9.932606697E0,-8.614161611E-2,2.901297435E-2,9.933022598E0
1.889315156E0,-9.911071777E0,-7.657032460E-2,2.183450572E-2,9.911391604E0
1.891741041E0,-9.899106979E0,-8.374879509E-2,2.662015148E-2,9.899497032E0
1.894166927E0,-9.906285286E0,-7.178468257E-2,5.294119939E-2,9.906686832E0
1.896592812E0,-9.918250084E0,-7.896314561E-2,3.858426586E-2,9.918639456E0
1.899018646E0,-9.896714211E0,-7.896314561E-2,3.140579537E-2,9.897079047E0
1.901444531E0,-9.906285286E0,-6.221338734E-2,4.336991161E-2,9.906575575E0
1.903870416E0,-9.879964828E0,-5.503492057E-2,6.969095767E-2,9.880363894E0
1.906296250E0,-9.920642853E0,-7.417750359E-2,6.011966988E-2,9.921102322E0
1.908722135E0,-9.899106979E0,-5.264209956E-2,6.729813665E-2,9.899475704E0
1.911148021E0,-9.889535904E0,-7.657032460E-2,8.165507019E-2,9.890169410E0
1.913573906E0,-9.879964828E0,-8.374879509E-2,8.165507019E-2,9.880657186E0
1.915999739E0,-9.891928673E0,-7.178468257E-2,1.103689447E-1,9.892804820E0
1.918425625E0,-9.908679008E0,-9.571290761E-2,8.404789865E-2,9.909497702E0
1.920851510E0,-9.927821159E0,-6.939185411E-2,7.686942816E-2,9.928361250E0
1.923277343E0,-9.908679008E0,-8.374879509E-2,7.208377868E-2,9.909295112E0
1.925703229E0,-9.918250084E0,-8.853443712E-2,7.208377868E-2,9.918907155E0
1.928129114E0,-9.899106979E0,-8.135596663E-2,6.011966988E-2,9.899623839E0
1.930555000E0,-9.934999466E0,-6.939185411E-2,7.686942816E-2,9.935539166E0
1.932980833E0,-9.906285286E0,-8.374879509E-2,9.840483218E-2,9.907128017E0
1.935406718E0,-9.915857315E0,-8.374879509E-2,1.175474152E-1,9.916907661E0
1.937832604E0,-9.913464546E0,-5.982056633E-2,1.151545867E-1,9.914313813E0
1.940258437E0,-9.908679008E0,-7.896314561E-2,1.223330572E-1,9.909748748E0
1.942684323E0,-9.908679008E0,-8.853443712E-2,1.247258782E-1,9.909859463E0
1.945110208E0,-9.908679008E0,-8.853443712E-2,1.247258782E-1,9.909859463E0
1.947536093E0,-9.930213928E0,-9.332008660E-2,1.342971772E-1,9.931560453E0
1.949961927E0,-9.891928673E0,-6.939185411E-2,1.558325738E-1,9.893399410E0
1.952387812E0,-9.906285286E0,-7.417750359E-2,1.223330572E-1,9.907318297E0
1.954813698E0,-9.923035622E0,-9.092725813E-2,1.175474152E-1,9.924148382E0
1.957239531E0,-9.896714211E0,-6.699903309E-2,1.055833027E-1,9.897504174E0
1.959665416E0,-9.918250084E0,-6.939185411E-2,1.079761237E-1,9.919080542E0
1.962091302E0,-9.870393753E0,-5.982056633E-2,1.031904742E-1,9.871114406E0
1.964517187E0,-9.901499748E0,-7.657032460E-2,4.336991161E-2,9.901890791E0
1.966943021E0,-9.899106979E0,-8.374879509E-2,5.294119939E-2,9.899602801E0
1.969368906E0,-9.894321442E0,-8.135596663E-2,6.251249462E-2,9.894853379E0
1.971794791E0,-9.899106979E0,-6.699903309E-2,5.533402413E-2,9.899488356E0
1.974220625E0,-9.894321442E0,-7.178468257E-2,6.969095767E-2,9.894827268E0
1.976646510E0,-9.911071777E0,-7.417750359E-2,8.883354068E-2,9.911747448E0
1.979072396E0,-9.887143135E0,-8.374879509E-2,1.031904742E-1,9.888036282E0
1.981498281E0,-9.887143135E0,-7.178468257E-2,9.361918271E-2,9.887846933E0
1.983924114E0,-9.901499748E0,-9.332008660E-2,1.031904742E-1,9.902477174E0
1.986350000E0,-9.879964828E0,-6.939185411E-2,9.122636169E-2,9.880629661E0
1.988775885E0,-9.918250084E0,-1.004985496E-1,7.686942816E-2,9.919057092E0
1.991201771E0,-9.899106979E0,-6.221338734E-2,7.686942816E-2,9.899600921E0
1.993627604E0,-9.915857315E0,-6.460621208E-2,7.447660714E-2,9.916347464E0
1.996053489E0,-9.918250084E0,-6.699903309E-2,7.447660714E-2,9.918755989E0
1.998479375E0,-9.918250084E0,-7.896314561E-2,7.926224917E-2,9.918881107E0
2.000905208E0,-9.903892517E0,-8.853443712E-2,8.165507019E-2,9.904624823E0
2.003331093E0,-9.930213928E0,-8.853443712E-2,1.079761237E-1,9.931195590E0
2.005756979E0,-9.911071777E0,-7.896314561E-2,1.031904742E-1,9.911923488E0
2.008182812E0,-9.901499748E0,-7.657032460E-2,6.969095767E-2,9.902041058E0
2.010608698E0,-9.920642853E0,-6.221338734E-2,9.840483218E-2,9.921325951E0
2.013034583E0,-9.911071777E0,-6.221338734E-2,9.601201117E-2,9.911732068E0
2.015460468E0,-9.887143135E0,-7.896314561E-2,1.151545867E-1,9.888129001E0
2.017886302E0,-9.896714211E0,-7.417750359E-2,1.007976532E-1,9.897505475E0
2.020312187E0,-9.918250084E0,-8.374879509E-2,1.079761237E-1,9.919191370E0
2.022738073E0,-9.903892517E0,-8.853443712E-2,1.103689447E-1,9.904903162E0
2.025163906E0,-9.887143135E0,-6.460621208E-2,9.122636169E-2,9.887775057E0
2.027589791E0,-9.889535904E0,-5.982056633E-2,1.007976532E-1,9.890230486E0
2.030015677E0,-9.899106979E0,-7.657032460E-2,7.926224917E-2,9.899720426E0
2.032441562E0,-9.915857315E0,-6.221338734E-2,8.165507019E-2,9.916388675E0
2.034867396E0,-9.925428391E0,-7.178468257E-2,1.031904742E-1,9.926224360E0
2.037293281E0,-9.899106979E0,-9.571290761E-2,9.840483218E-2,9.900058760E0
2.039719166E0,-9.903892517E0,-7.657032460E-2,8.404789865E-2,9.904545121E0
2.042145000E0,-9.925428391E0,-6.939185411E-2,9.361918271E-2,9.926112457E0
2.044570885E0,-9.923035622E0,-9.092725813E-2,1.055833027E-1,9.924013883E0
2.046996771E0,-9.889535904E0,-8.853443712E-2,1.223330572E-1,9.890688759E0
2.049422656E0,-9.901499748E0,-8.374879509E-2,1.079761237E-1,9.902442626E0
2.051848489E0,-9.901499748E0,-9.092725813E-2,1.223330572E-1,9.902672892E0
2.054274375E0,-9.903892517E0,-8.614161611E-2,1.127617657E-1,9.904909014E0
2.056700260E0,-9.891928673E0,-9.332008660E-2,1.223330572E-1,9.893125233E0
2.059126146E0,-9.906285286E0,-8.374879509E-2,1.055833027E-1,9.907201919E0
2.061551979E0,-9.901499748E0,-8.614161611E-2,1.079761237E-1,9.902463152E0
2.063977864E0,-9.887143135E0,-9.571290761E-2,7.926224917E-2,9.887924091E0
2.066403750E0,-9.913464546E0,-8.374879509E-2,9.361918271E-2,9.914260321E0
2.068829583E0,-9.891928673E0,-6.460621208E-2,8.883354068E-2,9.892538513E0
2.071255468E0,-9.884750366E0,-7.657032460E-2,6.490531564E-2,9.885260013E0
2.073681354E0,-9.911071777E0,-7.178468257E-2,7.208377868E-2,9.911593862E0
2.076107187E0,-9.887143135E0,-9.092725813E-2,6.251249462E-2,9.887758844E0
2.078533073E0,-9.906285286E0,-8.853443712E-2,6.251249462E-2,9.906878132E0
2.080958958E0,-9.913464546E0,-7.657032460E-2,5.533402413E-2,9.913914675E0
2.083384843E0,-9.913464546E0,-5.503492057E-2,6.251249462E-2,9.913814400E0
2.085810677E0,-9.923035622E0,-7.896314561E-2,4.097708687E-2,9.923434398E0
2.088236562E0,-9.903892517E0,-9.810572863E-2,3.379862010E-2,9.904436080E0
2.090662448E0,-9.884750366E0,-8.853443712E-2,5.533402413E-2,9.885301715E0
2.093088333E0,-9.908679008E0,-6.939185411E-2,6.251249462E-2,9.909119170E0
2.095514166E0,-9.911071777E0,-8.853443712E-2,4.815555736E-2,9.911584186E0
2.097940052E0,-9.903892517E0,-8.614161611E-2,3.858426586E-2,9.904342286E0
2.100365937E0,-9.896714211E0,-9.810572863E-2,4.815555736E-2,9.897317609E0
2.102791771E0,-9.908679008E0,-9.810572863E-2,6.251249462E-2,9.909361848E0
2.105217656E0,-9.903892517E0,-7.896314561E-2,5.533402413E-2,9.904361869E0
2.107643541E0,-9.913464546E0,-9.332008660E-2,4.815555736E-2,9.914020723E0
2.110069375E0,-9.930213928E0,-6.460621208E-2,5.533402413E-2,9.930578255E0
2.112495260E0,-9.913464546E0,-8.374879509E-2,8.165507019E-2,9.914154564E0
2.114921146E0,-9.915857315E0,-7.657032460E-2,8.165507019E-2,9.916489140E0
2.117347031E0,-9.894321442E0,-9.332008660E-2,7.208377868E-2,9.895024078E0
2.119772864E0,-9.930213928E0,-7.178468257E-2,7.447660714E-2,9.930752664E0
2.122198750E0,-9.918250084E0,-9.332008660E-2,6.729813665E-2,9.918917401E0
2.124624635E0,-9.887143135E0,-6.221338734E-2,7.686942816E-2,9.887637675E0
2.127050468E0,-9.918250084E0,-9.092725813E-2,1.151545867E-1,9.919335314E0
2.129476354E0,-9.901499748E0,-5.264209956E-2,9.361918271E-2,9.902082256E0
2.131902239E0,-9.887143135E0,-5.503492057E-2,1.007976532E-1,9.887810090E0
2.134328125E0,-9.925428391E0,-1.028913707E-1,1.031904742E-1,9.926498055E0
2.136753958E0,-9.920642853E0,-7.896314561E-2,1.223330572E-1,9.921711302E0
2.139179843E0,-9.896714211E0,-9.092725813E-2,1.342971772E-1,9.898043022E0
2.141605729E0,-9.877572060E0,-7.178468257E-2,1.462612897E-1,9.878915689E0
2.144031614E0,-9.913464546E0,-6.699903309E-2,1.390828192E-1,9.914666520E0
2.146457448E0,-9.911071777E0,-1.004985496E-1,1.510469317E-1,9.912732162E0
2.148883333E0,-9.891928673E0,-7.178468257E-2,1.390828192E-1,9.893166831E0
2.151309218E0,-9.927821159E0,-7.178468257E-2,1.606182158E-1,9.929379851E0
2.153735052E0,-9.899106979E0,-8.374879509E-2,1.534397453E-1,9.900650312E0
2.156160937E0,-9.911071777E0,-5.503492057E-2,1.462612897E-1,9.912303717E0
2.158586823E0,-9.911071777E0,-6.699903309E-2,1.438684613E-1,9.912342346E0
2.161012656E0,-9.903892517E0,-6.221338734E-2,1.534397453E-1,9.905276435E0
2.163438541E0,-9.908679008E0,-7.896314561E-2,1.462612897E-1,9.910073019E0
2.165864427E0,-9.894321442E0,-5.982056633E-2,1.414756328E-1,9.895513663E0
2.168290312E0,-9.901499748E0,-8.135596663E-2,1.319043487E-1,9.902712498E0
2.170716146E0,-9.939785004E0,-6.699903309E-2,1.271187067E-1,9.940823605E0
2.173142031E0,-9.932606697E0,-8.374879509E-2,1.247258782E-1,9.933742809E0
2.175567916E0,-9.927821159E0,-8.135596663E-2,1.055833027E-1,9.928715909E0
2.177993802E0,-9.927821159E0,-7.896314561E-2,9.601201117E-2,9.928599421E0
2.180419635E0,-9.901499748E0,-7.657032460E-2,9.601201117E-2,9.902261286E0
2.182845521E0,-9.891928673E0,-7.896314561E-2,8.404789865E-2,9.892600876E0
2.185271406E0,-9.889535904E0,-6.699903309E-2,7.208377868E-2,9.890025548E0
2.187697239E0,-9.891928673E0,-8.374879509E-2,8.644071966E-2,9.892660852E0
2.190123125E0,-9.889535904E0,-5.024927482E-2,7.686942816E-2,9.889962300E0
2.192549010E0,-9.906285286E0,-7.178468257E-2,5.772684515E-2,9.906713562E0
2.194974896E0,-9.899106979E0,-8.135596663E-2,6.490531564E-2,9.899654059E0
2.197400729E0,-9.906285286E0,-8.135596663E-2,5.772684515E-2,9.906787539E0
2.199826614E0,-9.901499748E0,-7.417750359E-2,5.294119939E-2,9.901919124E0
2.202252500E0,-9.887143135E0,-6.460621208E-2,4.576273263E-2,9.887460117E0
2.204678333E0,-9.923035622E0,-7.657032460E-2,3.619144112E-2,9.923397038E0
2.207104218E0,-9.920642853E0,-8.853443712E-2,4.097708687E-2,9.921122521E0
2.209530104E0,-9.913464546E0,-6.460621208E-2,3.858426586E-2,9.913750149E0
2.211955989E0,-9.911071777E0,-7.417750359E-2,3.858426586E-2,9.911424460E0
2.214381823E0,-9.925428391E0,-6.460621208E-2,3.858426586E-2,9.925713649E0
2.216807708E0,-9.896714211E0,-7.896314561E-2,4.576273263E-2,9.897135018E0
2.219233593E0,-9.915857315E0,-8.853443712E-2,4.576273263E-2,9.916358145E0
2.221659479E0,-9.899106979E0,-8.135596663E-2,5.294119939E-2,9.899582847E0
2.224085312E0,-9.930213928E0,-7.417750359E-2,4.097708687E-2,9.930575516E0
2.226511198E0,-9.913464546E0,-7.657032460E-2,3.379862010E-2,9.913817865E0
2.228937083E0,-9.906285286E0,-8.374879509E-2,3.858426586E-2,9.906714429E0
2.231362916E0,-9.896714211E0,-7.657032460E-2,3.379862010E-2,9.897068128E0
2.233788802E0,-9.915857315E0,-6.699903309E-2,6.490531564E-2,9.916296076E0
2.236214687E0,-9.884750366E0,-7.896314561E-2,7.926224917E-2,9.885383527E0
2.238640521E0,-9.923035622E0,-7.896314561E-2,6.969095767E-2,9.923594508E0
2.241066406E0,-9.911071777E0,-9.092725813E-2,7.208377868E-2,9.911750986E0
2.243492291E0,-9.903892517E0,-5.982056633E-2,8.404789865E-2,9.904429794E0
2.245918177E0,-9.896714211E0,-7.896314561E-2,7.447660714E-2,9.897309438E0
2.248344010E0,-9.918250084E0,-4.785645381E-2,9.361918271E-2,9.918807364E0
2.250769896E0,-9.906285286E0,-6.939185411E-2,1.079761237E-1,9.907116747E0
2.253195781E0,-9.901499748E0,-5.982056633E-2,1.007976532E-1,9.902193491E0
2.255621614E0,-9.937392235E0,-7.178468257E-2,8.404789865E-2,9.938006919E0
2.258047500E0,-9.930213928E0,-9.092725813E-2,8.404789865E-2,9.930985876E0
2.260473385E0,-9.930213928E0,-9.810572863E-2,1.127617657E-1,9.931338712E0
2.262899271E0,-9.906285286E0,-1.028913707E-1,1.271187067E-1,9.907635135E0
2.265325104E0,-9.882357597E0,-8.374879509E-2,1.247258782E-1,9.883499486E0
2.267750989E0,-9.896714211E0,-7.417750359E-2,1.438684613E-1,9.898037816E0
2.270176875E0,-9.908679008E0,-6.939185411E-2,1.390828192E-1,9.909898029E0
2.272602708E0,-9.937392235E0,-8.135596663E-2,1.534397453E-1,9.938909748E0
2.275028593E0,-9.920642853E0,-8.135596663E-2,1.462612897E-1,9.922054514E0
2.277454479E0,-9.937392235E0,-7.657032460E-2,1.319043487E-1,9.938562582E0
2.279880364E0,-9.911071777E0,-7.417750359E-2,1.486541033E-1,9.912464079E0
2.282306198E0,-9.908679008E0,-5.503492057E-2,1.510469317E-1,9.909983033E0
2.284732083E0,-9.899106979E0,-7.657032460E-2,1.319043487E-1,9.900281853E0
2.287157968E0,-9.913464546E0,-7.178468257E-2,1.127617657E-1,9.914365717E0
2.289583802E0,-9.913464546E0,-8.853443712E-2,8.644071966E-2,9.914236716E0
2.292009687E0,-9.903892517E0,-7.178468257E-2,9.601201117E-2,9.904618031E0
2.294435573E0,-9.918250084E0,-9.332008660E-2,9.601201117E-2,9.919153778E0
2.296861458E0,-9.911071777E0,-8.853443712E-2,9.601201117E-2,9.911932225E0
2.299287291E0,-9.908679008E0,-8.853443712E-2,1.007976532E-1,9.909587186E0
2.301713177E0,-9.896714211E0,-8.853443712E-2,1.079761237E-1,9.897699195E0
2.304139062E0,-9.901499748E0,-8.614161611E-2,1.031904742E-1,9.902412126E0
2.306564896E0,-9.930213928E0,-8.135596663E-2,9.601201117E-2,9.931011316E0
2.308990781E0,-9.901499748E0,-8.614161611E-2,9.361918271E-2,9.902317011E0
2.311416666E0,-9.901499748E0,-8.614161611E-2,7.208377868E-2,9.902136826E0
2.313842552E0,-9.894321442E0,-7.657032460E-2,6.969095767E-2,9.894863144E0
2.316268385E0,-9.927821159E0,-5.742774159E-2,7.686942816E-2,9.928284838E0
2.318694271E0,-9.915857315E0,-6.939185411E-2,5.294119939E-2,9.916241440E0
2.321120156E0,-9.896714211E0,-7.657032460E-2,5.294119939E-2,9.897152012E0
2.323545989E0,-9.906285286E0,-7.896314561E-2,4.815555736E-2,9.906717030E0
2.325971875E0,-9.882357597E0,-7.417750359E-2,4.336991161E-2,9.882731147E0
2.328397760E0,-9.884750366E0,-6.939185411E-2,5.533402413E-2,9.885148804E0
2.330823646E0,-9.911071777E0,-8.614161611E-2,6.011966988E-2,9.911628450E0
2.333249479E0,-9.932606697E0,-8.614161611E-2,2.422732860E-2,9.933009772E0
2.335675364E0,-9.915857315E0,-7.417750359E-2,2.183450572E-2,9.916158800E0
2.338101250E0,-9.903892517E0,-9.092725813E-2,4.336991161E-2,9.904404864E0
2.340527083E0,-9.879964828E0,-8.135596663E-2,4.336991161E-2,9.880394970E0
2.342952968E0,-9.889535904E0,-6.221338734E-2,2.183450572E-2,9.889755692E0
2.345378854E0,-9.887143135E0,-5.982056633E-2,5.533402413E-2,9.887478937E0
2.347804739E0,-9.932606697E0,-5.024927482E-2,6.251249462E-2,9.932930514E0
2.350230573E0,-9.920642853E0,-5.742774159E-2,6.251249462E-2,9.921006016E0
2.352656458E0,-9.930213928E0,-7.657032460E-2,8.404789865E-2,9.930864802E0
2.355082343E0,-9.930213928E0,-7.417750359E-2,8.883354068E-2,9.930888297E0
2.357508229E0,-9.918250084E0,-8.135596663E-2,9.122636169E-2,9.919003265E0
2.359934062E0,-9.915857315E0,-7.896314561E-2,8.165507019E-2,9.916507905E0
2.362359948E0,-9.901499748E0,-1.052841991E-1,7.208377868E-2,9.902321854E0
2.364785833E0,-9.923035622E0,-9.092725813E-2,7.926224917E-2,9.923768751E0
2.367211666E0,-9.896714211E0,-9.092725813E-2,7.686942816E-2,9.897430416E0
2.369637552E0,-9.872786522E0,-7.896314561E-2,6.490531564E-2,9.873315633E0
2.372063437E0,-9.884750366E0,-5.024927482E-2,5.772684515E-2,9.885046645E0
2.374489271E0,-9.906285286E0,-6.221338734E-2,6.729813665E-2,9.906709227E0
2.376915156E0,-9.906285286E0,-6.699903309E-2,6.729813665E-2,9.906740437E0
2.379341041E0,-9.889535904E0,-6.221338734E-2,8.644071966E-2,9.890109347E0
2.381766927E0,-9.923035622E0,-7.657032460E-2,9.840483218E-2,9.923818946E0
2.384192760E0,-9.915857315E0,-7.417750359E-2,1.295115203E-1,9.916980479E0
2.386618646E0,-9.901499748E0,-8.374879509E-2,1.295115203E-1,9.902700862E0
2.389044531E0,-9.908679008E0,-9.810572863E-2,1.199402362E-1,9.909890518E0
2.391470364E0,-9.932606697E0,-7.657032460E-2,1.486541033E-1,9.934014136E0
2.393896250E0,-9.927821159E0,-6.939185411E-2,1.534397453E-1,9.929249315E0
2.396322135E0,-9.908679008E0,-5.982056633E-2,1.606182158E-1,9.910161270E0
2.398748021E0,-9.920642853E0,-7.417750359E-2,1.223330572E-1,9.921674369E0
2.401173854E0,-9.920642853E0,-7.417750359E-2,1.007976532E-1,9.921432209E0
2.403599739E0,-9.908679008E0,-8.135596663E-2,8.644071966E-2,9.909390016E0
2.406025625E0,-9.915857315E0,-6.460621208E-2,9.840483218E-2,9.916556044E0
2.408451458E0,-9.920642853E0,-8.614161611E-2,9.122636169E-2,9.921436249E0
2.410877343E0,-9.918250084E0,-9.810572863E-2,1.031904742E-1,9.919272037E0
2.413303229E0,-9.901499748E0,-5.264209956E-2,9.840483218E-2,9.902128658E0
2.415729114E0,-9.918250084E0,-7.178468257E-2,9.122636169E-2,9.918929379E0
2.418154948E0,-9.920642853E0,-8.614161611E-2,8.404789865E-2,9.921372840E0
2.420580833E0,-9.906285286E0,-5.742774159E-2,7.447660714E-2,9.906731695E0
2.423006718E0,-9.903892517E0,-6.699903309E-2,8.644071966E-2,9.904496346E0
2.425432552E0,-9.908679008E0,-8.135596663E-2,8.404789865E-2,9.909369432E0
2.427858437E0,-9.920642853E0,-7.417750359E-2,6.729813665E-2,9.921148419E0
2.430284323E0,-9.901499748E0,-7.178468257E-2,6.729813665E-2,9.901988656E0
2.432710208E0,-9.920642853E0,-7.417750359E-2,6.490531564E-2,9.921132476E0
2.435136041E0,-9.896714211E0,-8.374879509E-2,5.533402413E-2,9.897223241E0
2.437561927E0,-9.901499748E0,-9.332008660E-2,5.294119939E-2,9.902081027E0
2.439987812E0,-9.920642853E0,-7.417750359E-2,4.815555736E-2,9.921037036E0
2.442413646E0,-9.899106979E0,-8.614161611E-2,2.422732860E-2,9.899511419E0
2.444839531E0,-9.896714211E0,-9.332008660E-2,6.011966988E-2,9.897336772E0
2.447265416E0,-9.903892517E0,-7.657032460E-2,5.533402413E-2,9.904343081E0
2.449691302E0,-9.915857315E0,-5.024927482E-2,5.772684515E-2,9.916152665E0
2.452117135E0,-9.934999466E0,-9.332008660E-2,6.729813665E-2,9.935665658E0
2.454543021E0,-9.930213928E0,-7.896314561E-2,6.969095767E-2,9.930772410E0
2.456968906E0,-9.879964828E0,-9.092725813E-2,8.644071966E-2,9.880761346E0
2.459394739E0,-9.901499748E0,-7.178468257E-2,8.883354068E-2,9.902158437E0
2.461820625E0,-9.925428391E0,-7.657032460E-2,8.883354068E-2,9.926121254E0
2.464246510E0,-9.901499748E0,-6.221338734E-2,7.208377868E-2,9.901957576E0
2.466672396E0,-9.913464546E0,-5.503492057E-2,7.686942816E-2,9.913915324E0
2.469098229E0,-9.918250084E0,-6.939185411E-2,9.840483218E-2,9.918980969E0
2.471524114E0,-9.908679008E0,-7.178468257E-2,9.840483218E-2,9.909427645E0
2.473950000E0,-9.906285286E0,-7.657032460E-2,9.601201117E-2,9.907046456E0
2.476375833E0,-9.918250084E0,-8.374879509E-2,9.840483218E-2,9.919091798E0
2.478801718E0,-9.915857315E0,-9.332008660E-2,1.127617657E-1,9.916937539E0
2.481227604E0,-9.925428391E0,-7.417750359E-2,1.055833027E-1,9.926267117E0
2.483653489E0,-9.891928673E0,-9.810572863E-2,1.127617657E-1,9.893057809E0
2.486079323E0,-9.915857315E0,-8.374879509E-2,1.223330572E-1,9.916965540E0
2.488505208E0,-9.901499748E0,-7.417750359E-2,1.199402362E-1,9.902503988E0
2.490931093E0,-9.920642853E0,-6.460621208E-2,1.247258782E-1,9.921637220E0
2.493356927E0,-9.899106979E0,-5.264209956E-2,1.295115203E-1,9.900094111E0
2.495782812E0,-9.925428391E0,-7.896314561E-2,1.247258782E-1,9.926526102E0
2.498208698E0,-9.932606697E0,-6.699903309E-2,1.462612897E-1,9.933909454E0
2.500634583E0,-9.915857315E0,-5.264209956E-2,1.223330572E-1,9.916751628E0
2.503060416E0,-9.884750366E0,-7.896314561E-2,1.127617657E-1,9.885708887E0
2.505486302E0,-9.932606697E0,-9.810572863E-2,1.247258782E-1,9.933874223E0
2.507912187E0,-9.896714211E0,-7.896314561E-2,1.199402362E-1,9.897755958E0
2.510338073E0,-9.915857315E0,-7.417750359E-2,1.007976532E-1,9.916647052E0
2.512763906E0,-9.899106979E0,-6.221338734E-2,1.103689447E-1,9.899917717E0
2.515189791E0,-9.894321442E0,-1.028913707E-1,1.031904742E-1,9.895394469E0
2.517615677E0,-9.930213928E0,-7.657032460E-2,1.055833027E-1,9.931070411E0
2.520041510E0,-9.901499748E0,-8.374879509E-2,1.007976532E-1,9.902366954E0
2.522467396E0,-9.908679008E0,-6.939185411E-2,8.404789865E-2,9.909278428E0
2.524893281E0,-9.875179291E0,-8.853443712E-2,6.251249462E-2,9.875774004E0
2.527319166E0,-9.908679008E0,-8.374879509E-2,4.815555736E-2,9.909149939E0
2.529745000E0,-9.934999466E0,-9.332008660E-2,6.969095767E-2,9.935682154E0
2.532170885E0,-9.915857315E0,-9.092725813E-2,3.140579537E-2,9.916323935E0
2.534596771E0,-9.918250084E0,-7.657032460E-2,4.336991161E-2,9.918640466E0
2.537022604E0,-9.906285286E0,-5.503492057E-2,3.140579537E-2,9.906487941E0
2.539448489E0,-9.908679008E0,-7.417750359E-2,3.619144112E-2,9.909022748E0
2.541874375E0,-9.896714211E0,-7.178468257E-2,4.336991161E-2,9.897069574E0
2.544300208E0,-9.891928673E0,-7.178468257E-2,4.336991161E-2,9.892284208E0
2.546726093E0,-9.918250084E0,-6.221338734E-2,5.772684515E-2,9.918613190E0
2.549151979E0,-9.906285286E0,-8.614161611E-2,6.490531564E-2,9.906872425E0
2.551577864E0,-9.906285286E0,-8.374879509E-2,6.251249462E-2,9.906836520E0
2.554003698E0,-9.927821159E0,-7.896314561E-2,6.490531564E-2,9.928347337E0
2.556429583E0,-9.896714211E0,-5.982056633E-2,5.294119939E-2,9.897036599E0
2.558855468E0,-9.911071777E0,-6.699903309E-2,6.729813665E-2,9.911526708E0
2.561281302E0,-9.891928673E0,-7.657032460E-2,6.969095767E-2,9.892470506E0
2.563707187E0,-9.901499748E0,-8.853443712E-2,8.883354068E-2,9.902294028E0
2.566133073E0,-9.901499748E0,-8.135596663E-2,9.601201117E-2,9.902299448E0
2.568558958E0,-9.915857315E0,-7.657032460E-2,9.361918271E-2,9.916594872E0
2.570984791E0,-9.915857315E0,-8.135596663E-2,9.122636169E-2,9.916610678E0
2.573410677E0,-9.918250084E0,-1.028913707E-1,1.031904742E-1,9.919320523E0
2.575836562E0,-9.923035622E0,-8.374879509E-2,1.271187067E-1,9.924203191E0
2.578262448E0,-9.923035622E0,-8.853443712E-2,1.103689447E-1,9.924044317E0
2.580688281E0,-9.884750366E0,-8.853443712E-2,1.031904742E-1,9.885685430E0
2.583114166E0,-9.896714211E0,-8.374879509E-2,1.199402362E-1,9.897795294E0
2.585540052E0,-9.903892517E0,-5.982056633E-2,1.342971772E-1,9.904983656E0
2.587965885E0,-9.925428391E0,-6.939185411E-2,1.342971772E-1,9.926579456E0
2.590391771E0,-9.932606697E0,-8.853443712E-2,1.175474152E-1,9.933696771E0
2.592817656E0,-9.915857315E0,-6.939185411E-2,1.127617657E-1,9.916741236E0
2.595243541E0,-9.877572060E0,-9.092725813E-2,1.079761237E-1,9.878580688E0
2.597669375E0,-9.903892517E0,-8.135596663E-2,9.122636169E-2,9.904646790E0
2.600095260E0,-9.918250084E0,-6.699903309E-2,1.079761237E-1,9.919064091E0
2.602521146E0,-9.913464546E0,-6.939185411E-2,9.840483218E-2,9.914195784E0
2.604946979E0,-9.937392235E0,-7.657032460E-2,9.122636169E-2,9.938105941E0
2.607372864E0,-9.927821159E0,-5.742774159E-2,1.007976532E-1,9.928498934E0
2.609798750E0,-9.918250084E0,-5.024927482E-2,9.361918271E-2,9.918819197E0
2.612224635E0,-9.913464546E0,-7.178468257E-2,8.404789865E-2,9.914080714E0
2.614650468E0,-9.899106979E0,-7.657032460E-2,7.686942816E-2,9.899701557E0
2.617076354E0,-9.911071777E0,-8.374879509E-2,7.447660714E-2,9.911705423E0
2.619502239E0,-9.891928673E0,-7.896314561E-2,7.926224917E-2,9.892561375E0
2.621928073E0,-9.891928673E0,-8.135596663E-2,8.404789865E-2,9.892620265E0
2.624353958E0,-9.913464546E0,-7.896314561E-2,1.079761237E-1,9.914367016E0
2.626779843E0,-9.884750366E0,-8.614161611E-2,1.031904742E-1,9.885664290E0
2.629205729E0,-9.899106979E0,-7.417750359E-2,1.055833027E-1,9.899947935E0
2.631631562E0,-9.891928673E0,-9.092725813E-2,1.031904742E-1,9.892884762E0
2.634057448E0,-9.891928673E0,-8.135596663E-2,1.031904742E-1,9.892801420E0
2.636483333E0,-9.884750366E0,-8.614161611E-2,9.840483218E-2,9.885615494E0
2.638909166E0,-9.894321442E0,-8.614161611E-2,9.122636169E-2,9.895116948E0
2.641335052E0,-9.877572060E0,-7.896314561E-2,8.404789865E-2,9.878245240E0
2.643760937E0,-9.901499748E0,-8.135596663E-2,1.031904742E-1,9.902371652E0
2.646186823E0,-9.901499748E0,-8.135596663E-2,9.361918271E-2,9.902276537E0
2.648612656E0,-9.918250084E0,-6.699903309E-2,8.165507019E-2,9.918812487E0
2.651038541E0,-9.884750366E0,-5.264209956E-2,9.361918271E-2,9.885333861E0
2.653464427E0,-9.908679008E0,-7.896314561E-2,8.404789865E-2,9.909350076E0
2.655890312E0,-9.891928673E0,-8.374879509E-2,8.404789865E-2,9.892640233E0
2.658316146E0,-9.891928673E0,-8.374879509E-2,9.122636169E-2,9.892703825E0
2.660742031E0,-9.915857315E0,-7.896314561E-2,6.969095767E-2,9.916416606E0
2.663167916E0,-9.934999466E0,-8.614161611E-2,8.165507019E-2,9.935708446E0
2.665593750E0,-9.884750366E0,-6.460621208E-2,7.926224917E-2,9.885279271E0
2.668019635E0,-9.908679008E0,-6.221338734E-2,7.686942816E-2,9.909172473E0
2.670445521E0,-9.901499748E0,-7.896314561E-2,7.926224917E-2,9.902131838E0
2.672871406E0,-9.901499748E0,-6.460621208E-2,5.772684515E-2,9.901878792E0
2.675297239E0,-9.913464546E0,-7.896314561E-2,5.772684515E-2,9.913947089E0
2.677723125E0,-9.911071777E0,-7.896314561E-2,5.533402413E-2,9.911540789E0
2.680149010E0,-9.891928673E0,-8.374879509E-2,7.686942816E-2,9.892581849E0
2.682574843E0,-9.901499748E0,-4.785645381E-2,7.208377868E-2,9.901877780E0
2.685000729E0,-9.906285286E0,-7.417750359E-2,7.447660714E-2,9.906842950E0
2.687426614E0,-9.903892517E0,-6.460621208E-2,6.251249462E-2,9.904300519E0
2.689852448E0,-9.906285286E0,-8.135596663E-2,5.054837838E-2,9.906748311E0
2.692278333E0,-9.882357597E0,-9.332008660E-2,6.011966988E-2,9.882981063E0
2.694704218E0,-9.908679008E0,-8.374879509E-2,3.619144112E-2,9.909099019E0
2.697130104E0,-9.913464546E0,-7.657032460E-2,7.208377868E-2,9.914022312E0
2.699555937E0,-9.906285286E0,-7.417750359E-2,7.208377868E-2,9.906825250E0
2.701981823E0,-9.903892517E0,-7.657032460E-2,6.729813665E-2,9.904417148E0
2.704407708E0,-9.891928673E0,-6.460621208E-2,8.883354068E-2,9.892538513E0
2.706833593E0,-9.901499748E0,-8.374879509E-2,1.007976532E-1,9.902366954E0
2.709259427E0,-9.901499748E0,-6.939185411E-2,9.122636169E-2,9.902163135E0
2.711685312E0,-9.901499748E0,-8.614161611E-2,9.361918271E-2,9.902317011E0
2.714111198E0,-9.891928673E0,-9.332008660E-2,1.079761237E-1,9.892958119E0
2.716537031E0,-9.896714211E0,-6.939185411E-2,1.079761237E-1,9.897546476E0
2.718962916E0,-9.887143135E0,-9.092725813E-2,1.127617657E-1,9.888204203E0
2.721388802E0,-9.927821159E0,-7.178468257E-2,1.271187067E-1,9.928894459E0
2.723814687E0,-9.920642853E0,-8.135596663E-2,1.295115203E-1,9.921821740E0
2.726240521E0,-9.915857315E0,-7.657032460E-2,1.175474152E-1,9.916849636E0
2.728666406E0,-9.884750366E0,-7.896314561E-2,1.079761237E-1,9.885655457E0
2.731092291E0,-9.901499748E0,-6.939185411E-2,1.295115203E-1,9.902589850E0
2.733518125E0,-9.911071777E0,-6.460621208E-2,1.342971772E-1,9.912192163E0
2.735944010E0,-9.908679008E0,-6.939185411E-2,1.175474152E-1,9.909619181E0
2.738369896E0,-9.908679008E0,-7.178468257E-2,1.295115203E-1,9.909785364E0
2.740795781E0,-9.894321442E0,-7.896314561E-2,1.295115203E-1,9.895484081E0
2.743221614E0,-9.899106979E0,-6.939185411E-2,1.247258782E-1,9.900135896E0
2.745647500E0,-9.901499748E0,-7.896314561E-2,1.151545867E-1,9.902484184E0
2.748073385E0,-9.911071777E0,-7.417750359E-2,1.103689447E-1,9.911963851E0
2.750499218E0,-9.911071777E0,-7.417750359E-2,1.127617657E-1,9.911990784E0
2.752925104E0,-9.915857315E0,-7.178468257E-2,1.223330572E-1,9.916871720E0
2.755350989E0,-9.908679008E0,-8.614161611E-2,1.007976532E-1,9.909566097E0
2.757776823E0,-9.899106979E0,-6.221338734E-2,1.079761237E-1,9.899891330E0
2.760202708E0,-9.923035622E0,-8.135596663E-2,9.601201117E-2,9.923833586E0
2.762628593E0,-9.908679008E0,-8.374879509E-2,9.361918271E-2,9.909475168E0
2.765054479E0,-9.925428391E0,-8.135596663E-2,1.007976532E-1,9.926273606E0
2.767480312E0,-9.891928673E0,-6.460621208E-2,9.361918271E-2,9.892582645E0
2.769906198E0,-9.915857315E0,-7.657032460E-2,7.447660714E-2,9.916432628E0
2.772332083E0,-9.891928673E0,-7.417750359E-2,8.883354068E-2,9.892605651E0
2.774757916E0,-9.882357597E0,-8.614161611E-2,8.165507019E-2,9.883070353E0
2.777183802E0,-9.899106979E0,-8.853443712E-2,9.361918271E-2,9.899945550E0
2.779609687E0,-9.915857315E0,-8.614161611E-2,8.165507019E-2,9.916567663E0
2.782035573E0,-9.913464546E0,-9.092725813E-2,6.490531564E-2,9.914093997E0
2.784461406E0,-9.920642853E0,-8.614161611E-2,8.644071966E-2,9.921393400E0
2.786887291E0,-9.899106979E0,-8.853443712E-2,6.729813665E-2,9.899731631E0
2.789313177E0,-9.887143135E0,-6.699903309E-2,4.336991161E-2,9.887465256E0
2.791739062E0,-9.891928673E0,-7.178468257E-2,6.251249462E-2,9.892386654E0
2.794164896E0,-9.884750366E0,-6.221338734E-2,4.576273263E-2,9.885052076E0
2.796590781E0,-9.889535904E0,-7.657032460E-2,5.294119939E-2,9.889974023E0
2.799016666E0,-9.925428391E0,-7.417750359E-2,4.576273263E-2,9.925811063E0
2.801442500E0,-9.889535904E0,-7.657032460E-2,4.576273263E-2,9.889938202E0
2.803868385E0,-9.891928673E0,-7.896314561E-2,2.662015148E-2,9.892279650E0
2.806294271E0,-9.882357597E0,-7.896314561E-2,4.336991161E-2,9.882768226E0
2.808720156E0,-9.896714211E0,-9.810572863E-2,5.533402413E-2,9.897355139E0
2.811145989E0,-9.875179291E0,-9.332008660E-2,2.422732860E-2,9.875649934E0
2.813571875E0,-9.901499748E0,-6.939185411E-2,2.901297435E-2,9.901785407E0
2.815997760E0,-9.882357597E0,-5.264209956E-2,1.226321608E-2,9.882505414E0
2.818423593E0,-9.906285286E0,-8.614161611E-2,4.336991161E-2,9.906754741E0
2.820849479E0,-9.906285286E0,-8.135596663E-2,5.294119939E-2,9.906760809E0
2.823275364E0,-9.911071777E0,-8.135596663E-2,5.294119939E-2,9.911547071E0
2.825701250E0,-9.925428391E0,-8.614161611E-2,6.969095767E-2,9.926046844E0
2.828127083E0,-9.906285286E0,-6.221338734E-2,6.011966988E-2,9.906663063E0
2.830552968E0,-9.915857315E0,-8.374879509E-2,6.490531564E-2,9.916423390E0
2.832978854E0,-9.913464546E0,-7.178468257E-2,6.490531564E-2,9.913936910E0
2.835404687E0,-9.889535904E0,-6.460621208E-2,7.926224917E-2,9.890064553E0
2.837830573E0,-9.920642853E0,-7.896314561E-2,7.926224917E-2,9.921273723E0
2.840256458E0,-9.925428391E0,-7.178468257E-2,7.208377868E-2,9.925949720E0
2.842682343E0,-9.923035622E0,-7.417750359E-2,6.729813665E-2,9.923541066E0
2.845108177E0,-9.903892517E0,-8.853443712E-2,7.447660714E-2,9.904568244E0
2.847534062E0,-9.903892517E0,-1.028913707E-1,6.490531564E-2,9.904639636E0
2.849959948E0,-9.911071777E0,-7.896314561E-2,6.729813665E-2,9.911614803E0
2.852385781E0,-9.908679008E0,-7.417750359E-2,7.208377868E-2,9.909218842E0
2.854811666E0,-9.896714211E0,-5.503492057E-2,9.361918271E-2,9.897310016E0
2.857237552E0,-9.911071777E0,-8.614161611E-2,1.103689447E-1,9.912060606E0
2.859663437E0,-9.918250084E0,-7.657032460E-2,1.414756328E-1,9.919554582E0
2.862089271E0,-9.903892517E0,-7.896314561E-2,1.223330572E-1,9.904962774E0
2.864515156E0,-9.899106979E0,-7.178468257E-2,1.390828192E-1,9.900344239E0
2.866941041E0,-9.887143135E0,-9.332008660E-2,1.390828192E-1,9.888561677E0
2.869366875E0,-9.923035622E0,-8.614161611E-2,1.486541033E-1,9.924522879E0
2.871792760E0,-9.908679008E0,-8.853443712E-2,1.438684613E-1,9.910118878E0
2.874218646E0,-9.915857315E0,-6.699903309E-2,1.462612897E-1,9.917162272E0
2.876644531E0,-9.915857315E0,-8.853443712E-2,1.486541033E-1,9.917366721E0
2.879070364E0,-9.899106979E0,-8.374879509E-2,1.271187067E-1,9.900277371E0
2.881496250E0,-9.908679008E0,-5.503492057E-2,8.883354068E-2,9.909230037E0
2.883922135E0,-9.901499748E0,-8.853443712E-2,1.031904742E-1,9.902433231E0
2.886348021E0,-9.903892517E0,-6.699903309E-2,9.840483218E-2,9.904607987E0
2.888773854E0,-9.934999466E0,-6.221338734E-2,8.404789865E-2,9.935549755E0
2.891199739E0,-9.918250084E0,-7.178468257E-2,9.840483218E-2,9.918997998E0
2.893625625E0,-9.891928673E0,-6.460621208E-2,8.883354068E-2,9.892538513E0
2.896051458E0,-9.925428391E0,-7.657032460E-2,9.840483218E-2,9.926211526E0
2.898477343E0,-9.896714211E0,-8.374879509E-2,8.644071966E-2,9.897446035E0
2.900903229E0,-9.915857315E0,-8.614161611E-2,9.361918271E-2,9.916673395E0
2.903329114E0,-9.913464546E0,-8.853443712E-2,7.926224917E-2,9.914176726E0
2.905754948E0,-9.908679008E0,-8.853443712E-2,8.883354068E-2,9.909472712E0
2.908180833E0,-9.927821159E0,-7.896314561E-2,1.031904742E-1,9.928671433E0
2.910606718E0,-9.915857315E0,-6.939185411E-2,9.122636169E-2,9.916519741E0
2.913032552E0,-9.911071777E0,-6.221338734E-2,7.208377868E-2,9.911529163E0
2.915458437E0,-9.923035622E0,-7.657032460E-2,4.815555736E-2,9.923447885E0
2.917884323E0,-9.903892517E0,-8.853443712E-2,5.533402413E-2,9.904442801E0
2.920310208E0,-9.908679008E0,-7.178468257E-2,3.858426586E-2,9.909014153E0
2.922736041E0,-9.903892517E0,-6.460621208E-2,2.662015148E-2,9.904139013E0
2.925161927E0,-9.899106979E0,-6.699903309E-2,3.858426586E-2,9.899408902E0
2.927587812E0,-9.889535904E0,-7.657032460E-2,4.097708687E-2,9.889917216E0
2.930013646E0,-9.875179291E0,-6.221338734E-2,3.858426586E-2,9.875450637E0
2.932439531E0,-9.877572060E0,-8.853443712E-2,7.447660714E-2,9.878249587E0
2.934865416E0,-9.908679008E0,-7.896314561E-2,6.251249462E-2,9.909190819E0
2.937291302E0,-9.903892517E0,-6.699903309E-2,4.815555736E-2,9.904236206E0
2.939717135E0,-9.891928673E0,-9.092725813E-2,6.969095767E-2,9.892592050E0
2.942143021E0,-9.913464546E0,-9.332008660E-2,8.404789865E-2,9.914260033E0
2.944568906E0,-9.908679008E0,-5.982056633E-2,7.208377868E-2,9.909121771E0
2.946994739E0,-9.882357597E0,-7.657032460E-2,7.447660714E-2,9.882934861E0
2.949420625E0,-9.884750366E0,-6.699903309E-2,8.165507019E-2,9.885314675E0
2.951846510E0,-9.868000984E0,-7.417750359E-2,8.404789865E-2,9.868637686E0
2.954272396E0,-9.887143135E0,-9.092725813E-2,5.772684515E-2,9.887729746E0
2.956698229E0,-9.908679008E0,-6.460621208E-2,5.772684515E-2,9.909057778E0
2.959124114E0,-9.913464546E0,-8.374879509E-2,9.122636169E-2,9.914238015E0
2.961550000E0,-9.908679008E0,-7.178468257E-2,1.079761237E-1,9.909527314E0
2.963975833E0,-9.918250084E0,-5.742774159E-2,8.644071966E-2,9.918793005E0
2.966401718E0,-9.899106979E0,-7.657032460E-2,1.199402362E-1,9.900129679E0
2.968827604E0,-9.891928673E0,-6.939185411E-2,1.007976532E-1,9.892685594E0
2.971253489E0,-9.918250084E0,-7.657032460E-2,9.840483218E-2,9.919033786E0
2.973679323E0,-9.906285286E0,-7.657032460E-2,1.103689447E-1,9.907195995E0
2.976105208E0,-9.887143135E0,-7.178468257E-2,1.031904742E-1,9.887942187E0
2.978531093E0,-9.891928673E0,-7.657032460E-2,1.055833027E-1,9.892788470E0
2.980956927E0,-9.901499748E0,-8.374879509E-2,1.055833027E-1,9.902416824E0
2.983382812E0,-9.891928673E0,-6.699903309E-2,1.079761237E-1,9.892744846E0
2.985808698E0,-9.913464546E0,-6.221338734E-2,8.644071966E-2,9.914036605E0
2.988234583E0,-9.901499748E0,-7.417750359E-2,9.601201117E-2,9.902243073E0
2.990660416E0,-9.889535904E0,-7.896314561E-2,8.883354068E-2,9.890250097E0
2.993086302E0,-9.901499748E0,-7.657032460E-2,8.644071966E-2,9.902173109E0
2.995512187E0,-9.906285286E0,-9.092725813E-2,9.840483218E-2,9.907191299E0
2.997938021E0,-9.891928673E0,-7.178468257E-2,8.883354068E-2,9.892587998E0
3.000363906E0,-9.908679008E0,-8.135596663E-2,8.644071966E-2,9.909390016E0
3.002789791E0,-9.908679008E0,-6.699903309E-2,7.686942816E-2,9.909203675E0
3.005215677E0,-9.911071777E0,-8.374879509E-2,9.601201117E-2,9.911890634E0
3.007641510E0,-9.913464546E0,-7.896314561E-2,1.007976532E-1,9.914291435E0
3.010067396E0,-9.884750366E0,-7.657032460E-2,8.644071966E-2,9.885424868E0
3.012493281E0,-9.920642853E0,-6.939185411E-2,8.165507019E-2,9.921221568E0
3.014919166E0,-9.913464546E0,-6.699903309E-2,7.686942816E-2,9.913988959E0
3.017345000E0,-9.920642853E0,-7.657032460E-2,1.007976532E-1,9.921450388E0
3.019770885E0,-9.899106979E0,-6.939185411E-2,6.490531564E-2,9.899562966E0
3.022196771E0,-9.877572060E0,-7.417750359E-2,6.969095767E-2,9.878096422E0
3.024622604E0,-9.908679008E0,-8.135596663E-2,6.490531564E-2,9.909225559E0
3.027048489E0,-9.899106979E0,-6.939185411E-2,5.772684515E-2,9.899518504E0
3.029474375E0,-9.903892517E0,-1.076770201E-1,5.294119939E-2,9.904619331E0
3.031900208E0,-9.913464546E0,-9.332008660E-2,7.447660714E-2,9.914183512E0
3.034326093E0,-9.925428391E0,-7.178468257E-2,6.729813665E-2,9.925916120E0
3.036751979E0,-9.891928673E0,-8.614161611E-2,5.772684515E-2,9.892472170E0
3.039177864E0,-9.887143135E0,-8.614161611E-2,7.208377868E-2,9.887781137E0
3.041603698E0,-9.939785004E0,-7.896314561E-2,7.926224917E-2,9.940414659E0
3.044029583E0,-9.913464546E0,-9.092725813E-2,8.404789865E-2,9.914237798E0
3.046455468E0,-9.915857315E0,-7.657032460E-2,8.644071966E-2,9.916529701E0
3.048881354E0,-9.894321442E0,-5.742774159E-2,8.644071966E-2,9.894865675E0
3.051307187E0,-9.915857315E0,-7.657032460E-2,9.840483218E-2,9.916641206E0
3.053733073E0,-9.896714211E0,-7.178468257E-2,9.122636169E-2,9.897394983E0
3.056158958E0,-9.913464546E0,-8.614161611E-2,1.103689447E-1,9.914453136E0
3.058584791E0,-9.918250084E0,-9.092725813E-2,9.601201117E-2,9.919131555E0
3.061010677E0,-9.889535904E0,-6.460621208E-2,9.361918271E-2,9.890190034E0
3.063436562E0,-9.908679008E0,-9.571290761E-2,9.601201117E-2,9.909606398E0
3.065862448E0,-9.934999466E0,-7.178468257E-2,8.404789865E-2,9.935614298E0
3.068288281E0,-9.920642853E0,-9.332008660E-2,7.447660714E-2,9.921361299E0
3.070714166E0,-9.911071777E0,-7.896314561E-2,9.840483218E-2,9.911874821E0
3.073140052E0,-9.906285286E0,-8.614161611E-2,1.007976532E-1,9.907172589E0
3.075565885E0,-9.882357597E0,-7.178468257E-2,1.103689447E-1,9.883234593E0
3.077991771E0,-9.906285286E0,-7.657032460E-2,7.926224917E-2,9.906898288E0
3.080417656E0,-9.927821159E0,-5.982056633E-2,8.644071966E-2,9.928377686E0
3.082843541E0,-9.906285286E0,-8.135596663E-2,1.007976532E-1,9.907132134E0
3.085269375E0,-9.906285286E0,-8.614161611E-2,1.151545867E-1,9.907329061E0
3.087695260E0,-9.882357597E0,-8.135596663E-2,1.007976532E-1,9.883206496E0
3.090121146E0,-9.915857315E0,-7.896314561E-2,1.007976532E-1,9.916684004E0
3.092546979E0,-9.884750366E0,-9.092725813E-2,1.079761237E-1,9.885758262E0
3.094972864E0,-9.915857315E0,-9.092725813E-2,1.151545867E-1,9.916942807E0
3.097398750E0,-9.911071777E0,-7.896314561E-2,9.840483218E-2,9.911874821E0
3.099824635E0,-9.911071777E0,-7.896314561E-2,1.055833027E-1,9.911948688E0
3.102250468E0,-9.913464546E0,-6.221338734E-2,8.165507019E-2,9.913996034E0
3.104676354E0,-9.918250084E0,-6.460621208E-2,1.127617657E-1,9.919101467E0
3.107102239E0,-9.906285286E0,-8.614161611E-2,9.361918271E-2,9.907102154E0
3.109528073E0,-9.901499748E0,-7.178468257E-2,9.361918271E-2,9.902202526E0
3.111953958E0,-9.906285286E0,-7.178468257E-2,8.883354068E-2,9.906943656E0
3.114379843E0,-9.901499748E0,-6.221338734E-2,9.361918271E-2,9.902137765E0
3.116805729E0,-9.918250084E0,-6.939185411E-2,7.926224917E-2,9.918809528E0
3.119231562E0,-9.918250084E0,-9.092725813E-2,7.926224917E-2,9.918983567E0
3.121657448E0,-9.927821159E0,-9.810572863E-2,7.447660714E-2,9.928585220E0
3.124083333E0,-9.908679008E0,-9.571290761E-2,7.686942816E-2,9.909439417E0
3.126509166E0,-9.908679008E0,-1.004985496E-1,6.011966988E-2,9.909371021E0
3.128935052E0,-9.911071777E0,-8.374879509E-2,7.686942816E-2,9.911723692E0
3.131360937E0,-9.887143135E0,-6.460621208E-2,8.644071966E-2,9.887732062E0
3.133786823E0,-9.896714211E0,-7.896314561E-2,6.969095767E-2,9.897274583E0
3.136212656E0,-9.918250084E0,-8.135596663E-2,5.772684515E-2,9.918751731E0
3.138638541E0,-9.889535904E0,-7.417750359E-2,6.011966988E-2,9.889996819E0
3.141064427E0,-9.932606697E0,-9.810572863E-2,6.969095767E-2,9.933335661E0
3.143490260E0,-9.901499748E0,-6.699903309E-2,5.294119939E-2,9.901867950E0
3.145916146E0,-9.911071777E0,-7.657032460E-2,6.251249462E-2,9.911564690E0
3.148342031E0,-9.911071777E0,-5.503492057E-2,6.490531564E-2,9.911437097E0
3.150767916E0,-9.889535904E0,-7.657032460E-2,8.404789865E-2,9.890189455E0
3.153193750E0,-9.903892517E0,-7.657032460E-2,6.969095767E-2,9.904433696E0
3.155619635E0,-9.927821159E0,-8.374879509E-2,6.969095767E-2,9.928418991E0
3.158045521E0,-9.901499748E0,-6.221338734E-2,4.815555736E-2,9.901812295E0
3.160471406E0,-9.887143135E0,-8.614161611E-2,6.011966988E-2,9.887701155E0
3.162897239E0,-9.913464546E0,-4.785645381E-2,5.533402413E-2,9.913734483E0
3.165323125E0,-9.908679008E0,-8.135596663E-2,6.729813665E-2,9.909241521E0
3.167749010E0,-9.918250084E0,-7.896314561E-2,5.533402413E-2,9.918718756E0
3.170174843E0,-9.887143135E0,-7.896314561E-2,5.533402413E-2,9.887613282E0
3.172600729E0,-9.906285286E0,-8.853443712E-2,6.251249462E-2,9.906878132E0
3.175026614E0,-9.918250084E0,-7.417750359E-2,6.490531564E-2,9.918739826E0
3.177452448E0,-9.894321442E0,-5.742774159E-2,9.840483218E-2,9.894977425E0
3.179878333E0,-9.896714211E0,-6.939185411E-2,1.103689447E-1,9.897572869E0
3.182304218E0,-9.899106979E0,-7.178468257E-2,1.031904742E-1,9.899905065E0
3.184730104E0,-9.884750366E0,-7.178468257E-2,1.079761237E-1,9.885600725E0
3.187155937E0,-9.927821159E0,-7.896314561E-2,1.055833027E-1,9.928696590E0
3.189581823E0,-9.884750366E0,-7.657032460E-2,8.644071966E-2,9.885424868E0
3.192007708E0,-9.901499748E0,-8.853443712E-2,8.644071966E-2,9.902272851E0
3.194433541E0,-9.894321442E0,-7.178468257E-2,1.007976532E-1,9.895095250E0
3.196859427E0,-9.906285286E0,-5.742774159E-2,1.007976532E-1,9.906964534E0
3.199285312E0,-9.911071777E0,-6.699903309E-2,9.361918271E-2,9.911740372E0
3.201711198E0,-9.896714211E0,-9.571290761E-2,1.151545867E-1,9.897846923E0
3.204137031E0,-9.911071777E0,-7.896314561E-2,1.031904742E-1,9.911923488E0
3.206562916E0,-9.882357597E0,-5.264209956E-2,1.127617657E-1,9.883141104E0
3.208988802E0,-9.868000984E0,-4.307080805E-2,8.644071966E-2,9.868473566E0
3.211414687E0,-9.887143135E0,-7.657032460E-2,8.165507019E-2,9.887776795E0
3.213840521E0,-9.915857315E0,-7.657032460E-2,9.122636169E-2,9.916572571E0
3.216266406E0,-9.891928673E0,-6.699903309E-2,9.122636169E-2,9.892576206E0
3.218692291E0,-9.896714211E0,-9.332008660E-2,9.122636169E-2,9.897574605E0
3.221118125E0,-9.911071777E0,-6.460621208E-2,1.151545867E-1,9.911951287E0
3.223544010E0,-9.934999466E0,-6.939185411E-2,9.122636169E-2,9.935660616E0
3.225969896E0,-9.915857315E0,-7.657032460E-2,9.840483218E-2,9.916641206E0
3.228395781E0,-9.889535904E0,-7.896314561E-2,5.772684515E-2,9.890019614E0
3.230821614E0,-9.911071777E0,-7.896314561E-2,6.729813665E-2,9.911614803E0
3.233247500E0,-9.911071777E0,-7.178468257E-2,6.011966988E-2,9.911514072E0
3.235673385E0,-9.918250084E0,-7.896314561E-2,5.533402413E-2,9.918718756E0
3.238099218E0,-9.925428391E0,-8.614161611E-2,5.772684515E-2,9.925970053E0
3.240525104E0,-9.918250084E0,-8.853443712E-2,6.251249462E-2,9.918842215E0
3.242950989E0,-9.911071777E0,-9.092725813E-2,4.097708687E-2,9.911573572E0
3.245376875E0,-9.918250084E0,-8.374879509E-2,5.533402413E-2,9.918758009E0
3.247802708E0,-9.879964828E0,-7.417750359E-2,5.533402413E-2,9.880398229E0
3.250228593E0,-9.908679008E0,-7.896314561E-2,5.054837838E-2,9.909122565E0
3.252654479E0,-9.911071777E0,-6.939185411E-2,6.729813665E-2,9.911543172E0
3.255080312E0,-9.894321442E0,-6.939185411E-2,5.533402413E-2,9.894719494E0
3.257506198E0,-9.896714211E0,-6.460621208E-2,7.447660714E-2,9.897205307E0
3.259932083E0,-9.920642853E0,-9.571290761E-2,7.447660714E-2,9.921384094E0
3.262357968E0,-9.920642853E0,-6.699903309E-2,7.686942816E-2,9.921166887E0
3.264783802E0,-9.908679008E0,-8.135596663E-2,7.447660714E-2,9.909292873E0
3.267209687E0,-9.908679008E0,-1.028913707E-1,6.729813665E-2,9.909441728E0
3.269635573E0,-9.918250084E0,-9.092725813E-2,6.729813665E-2,9.918895177E0
3.272061406E0,-9.899106979E0,-8.135596663E-2,8.404789865E-2,9.899798070E0
3.274487291E0,-9.920642853E0,-8.135596663E-2,6.251249462E-2,9.921173379E0
3.276913177E0,-9.911071777E0,-7.657032460E-2,7.686942816E-2,9.911665637E0
3.279339062E0,-9.911071777E0,-6.699903309E-2,7.926224917E-2,9.911615164E0
3.281764896E0,-9.906285286E0,-7.178468257E-2,8.165507019E-2,9.906881889E0
3.284190781E0,-9.906285286E0,-8.614161611E-2,6.969095767E-2,9.906904934E0
3.286616666E0,-9.906285286E0,-7.178468257E-2,3.858426586E-2,9.906620511E0
3.289042500E0,-9.908679008E0,-8.374879509E-2,6.251249462E-2,9.909230110E0
3.291468385E0,-9.894321442E0,-6.460621208E-2,6.251249462E-2,9.894729838E0
3.293894271E0,-9.911071777E0,-9.332008660E-2,7.686942816E-2,9.911809185E0
3.296320156E0,-9.884750366E0,-9.571290761E-2,8.883354068E-2,9.885612887E0
3.298745989E0,-9.875179291E0,-7.178468257E-2,9.601201117E-2,9.875906914E0
3.301171875E0,-9.927821159E0,-8.135596663E-2,7.447660714E-2,9.928433841E0
3.303597760E0,-9.927821159E0,-8.614161611E-2,6.729813665E-2,9.928422956E0
3.306023646E0,-9.934999466E0,-5.982056633E-2,6.969095767E-2,9.935423983E0
3.308449479E0,-9.923035622E0,-6.221338734E-2,8.883354068E-2,9.923628260E0
3.310875364E0,-9.918250084E0,-7.417750359E-2,8.165507019E-2,9.918863573E0
3.313301250E0,-9.896714211E0,-5.742774159E-2,6.490531564E-2,9.897093655E0
3.315727083E0,-9.913464546E0,-7.417750359E-2,6.490531564E-2,9.913954524E0
3.318152968E0,-9.915857315E0,-8.374879509E-2,3.619144112E-2,9.916277022E0
3.320578854E0,-9.894321442E0,-9.571290761E-2,5.054837838E-2,9.894913486E0
3.323004739E0,-9.911071777E0,-6.460621208E-2,6.490531564E-2,9.911494864E0
3.325430573E0,-9.903892517E0,-7.178468257E-2,7.447660714E-2,9.904432684E0
3.327856458E0,-9.896714211E0,-6.699903309E-2,9.840483218E-2,9.897430199E0
3.330282343E0,-9.903892517E0,-9.332008660E-2,1.055833027E-1,9.904894924E0
3.332708177E0,-9.877572060E0,-8.614161611E-2,1.031904742E-1,9.878486648E0
3.335134062E0,-9.891928673E0,-7.178468257E-2,1.127617657E-1,9.892831805E0
3.337559948E0,-9.903892517E0,-7.896314561E-2,1.055833027E-1,9.904770063E0
3.339985833E0,-9.906285286E0,-6.460621208E-2,1.103689447E-1,9.907110751E0
3.342411666E0,-9.906285286E0,-7.417750359E-2,9.122636169E-2,9.906983028E0
3.344837552E0,-9.925428391E0,-8.614161611E-2,9.840483218E-2,9.926289973E0
3.347263437E0,-9.901499748E0,-7.178468257E-2,8.883354068E-2,9.902158437E0
3.349689271E0,-9.915857315E0,-8.614161611E-2,7.926224917E-2,9.916548249E0
3.352115156E0,-9.937392235E0,-8.135596663E-2,8.644071966E-2,9.938101188E0
3.354541041E0,-9.894321442E0,-6.939185411E-2,9.361918271E-2,9.895007659E0
3.356966927E0,-9.901499748E0,-7.896314561E-2,8.404789865E-2,9.902171302E0
3.359392760E0,-9.882357597E0,-6.939185411E-2,6.969095767E-2,9.882846945E0
3.361818646E0,-9.889535904E0,-7.178468257E-2,8.165507019E-2,9.890133517E0
3.364244531E0,-9.911071777E0,-8.853443712E-2,6.251249462E-2,9.911664337E0
3.366670364E0,-9.899106979E0,-7.896314561E-2,6.969095767E-2,9.899667216E0
3.369096250E0,-9.927821159E0,-7.417750359E-2,5.772684515E-2,9.928266095E0
3.371522135E0,-9.899106979E0,-7.417750359E-2,6.729813665E-2,9.899613646E0
3.373948021E0,-9.903892517E0,-7.178468257E-2,6.011966988E-2,9.904335132E0
3.376373854E0,-9.879964828E0,-8.614161611E-2,7.686942816E-2,9.880639367E0
3.378799739E0,-9.896714211E0,-8.853443712E-2,7.208377868E-2,9.897372711E0
3.381225625E0,-9.920642853E0,-6.939185411E-2,6.490531564E-2,9.921097850E0
3.383651458E0,-9.903892517E0,-7.657032460E-2,7.926224917E-2,9.904505667E0
3.386077343E0,-9.903892517E0,-4.546362907E-2,6.011966988E-2,9.904179335E0
3.388503229E0,-9.920642853E0,-5.742774159E-2,6.251249462E-2,9.921006016E0
3.390929114E0,-9.894321442E0,-7.896314561E-2,6.011966988E-2,9.894819167E0
3.393354948E0,-9.887143135E0,-1.004985496E-1,8.644071966E-2,9.888031722E0
3.395780833E0,-9.875179291E0,-8.614161611E-2,5.772684515E-2,9.875723710E0
3.398206718E0,-9.908679008E0,-8.135596663E-2,7.926224917E-2,9.909329997E0
3.400632604E0,-9.908679008E0,-7.657032460E-2,8.404789865E-2,9.909331297E0
3.403058437E0,-9.911071777E0,-9.092725813E-2,7.208377868E-2,9.911750986E0
3.405484323E0,-9.901499748E0,-8.614161611E-2,8.165507019E-2,9.902211126E0
3.407910208E0,-9.903892517E0,-9.332008660E-2,8.644071966E-2,9.904709366E0
3.410336041E0,-9.908679008E0,-7.657032460E-2,8.883354068E-2,9.909373043E0
3.412761927E0,-9.903892517E0,-8.135596663E-2,9.361918271E-2,9.904669118E0
3.415187812E0,-9.903892517E0,-7.178468257E-2,1.055833027E-1,9.904715436E0
3.417613646E0,-9.896714211E0,-6.939185411E-2,8.883354068E-2,9.897356152E0
3.420039531E0,-9.911071777E0,-8.374879509E-2,7.926224917E-2,9.911742538E0
3.422465416E0,-9.927821159E0,-8.853443712E-2,1.031904742E-1,9.928752167E0
3.424891302E0,-9.911071777E0,-7.417750359E-2,1.007976532E-1,9.911861896E0
3.427317135E0,-9.923035622E0,-7.178468257E-2,8.883354068E-2,9.923692881E0
3.429743021E0,-9.896714211E0,-8.374879509E-2,8.644071966E-2,9.897446035E0
3.432168906E0,-9.918250084E0,-6.939185411E-2,1.055833027E-1,9.919054783E0
3.434594739E0,-9.930213928E0,-8.135596663E-2,1.007976532E-1,9.931058736E0
3.437020625E0,-9.913464546E0,-7.657032460E-2,8.644071966E-2,9.914137094E0
3.439446510E0,-9.889535904E0,-5.742774159E-2,8.404789865E-2,9.890059777E0
3.441872396E0,-9.918250084E0,-5.742774159E-2,9.361918271E-2,9.918858161E0
3.444298229E0,-9.913464546E0,-7.657032460E-2,9.361918271E-2,9.914202281E0
3.446724114E0,-9.901499748E0,-1.052841991E-1,1.031904742E-1,9.902597149E0
3.449150000E0,-9.903892517E0,-8.614161611E-2,8.165507019E-2,9.904603723E0
3.451575833E0,-9.911071777E0,-9.092725813E-2,7.926224917E-2,9.911805791E0
3.454001718E0,-9.901499748E0,-7.896314561E-2,7.686942816E-2,9.902112974E0
3.456427604E0,-9.891928673E0,-5.024927482E-2,9.122636169E-2,9.892476945E0
3.458853489E0,-9.901499748E0,-6.939185411E-2,6.969095767E-2,9.901988150E0
3.461279323E0,-9.879964828E0,-8.853443712E-2,6.490531564E-2,9.880574683E0
3.463705208E0,-9.903892517E0,-8.853443712E-2,6.969095767E-2,9.904533415E0
3.466131093E0,-9.906285286E0,-7.417750359E-2,6.490531564E-2,9.906775619E0
3.468556979E0,-9.913464546E0,-8.614161611E-2,6.011966988E-2,9.914021084E0
3.470982812E0,-9.901499748E0,-9.332008660E-2,6.969095767E-2,9.902184745E0
3.473408698E0,-9.894321442E0,-1.076770201E-1,6.251249462E-2,9.895104797E0
3.475834583E0,-9.896714211E0,-7.896314561E-2,6.011966988E-2,9.897211815E0
3.478260416E0,-9.911071777E0,-7.178468257E-2,5.054837838E-2,9.911460637E0
3.480686302E0,-9.911071777E0,-6.699903309E-2,6.729813665E-2,9.911526708E0
3.483112187E0,-9.903892517E0,-6.939185411E-2,6.490531564E-2,9.904348283E0
3.485538073E0,-9.896714211E0,-7.657032460E-2,7.447660714E-2,9.897290637E0
3.487963906E0,-9.923035622E0,-8.135596663E-2,7.447660714E-2,9.923648599E0
3.490389791E0,-9.889535904E0,-7.417750359E-2,7.686942816E-2,9.890112821E0
3.492815677E0,-9.913464546E0,-9.571290761E-2,6.729813665E-2,9.914154997E0
3.495241562E0,-9.894321442E0,-9.332008660E-2,5.772684515E-2,9.894929905E0
3.497667396E0,-9.920642853E0,-8.374879509E-2,8.165507019E-2,9.921332371E0
3.500093281E0,-9.899106979E0,-6.699903309E-2,6.011966988E-2,9.899516263E0
3.502519166E0,-9.884750366E0,-8.853443712E-2,8.644071966E-2,9.885524779E0
3.504945000E0,-9.915857315E0,-8.614161611E-2,1.031904742E-1,9.916768372E0
3.507370885E0,-9.889535904E0,-6.939185411E-2,9.361918271E-2,9.890222453E0
3.509796771E0,-9.906285286E0,-7.178468257E-2,8.883354068E-2,9.906943656E0
3.512222604E0,-9.899106979E0,-8.614161611E-2,8.883354068E-2,9.899880341E0
3.514648489E0,-9.915857315E0,-5.742774159E-2,1.223330572E-1,9.916778187E0
3.517074375E0,-9.903892517E0,-7.896314561E-2,1.103689447E-1,9.904822233E0
3.519500260E0,-9.899106979E0,-6.221338734E-2,1.175474152E-1,9.900000348E0
3.521926093E0,-9.906285286E0,-6.699903309E-2,1.175474152E-1,9.907209215E0
3.524351979E0,-9.903892517E0,-8.614161611E-2,1.055833027E-1,9.904829893E0
3.526777864E0,-9.911071777E0,-6.939185411E-2,1.199402362E-1,9.912040389E0
3.529203698E0,-9.923035622E0,-9.092725813E-2,1.366899908E-1,9.924393577E0
3.531629583E0,-9.927821159E0,-7.178468257E-2,9.840483218E-2,9.928568352E0
3.534055468E0,-9.920642853E0,-7.178468257E-2,1.151545867E-1,9.921570855E0
3.536481354E0,-9.911071777E0,-7.417750359E-2,1.055833027E-1,9.911911718E0
3.538907187E0,-9.901499748E0,-6.699903309E-2,1.127617657E-1,9.902368472E0
3.541333073E0,-9.920642853E0,-8.135596663E-2,1.175474152E-1,9.921672782E0
3.543758958E0,-9.901499748E0,-7.178468257E-2,1.079761237E-1,9.902348668E0
3.546184843E0,-9.899106979E0,-6.699903309E-2,9.840483218E-2,9.899822795E0
3.548610677E0,-9.903892517E0,-6.460621208E-2,1.223330572E-1,9.904858723E0
3.551036562E0,-9.889535904E0,-7.896314561E-2,1.055833027E-1,9.890414724E0
3.553462448E0,-9.889535904E0,-6.939185411E-2,1.031904742E-1,9.890317684E0
3.555888281E0,-9.899106979E0,-6.939185411E-2,9.601201117E-2,9.899815782E0
3.558314166E0,-9.925428391E0,-8.614161611E-2,1.031904742E-1,9.926338569E0
3.560740052E0,-9.891928673E0,-1.004985496E-1,8.883354068E-2,9.892838027E0
3.563165937E0,-9.923035622E0,-7.657032460E-2,6.729813665E-2,9.923559241E0
3.565591771E0,-9.911071777E0,-9.092725813E-2,8.165507019E-2,9.911825215E0
3.568017656E0,-9.899106979E0,-5.982056633E-2,8.404789865E-2,9.899644516E0
3.570443541E0,-9.899106979E0,-6.699903309E-2,8.404789865E-2,9.899690496E0
3.572869375E0,-9.872786522E0,-5.742774159E-2,8.644071966E-2,9.873331943E0
3.575295260E0,-9.903892517E0,-8.135596663E-2,6.251249462E-2,9.904423941E0
3.577721146E0,-9.925428391E0,-7.896314561E-2,6.490531564E-2,9.925954695E0
3.580147031E0,-9.896714211E0,-8.614161611E-2,8.165507019E-2,9.897425933E0
3.582572864E0,-9.913464546E0,-5.503492057E-2,7.447660714E-2,9.913897060E0
3.584998750E0,-9.932606697E0,-5.742774159E-2,6.011966988E-2,9.932954652E0
3.587424635E0,-9.894321442E0,-8.135596663E-2,7.686942816E-2,9.894954497E0
3.589850468E0,-9.901499748E0,-6.460621208E-2,1.055833027E-1,9.902273429E0
3.592276354E0,-9.925428391E0,-1.004985496E-1,7.208377868E-2,9.926198908E0
3.594702239E0,-9.908679008E0,-5.982056633E-2,7.686942816E-2,9.909157739E0
3.597128073E0,-9.896714211E0,-7.417750359E-2,8.404789865E-2,9.897349065E0
3.599553958E0,-9.906285286E0,-7.896314561E-2,7.926224917E-2,9.906917071E0
3.601979843E0,-9.915857315E0,-8.853443712E-2,8.883354068E-2,9.916650444E0
3.604405729E0,-9.901499748E0,-9.810572863E-2,8.404789865E-2,9.902342453E0
3.606831562E0,-9.896714211E0,-9.092725813E-2,8.165507019E-2,9.897468741E0
3.609257448E0,-9.908679008E0,-1.052841991E-1,7.926224917E-2,9.909555336E0
3.611683333E0,-9.906285286E0,-1.004985496E-1,5.772684515E-2,9.906963234E0
3.614109218E0,-9.884750366E0,-7.417750359E-2,8.165507019E-2,9.885365934E0
3.616535052E0,-9.913464546E0,-8.853443712E-2,9.601201117E-2,9.914324786E0
3.618960937E0,-9.896714211E0,-9.332008660E-2,8.883354068E-2,9.897552839E0
3.621386823E0,-9.915857315E0,-8.374879509E-2,8.883354068E-2,9.916608874E0
3.623812656E0,-9.923035622E0,-8.374879509E-2,8.883354068E-2,9.923786637E0
3.626238541E0,-9.887143135E0,-7.417750359E-2,7.208377868E-2,9.887684145E0
3.628664427E0,-9.906285286E0,-8.614161611E-2,7.208377868E-2,9.906922056E0
3.631090312E0,-9.891928673E0,-7.178468257E-2,7.926224917E-2,9.892506680E0
3.633516146E0,-9.891928673E0,-7.417750359E-2,6.969095767E-2,9.892452274E0
3.635942031E0,-9.911071777E0,-6.699903309E-2,8.883354068E-2,9.911696325E0
3.638367916E0,-9.882357597E0,-8.135596663E-2,1.127617657E-1,9.883335757E0
3.640793750E0,-9.887143135E0,-7.657032460E-2,8.883354068E-2,9.887838681E0
3.643219635E0,-9.920642853E0,-8.614161611E-2,1.103689447E-1,9.921630728E0
3.645645521E0,-9.913464546E0,-9.092725813E-2,1.055833027E-1,9.914443752E0
3.648071406E0,-9.884750366E0,-1.004985496E-1,1.199402362E-1,9.885988844E0
3.650497239E0,-9.913464546E0,-6.939185411E-2,1.223330572E-1,9.914462160E0
3.652923125E0,-9.918250084E0,-7.417750359E-2,1.055833027E-1,9.919089417E0
3.655349010E0,-9.903892517E0,-8.374879509E-2,9.840483218E-2,9.904735451E0
3.657774843E0,-9.896714211E0,-8.135596663E-2,1.127617657E-1,9.897690952E0
3.660200729E0,-9.906285286E0,-6.939185411E-2,8.404789865E-2,9.906884851E0
3.662626614E0,-9.906285286E0,-5.503492057E-2,8.404789865E-2,9.906794691E0
3.665052500E0,-9.918250084E0,-8.374879509E-2,8.165507019E-2,9.918939769E0
3.667478333E0,-9.903892517E0,-7.178468257E-2,7.208377868E-2,9.904414980E0
3.669904218E0,-9.884750366E0,-8.853443712E-2,6.490531564E-2,9.885359925E0
3.672330104E0,-9.889535904E0,-1.124626622E-1,6.729813665E-2,9.890404303E0
3.674755937E0,-9.899106979E0,-1.100698411E-1,8.644071966E-2,9.900096280E0
3.677181823E0,-9.887143135E0,-7.417750359E-2,7.686942816E-2,9.887720191E0
3.679607708E0,-9.899106979E0,-6.939185411E-2,7.208377868E-2,9.899612633E0
3.682033593E0,-9.906285286E0,-7.417750359E-2,6.490531564E-2,9.906775619E0
3.684459427E0,-9.920642853E0,-5.264209956E-2,6.729813665E-2,9.921010777E0
3.686885312E0,-9.899106979E0,-8.853443712E-2,7.208377868E-2,9.899765321E0
3.689311198E0,-9.894321442E0,-1.004985496E-1,7.686942816E-2,9.895130401E0
3.691737083E0,-9.918250084E0,-7.417750359E-2,7.926224917E-2,9.918844163E0
3.694162916E0,-9.891928673E0,-8.374879509E-2,9.601201117E-2,9.892749114E0
3.696588802E0,-9.899106979E0,-8.374879509E-2,7.447660714E-2,9.899741391E0
3.699014687E0,-9.937392235E0,-9.571290761E-2,8.883354068E-2,9.938250187E0
3.701440521E0,-9.901499748E0,-8.853443712E-2,5.054837838E-2,9.902024578E0
3.703866406E0,-9.920642853E0,-9.092725813E-2,6.969095767E-2,9.921304310E0
3.706292291E0,-9.923035622E0,-6.699903309E-2,6.729813665E-2,9.923490004E0
3.708718177E0,-9.891928673E0,-7.178468257E-2,5.533402413E-2,9.892343896E0
3.711144010E0,-9.887143135E0,-5.503492057E-2,6.251249462E-2,9.887493920E0
3.713569896E0,-9.915857315E0,-8.853443712E-2,7.208377868E-2,9.916514544E0
3.715995781E0,-9.923035622E0,-8.374879509E-2,8.883354068E-2,9.923786637E0
3.718421614E0,-9.913464546E0,-6.699903309E-2,9.840483218E-2,9.914179325E0
3.720847500E0,-9.906285286E0,-9.092725813E-2,8.644071966E-2,9.907079687E0
3.723273385E0,-9.906285286E0,-7.896314561E-2,1.127617657E-1,9.907241723E0
3.725699218E0,-9.896714211E0,-5.982056633E-2,1.031904742E-1,9.897432947E0
3.728125104E0,-9.906285286E0,-8.374879509E-2,9.361918271E-2,9.907081638E0
3.730550989E0,-9.927821159E0,-7.657032460E-2,1.151545867E-1,9.928784244E0
3.732976875E0,-9.915857315E0,-8.614161611E-2,9.361918271E-2,9.916673395E0
3.735402708E0,-9.903892517E0,-6.939185411E-2,1.031904742E-1,9.904673164E0
3.737828593E0,-9.903892517E0,-6.221338734E-2,7.447660714E-2,9.904367938E0
3.740254479E0,-9.896714211E0,-8.135596663E-2,8.404789865E-2,9.897405468E0
3.742680364E0,-9.913464546E0,-6.699903309E-2,8.644071966E-2,9.914067792E0
3.745106198E0,-9.923035622E0,-6.939185411E-2,8.883354068E-2,9.923675860E0
3.747532083E0,-9.918250084E0,-8.135596663E-2,7.686942816E-2,9.918881612E0
3.749957968E0,-9.882357597E0,-6.460621208E-2,8.165507019E-2,9.882906111E0
3.752383802E0,-9.891928673E0,-8.853443712E-2,8.883354068E-2,9.892723721E0
3.754809687E0,-9.906285286E0,-7.657032460E-2,9.122636169E-2,9.907001233E0
3.757235573E0,-9.915857315E0,-1.028913707E-1,1.007976532E-1,9.916903402E0
3.759661458E0,-9.903892517E0,-9.092725813E-2,9.840483218E-2,9.904798749E0
3.762087291E0,-9.899106979E0,-8.614161611E-2,9.601201117E-2,9.899947357E0
3.764513177E0,-9.903892517E0,-6.221338734E-2,9.122636169E-2,9.904508052E0
3.766939062E0,-9.894321442E0,-7.178468257E-2,1.103689447E-1,9.895197377E0
3.769364896E0,-9.899106979E0,-7.657032460E-2,1.055833027E-1,9.899966153E0
3.771790781E0,-9.891928673E0,-8.374879509E-2,8.404789865E-2,9.892640233E0
3.774216666E0,-9.887143135E0,-8.853443712E-2,9.601201117E-2,9.888005665E0
3.776642500E0,-9.887143135E0,-6.221338734E-2,1.007976532E-1,9.887852651E0
3.779068385E0,-9.903892517E0,-9.092725813E-2,9.601201117E-2,9.904775266E0
3.781494271E0,-9.915857315E0,-6.699903309E-2,9.122636169E-2,9.916503286E0
3.783920156E0,-9.906285286E0,-6.460621208E-2,8.644071966E-2,9.906873075E0
3.786346041E0,-9.906285286E0,-6.221338734E-2,8.644071966E-2,9.906857760E0
3.788771875E0,-9.939785004E0,-7.178468257E-2,9.122636169E-2,9.940462827E0
3.791197760E0,-9.918250084E0,-5.503492057E-2,7.208377868E-2,9.918664711E0
3.793623646E0,-9.906285286E0,-8.374879509E-2,7.447660714E-2,9.906919238E0
3.796049479E0,-9.913464546E0,-6.460621208E-2,7.208377868E-2,9.913937126E0
3.798475364E0,-9.915857315E0,-1.052841991E-1,7.686942816E-2,9.916714172E0
3.800901250E0,-9.906285286E0,-8.374879509E-2,6.969095767E-2,9.906884417E0
3.803327135E0,-9.913464546E0,-6.699903309E-2,6.969095767E-2,9.913935899E0
3.805752968E0,-9.906285286E0,-7.896314561E-2,5.294119939E-2,9.906741448E0
3.808178854E0,-9.891928673E0,-7.657032460E-2,4.576273263E-2,9.892330873E0
3.810604739E0,-9.891928673E0,-9.810572863E-2,7.686942816E-2,9.892713809E0
3.813030625E0,-9.911071777E0,-1.004985496E-1,5.294119939E-2,9.911722681E0
3.815456458E0,-9.889535904E0,-7.417750359E-2,8.404789865E-2,9.890171219E0
3.817882343E0,-9.906285286E0,-8.374879509E-2,7.447660714E-2,9.906919238E0
3.820308229E0,-9.925428391E0,-6.699903309E-2,9.122636169E-2,9.926073738E0
3.822734062E0,-9.889535904E0,-9.092725813E-2,9.361918271E-2,9.890396995E0
3.825159948E0,-9.899106979E0,-7.657032460E-2,8.644071966E-2,9.899780503E0
3.827585833E0,-9.911071777E0,-7.178468257E-2,7.926224917E-2,9.911648668E0
3.830011666E0,-9.903892517E0,-8.614161611E-2,9.122636169E-2,9.904687255E0
3.832437552E0,-9.911071777E0,-6.939185411E-2,9.361918271E-2,9.911756835E0
3.834863437E0,-9.901499748E0,-7.417750359E-2,7.208377868E-2,9.902039974E0
3.837289323E0,-9.920642853E0,-8.614161611E-2,6.251249462E-2,9.921213777E0
3.839715156E0,-9.894321442E0,-7.417750359E-2,9.122636169E-2,9.895020027E0
3.842141041E0,-9.913464546E0,-6.939185411E-2,9.122636169E-2,9.914127132E0
3.844566927E0,-9.884750366E0,-8.614161611E-2,6.969095767E-2,9.885371364E0
3.846992812E0,-9.911071777E0,-8.374879509E-2,9.601201117E-2,9.911890634E0
3.849418646E0,-9.896714211E0,-7.417750359E-2,1.055833027E-1,9.897555370E0
3.851844531E0,-9.872786522E0,-9.810572863E-2,1.247258782E-1,9.874061727E0
3.854270416E0,-9.853344917E0,-8.135596663E-2,1.103689447E-1,9.854298867E0
3.856696250E0,-9.868000984E0,-7.896314561E-2,1.247258782E-1,9.869105083E0
3.859122135E0,-9.915857315E0,-7.178468257E-2,1.103689447E-1,9.916731348E0
3.861548021E0,-9.913464546E0,-4.546362907E-2,1.342971772E-1,9.914478402E0
3.863973854E0,-9.925428391E0,-6.699903309E-2,1.438684613E-1,9.926697121E0
3.866399739E0,-9.918250084E0,-7.178468257E-2,1.199402362E-1,9.919235022E0
3.868825625E0,-9.903892517E0,-8.614161611E-2,1.199402362E-1,9.904993338E0
3.871251510E0,-9.911071777E0,-8.853443712E-2,1.247258782E-1,9.912251947E0
3.873677343E0,-9.913464546E0,-6.460621208E-2,1.151545867E-1,9.914343844E0
3.876103229E0,-9.894321442E0,-8.135596663E-2,9.361918271E-2,9.895098794E0
3.878529114E0,-9.906285286E0,-8.853443712E-2,9.361918271E-2,9.907123249E0
3.880955000E0,-9.875179291E0,-8.135596663E-2,9.840483218E-2,9.876004674E0
3.883380833E0,-9.891928673E0,-8.853443712E-2,9.361918271E-2,9.892767852E0
3.885806718E0,-9.908679008E0,-7.178468257E-2,6.490531564E-2,9.909151600E0
3.888232604E0,-9.899106979E0,-8.374879509E-2,7.447660714E-2,9.899741391E0
3.890658437E0,-9.889535904E0,-7.178468257E-2,9.122636169E-2,9.890217171E0
3.893084323E0,-9.908679008E0,-8.135596663E-2,8.165507019E-2,9.909349426E0
3.895510208E0,-9.923035622E0,-9.092725813E-2,8.644071966E-2,9.923828682E0
3.897936093E0,-9.942177773E0,-7.178468257E-2,6.729813665E-2,9.942664680E0
3.900361927E0,-9.918250084E0,-7.178468257E-2,8.883354068E-2,9.918907660E0
3.902787812E0,-9.908679008E0,-6.939185411E-2,8.165507019E-2,9.909258422E0
3.905213698E0,-9.915857315E0,-7.417750359E-2,7.686942816E-2,9.916432701E0
3.907639531E0,-9.927821159E0,-9.332008660E-2,7.686942816E-2,9.928557323E0
3.910065416E0,-9.911071777E0,-7.417750359E-2,7.447660714E-2,9.911629172E0
3.912491302E0,-9.899106979E0,-8.614161611E-2,7.208377868E-2,9.899744211E0
3.914917187E0,-9.927821159E0,-6.221338734E-2,5.533402413E-2,9.928170291E0
3.917343021E0,-9.911071777E0,-8.853443712E-2,6.729813665E-2,9.911695675E0
3.919768906E0,-9.939785004E0,-5.503492057E-2,7.208377868E-2,9.940198732E0
3.922194791E0,-9.937392235E0,-6.939185411E-2,7.686942816E-2,9.937931805E0
3.924620625E0,-9.891928673E0,-6.699903309E-2,8.883354068E-2,9.892554429E0
3.927046510E0,-9.887143135E0,-7.657032460E-2,8.644071966E-2,9.887817473E0
3.929472396E0,-9.903892517E0,-8.374879509E-2,1.175474152E-1,9.904944131E0
3.931898281E0,-9.903892517E0,-8.614161611E-2,1.031904742E-1,9.904804675E0
3.934324114E0,-9.899106979E0,-6.221338734E-2,1.247258782E-1,9.900088183E0
3.936750000E0,-9.913464546E0,-7.417750359E-2,1.127617657E-1,9.914383331E0
